participant_id,run_timestamp,key_black,key_white,keymap_flip,block,block_idx,trial,global_trial,difficulty_mode,delta_fixed_mean,delta_fixed_sd,delta_stair_realised,delta_stair_mean,delta_step_down_used,delta_step_up_used,vblack_prop,n_vblack,n_vwhite,auto_on,aid_accuracy_setting,stimulus,aid_label,aid_correct,aid_onset_ms,aid_onset_ms_rel,response,correct,feedback,rt_s,rt_ms
1,20260325_120141,D,J,FALSE,CALIBRATION,1,1,1,staircase,NA,NA,0.20780228745421944,0.19,0.01,0.04000000000000001,0.29219771254578053,1052,2548,0,NA,WHITE,NA,NA,0,NA,WHITE,TRUE,CORRECT,4.826626206999208,4826.626206999208
1,20260325_120141,D,J,FALSE,CALIBRATION,1,2,2,staircase,NA,NA,0.19353864065850965,0.18018367346938777,0.00981632653061224,0.03926530612244899,0.3064613593414903,1103,2497,0,NA,WHITE,NA,NA,0,NA,WHITE,TRUE,CORRECT,2.813486084000033,2813.486084000033
1,20260325_120141,D,J,FALSE,CALIBRATION,1,3,3,staircase,NA,NA,0.19224252249027884,0.17055102040816328,0.00963265306122449,0.03853061224489797,0.6922425224902788,2492,1108,0,NA,BLACK,NA,NA,0,NA,BLACK,TRUE,CORRECT,2.661717837001561,2661.717837001561
1,20260325_120141,D,J,FALSE,CALIBRATION,1,4,4,staircase,NA,NA,0.18977859658874616,0.16110204081632654,0.00944897959183673,0.03779591836734695,0.3102214034112538,1117,2483,0,NA,WHITE,NA,NA,0,NA,WHITE,TRUE,CORRECT,2.4591753860004246,2459.1753860004246
1,20260325_120141,D,J,FALSE,CALIBRATION,1,5,5,staircase,NA,NA,0.1659566444447544,0.15183673469387757,0.00926530612244897,0.03706122448979592,0.6659566444447544,2397,1203,0,NA,BLACK,NA,NA,0,NA,BLACK,TRUE,CORRECT,1.678057658000398,1678.057658000398
1,20260325_120141,D,J,FALSE,CALIBRATION,1,6,6,staircase,NA,NA,0.14552968375026848,0.14275510204081637,0.00908163265306122,0.0363265306122449,0.3544703162497315,1276,2324,0,NA,WHITE,NA,NA,0,NA,WHITE,TRUE,CORRECT,2.548675576001187,2548.675576001187
1,20260325_120141,D,J,FALSE,CALIBRATION,1,7,7,staircase,NA,NA,0.1448522336747252,0.13385714285714287,0.00889795918367347,0.03559183673469388,0.3551477663252748,1279,2321,0,NA,WHITE,NA,NA,0,NA,WHITE,TRUE,CORRECT,2.5402525200006494,2540.2525200006494
1,20260325_120141,D,J,FALSE,CALIBRATION,1,8,8,staircase,NA,NA,0.13094984370407298,0.12514285714285717,0.00871428571428571,0.03485714285714286,0.369050156295927,1329,2271,0,NA,WHITE,NA,NA,0,NA,WHITE,TRUE,CORRECT,2.4574404769991816,2457.4404769991816
1,20260325_120141,D,J,FALSE,CALIBRATION,1,9,9,staircase,NA,NA,0.11730403732607864,0.1166122448979592,0.00853061224489796,0.03412244897959184,0.6173040373260786,2222,1378,0,NA,BLACK,NA,NA,0,NA,BLACK,TRUE,CORRECT,1.7249921650000033,1724.9921650000033
1,20260325_120141,D,J,FALSE,CALIBRATION,1,10,10,staircase,NA,NA,0.12322673532105144,0.108265306122449,0.0083469387755102,0.03338775510204082,0.6232267353210514,2244,1356,0,NA,BLACK,NA,NA,0,NA,BLACK,TRUE,CORRECT,1.665950247001092,1665.950247001092
1,20260325_120141,D,J,FALSE,CALIBRATION,1,11,11,staircase,NA,NA,0.10996681506076812,0.10010204081632657,0.00816326530612245,0.0326530612244898,0.6099668150607681,2196,1404,0,NA,BLACK,NA,NA,0,NA,BLACK,TRUE,CORRECT,2.4202796350000426,2420.2796350000426
1,20260325_120141,D,J,FALSE,CALIBRATION,1,12,12,staircase,NA,NA,0.09875163087806754,0.09212244897959186,0.00797959183673469,0.03191836734693878,0.40124836912193246,1444,2156,0,NA,WHITE,NA,NA,0,NA,WHITE,TRUE,CORRECT,2.6641946060008195,2664.1946060008195
1,20260325_120141,D,J,FALSE,CALIBRATION,1,13,13,staircase,NA,NA,0.10092338363228136,0.08432653061224492,0.00779591836734693,0.03118367346938776,0.6009233836322814,2163,1437,0,NA,BLACK,NA,NA,0,NA,BLACK,TRUE,CORRECT,1.1272935190008866,1127.2935190008866
1,20260325_120141,D,J,FALSE,CALIBRATION,1,14,14,staircase,NA,NA,0.0720673567308116,0.07671428571428573,0.00761224489795918,0.03044897959183674,0.4279326432691884,1541,2059,0,NA,WHITE,NA,NA,0,NA,WHITE,TRUE,CORRECT,2.79779107000104,2797.79107000104
1,20260325_120141,D,J,FALSE,CALIBRATION,1,15,15,staircase,NA,NA,0.06476846421529427,0.06928571428571431,0.00742857142857142,0.02971428571428572,0.5647684642152943,2033,1567,0,NA,BLACK,NA,NA,0,NA,BLACK,TRUE,CORRECT,1.89465245700012,1894.65245700012
1,20260325_120141,D,J,FALSE,CALIBRATION,1,16,16,staircase,NA,NA,0.0724909889683315,0.06204081632653063,0.00724489795918367,0.0289795918367347,0.5724909889683315,2061,1539,0,NA,BLACK,NA,NA,0,NA,BLACK,TRUE,CORRECT,1.8936149370001656,1893.6149370001656
1,20260325_120141,D,J,FALSE,CALIBRATION,1,17,17,staircase,NA,NA,0.05883047289610606,0.05497959183673472,0.00706122448979591,0.02824489795918368,0.5588304728961061,2012,1588,0,NA,BLACK,NA,NA,0,NA,BLACK,TRUE,CORRECT,2.636415017001127,2636.415017001127
1,20260325_120141,D,J,FALSE,CALIBRATION,1,18,18,staircase,NA,NA,0.06617265938203926,0.04810204081632655,0.00687755102040816,0.02751020408163266,0.5661726593820393,2038,1562,0,NA,BLACK,NA,NA,0,NA,BLACK,TRUE,CORRECT,2.1663043509997806,2166.3043509997806
1,20260325_120141,D,J,FALSE,CALIBRATION,1,19,19,staircase,NA,NA,0.03894707714509846,0.04140816326530615,0.0066938775510204,0.02677551020408163,0.5389470771450985,1940,1660,0,NA,BLACK,NA,NA,0,NA,BLACK,TRUE,CORRECT,3.3957448140008637,3395.7448140008637
1,20260325_120141,D,J,FALSE,CALIBRATION,1,20,20,staircase,NA,NA,0.04618639961209975,0.0348979591836735,0.00651020408163265,0.02604081632653061,0.5461863996120997,1966,1634,0,NA,BLACK,NA,NA,0,NA,BLACK,TRUE,CORRECT,2.055392717998984,2055.392717998984
1,20260325_120141,D,J,FALSE,CALIBRATION,1,21,21,staircase,NA,NA,0.03050919027778307,0.06020408163265309,0.00632653061224489,0.02530612244897959,0.5305091902777831,1910,1690,0,NA,BLACK,NA,NA,0,NA,WHITE,FALSE,INCORRECT,2.491131497999959,2491.131497999959
1,20260325_120141,D,J,FALSE,CALIBRATION,1,22,22,staircase,NA,NA,0.05630612534811058,0.05406122448979595,0.00614285714285714,0.02457142857142857,0.5563061253481105,2003,1597,0,NA,BLACK,NA,NA,0,NA,BLACK,TRUE,CORRECT,2.589695946000574,2589.6959460005746
1,20260325_120141,D,J,FALSE,CALIBRATION,1,23,23,staircase,NA,NA,0.06118623490364078,0.04810204081632656,0.00595918367346938,0.02383673469387755,0.4388137650963592,1580,2020,0,NA,WHITE,NA,NA,0,NA,WHITE,TRUE,CORRECT,1.7603574029999436,1760.3574029999436
1,20260325_120141,D,J,FALSE,CALIBRATION,1,24,24,staircase,NA,NA,0.03746290453237032,0.04232653061224493,0.00577551020408163,0.02310204081632653,0.5374629045323703,1935,1665,0,NA,BLACK,NA,NA,0,NA,BLACK,TRUE,CORRECT,2.8746496149997256,2874.6496149997256
1,20260325_120141,D,J,FALSE,CALIBRATION,1,25,25,staircase,NA,NA,0.05449244112326015,0.03673469387755105,0.00559183673469387,0.02236734693877551,0.4455075588767399,1604,1996,0,NA,WHITE,NA,NA,0,NA,WHITE,TRUE,CORRECT,2.494288529000187,2494.288529000187
1,20260325_120141,D,J,FALSE,CALIBRATION,1,26,26,staircase,NA,NA,0.02077810749005646,0.05836734693877554,0.00540816326530612,0.02163265306122449,0.5207781074900565,1875,1725,0,NA,BLACK,NA,NA,0,NA,WHITE,FALSE,INCORRECT,5.899862895999831,5899.862895999831
1,20260325_120141,D,J,FALSE,CALIBRATION,1,27,27,staircase,NA,NA,0.07589226968698547,0.05314285714285718,0.00522448979591836,0.02089795918367347,0.4241077303130145,1527,2073,0,NA,WHITE,NA,NA,0,NA,WHITE,TRUE,CORRECT,1.294616461998885,1294.616461998885
1,20260325_120141,D,J,FALSE,CALIBRATION,1,28,28,staircase,NA,NA,0.06228466360884537,0.04810204081632657,0.00504081632653061,0.02016326530612245,0.5622846636088453,2024,1576,0,NA,BLACK,NA,NA,0,NA,BLACK,TRUE,CORRECT,1.5693776110001636,1569.3776110001636
1,20260325_120141,D,J,FALSE,CALIBRATION,1,29,29,staircase,NA,NA,0.05201493855112651,0.04324489795918371,0.00485714285714285,0.01942857142857143,0.4479850614488735,1613,1987,0,NA,WHITE,NA,NA,0,NA,WHITE,TRUE,CORRECT,3.380620992000331,3380.620992000331
1,20260325_120141,D,J,FALSE,CALIBRATION,1,30,30,staircase,NA,NA,0.04747970365858946,0.0385714285714286,0.0046734693877551,0.01869387755102041,0.45252029634141056,1629,1971,0,NA,WHITE,NA,NA,0,NA,WHITE,TRUE,CORRECT,5.546466826001051,5546.466826001051
1,20260325_120141,D,J,FALSE,CALIBRATION,1,31,31,staircase,NA,NA,0.04799351300726379,0.03408163265306126,0.00448979591836734,0.01795918367346938,0.4520064869927362,1627,1973,0,NA,WHITE,NA,NA,0,NA,WHITE,TRUE,CORRECT,2.2716041180010507,2271.6041180010507
1,20260325_120141,D,J,FALSE,CALIBRATION,1,32,32,staircase,NA,NA,0.02261612247592659,0.05130612244897963,0.00430612244897959,0.01722448979591837,0.5226161224759266,1881,1719,0,NA,BLACK,NA,NA,0,NA,WHITE,FALSE,INCORRECT,3.60576804899938,3605.76804899938
1,20260325_120141,D,J,FALSE,CALIBRATION,1,33,33,staircase,NA,NA,0.05975666071605876,0.04718367346938779,0.00412244897959183,0.01648979591836735,0.4402433392839412,1585,2015,0,NA,WHITE,NA,NA,0,NA,WHITE,TRUE,CORRECT,2.8327912370004924,2832.7912370004924
1,20260325_120141,D,J,FALSE,CALIBRATION,1,34,34,staircase,NA,NA,0.0731012929561489,0.04324489795918371,0.00393877551020408,0.01575510204081633,0.5731012929561489,2063,1537,0,NA,BLACK,NA,NA,0,NA,BLACK,TRUE,CORRECT,1.2750123410005472,1275.0123410005472
1,20260325_120141,D,J,FALSE,CALIBRATION,1,35,35,staircase,NA,NA,0.05254011034920992,0.03948979591836738,0.00375510204081632,0.0150204081632653,0.5525401103492099,1989,1611,0,NA,BLACK,NA,NA,0,NA,BLACK,TRUE,CORRECT,4.063476543999059,4063.476543999059
1,20260325_120141,D,J,FALSE,CALIBRATION,1,36,36,staircase,NA,NA,0.04348026528958511,0.03591836734693881,0.00357142857142857,0.01428571428571428,0.5434802652895852,1957,1643,0,NA,BLACK,NA,NA,0,NA,BLACK,TRUE,CORRECT,2.3301271250002173,2330.1271250002173
1,20260325_120141,D,J,FALSE,CALIBRATION,1,37,37,staircase,NA,NA,0.036960014511877,0.032530612244898,0.00338775510204081,0.01355102040816326,0.536960014511877,1933,1667,0,NA,BLACK,NA,NA,0,NA,BLACK,TRUE,CORRECT,1.807859796001139,1807.859796001139
1,20260325_120141,D,J,FALSE,CALIBRATION,1,38,38,staircase,NA,NA,0.01005113607095119,0.04534693877551024,0.00320408163265306,0.01281632653061224,0.4899488639290488,1764,1836,0,NA,WHITE,NA,NA,0,NA,BLACK,FALSE,INCORRECT,3.571536483001182,3571.536483001182
1,20260325_120141,D,J,FALSE,CALIBRATION,1,39,39,staircase,NA,NA,0.05052281846840409,0.04232653061224493,0.0030204081632653,0.01208163265306122,0.4494771815315959,1618,1982,0,NA,WHITE,NA,NA,0,NA,WHITE,TRUE,CORRECT,2.6095455489994492,2609.5455489994492
1,20260325_120141,D,J,FALSE,CALIBRATION,1,40,40,staircase,NA,NA,0.04723893869741608,0.03948979591836738,0.00283673469387755,0.0113469387755102,0.5472389386974161,1970,1630,0,NA,BLACK,NA,NA,0,NA,BLACK,TRUE,CORRECT,3.0525944469991373,3052.5944469991373
1,20260325_120141,D,J,FALSE,CALIBRATION,1,41,41,staircase,NA,NA,0.02954991225697366,0.05010204081632656,0.00265306122448979,0.01061224489795918,0.4704500877430263,1694,1906,0,NA,WHITE,NA,NA,0,NA,BLACK,FALSE,INCORRECT,2.2990688160007267,2299.0688160007267
1,20260325_120141,D,J,FALSE,CALIBRATION,1,42,42,staircase,NA,NA,0.03818993521771759,0.04763265306122452,0.00246938775510204,0.00987755102040816,0.5381899352177176,1937,1663,0,NA,BLACK,NA,NA,0,NA,BLACK,TRUE,CORRECT,2.7399290960001963,2739.9290960001963
1,20260325_120141,D,J,FALSE,CALIBRATION,1,43,43,staircase,NA,NA,0.03666704177138335,0.05677551020408166,0.00228571428571428,0.00914285714285714,0.5366670417713834,1932,1668,0,NA,BLACK,NA,NA,0,NA,WHITE,FALSE,INCORRECT,2.4486787910009298,2448.67879100093
1,20260325_120141,D,J,FALSE,CALIBRATION,1,44,44,staircase,NA,NA,0.06768270910334032,0.05467346938775513,0.00210204081632653,0.00840816326530612,0.4323172908966597,1556,2044,0,NA,WHITE,NA,NA,0,NA,WHITE,TRUE,CORRECT,1.7904430930011586,1790.4430930011586
1,20260325_120141,D,J,FALSE,CALIBRATION,1,45,45,staircase,NA,NA,0.05060520794047527,0.06234693877551024,0.00191836734693877,0.0076734693877551,0.4493947920595247,1618,1982,0,NA,WHITE,NA,NA,0,NA,BLACK,FALSE,INCORRECT,3.621602780998728,3621.602780998728
1,20260325_120141,D,J,FALSE,CALIBRATION,1,46,46,staircase,NA,NA,0.04911829350903903,0.06061224489795922,0.00173469387755101,0.00693877551020407,0.5491182935090391,1977,1623,0,NA,BLACK,NA,NA,0,NA,BLACK,TRUE,CORRECT,1.6176828589996148,1617.6828589996148
1,20260325_120141,D,J,FALSE,CALIBRATION,1,47,47,staircase,NA,NA,0.04554062028239533,0.06681632653061227,0.00155102040816326,0.00620408163265305,0.5455406202823954,1964,1636,0,NA,BLACK,NA,NA,0,NA,WHITE,FALSE,INCORRECT,1.940120974999445,1940.120974999445
1,20260325_120141,D,J,FALSE,CALIBRATION,1,48,48,staircase,NA,NA,0.06215572561393769,0.06544897959183676,0.00136734693877551,0.00546938775510204,0.5621557256139377,2024,1576,0,NA,BLACK,NA,NA,0,NA,BLACK,TRUE,CORRECT,4.545971653000379,4545.971653000379
1,20260325_120141,D,J,FALSE,CALIBRATION,1,49,49,staircase,NA,NA,0.07477810785269433,0.06426530612244902,0.00118367346938775,0.00473469387755101,0.5747781078526943,2069,1531,0,NA,BLACK,NA,NA,0,NA,BLACK,TRUE,CORRECT,2.4565177349995793,2456.5177349995793
1,20260325_120141,D,J,FALSE,CALIBRATION,1,50,50,staircase,NA,NA,0.0663584260604563,0.06326530612244902,0.001,0.004,0.4336415739395437,1561,2039,0,NA,WHITE,NA,NA,0,NA,WHITE,TRUE,CORRECT,1.8398095989996364,1839.8095989996364
1,20260325_120141,D,J,FALSE,CALIBRATION,1,51,51,staircase,NA,NA,0.07296149246164782,0.06226530612244901,0.001,0.004,0.5729614924616478,2063,1537,0,NA,BLACK,NA,NA,0,NA,BLACK,TRUE,CORRECT,2.2344360659990343,2234.4360659990343
1,20260325_120141,D,J,FALSE,CALIBRATION,1,52,52,staircase,NA,NA,0.03895574716343003,0.06126530612244901,0.001,0.004,0.5389557471634301,1940,1660,0,NA,BLACK,NA,NA,0,NA,BLACK,TRUE,CORRECT,2.345145783001499,2345.145783001499
1,20260325_120141,D,J,FALSE,CALIBRATION,1,53,53,staircase,NA,NA,0.07128331001485443,0.06026530612244901,0.001,0.004,0.4287166899851456,1543,2057,0,NA,WHITE,NA,NA,0,NA,WHITE,TRUE,CORRECT,2.9952916459988046,2995.2916459988046
1,20260325_120141,D,J,FALSE,CALIBRATION,1,54,54,staircase,NA,NA,0.07176745344716404,0.05926530612244901,0.001,0.004,0.42823254655283594,1542,2058,0,NA,WHITE,NA,NA,0,NA,WHITE,TRUE,CORRECT,4.245368641999448,4245.368641999448
1,20260325_120141,D,J,FALSE,CALIBRATION,1,55,55,staircase,NA,NA,0.0625947552555106,0.05826530612244901,0.001,0.004,0.5625947552555106,2025,1575,0,NA,BLACK,NA,NA,0,NA,BLACK,TRUE,CORRECT,4.663295601001664,4663.295601001664
1,20260325_120141,D,J,FALSE,CALIBRATION,1,56,56,staircase,NA,NA,0.06219854660536228,0.05726530612244901,0.001,0.004,0.4378014533946377,1576,2024,0,NA,WHITE,NA,NA,0,NA,WHITE,TRUE,CORRECT,1.5910576730002504,1591.0576730002504
1,20260325_120141,D,J,FALSE,CALIBRATION,1,57,57,staircase,NA,NA,0.05428365281641786,0.05626530612244901,0.001,0.004,0.4457163471835821,1605,1995,0,NA,WHITE,NA,NA,0,NA,WHITE,TRUE,CORRECT,2.8330712740007584,2833.0712740007584
1,20260325_120141,D,J,FALSE,CALIBRATION,1,58,58,staircase,NA,NA,0.05349051598001363,0.05526530612244901,0.001,0.004,0.5534905159800136,1993,1607,0,NA,BLACK,NA,NA,0,NA,BLACK,TRUE,CORRECT,1.9231303370015669,1923.1303370015669
1,20260325_120141,D,J,FALSE,CALIBRATION,1,59,59,staircase,NA,NA,0.03973436629132759,0.05426530612244901,0.001,0.004,0.4602656337086724,1657,1943,0,NA,WHITE,NA,NA,0,NA,WHITE,TRUE,CORRECT,2.870389861998774,2870.389861998774
1,20260325_120141,D,J,FALSE,CALIBRATION,1,60,60,staircase,NA,NA,0.04895147172868087,0.05326530612244901,0.001,0.004,0.45104852827131914,1624,1976,0,NA,WHITE,NA,NA,0,NA,WHITE,TRUE,CORRECT,2.5392336289987725,2539.2336289987725
1,20260325_120141,D,J,FALSE,CALIBRATION,1,61,61,staircase,NA,NA,0.04810307883357705,0.05226530612244901,0.001,0.004,0.548103078833577,1973,1627,0,NA,BLACK,NA,NA,0,NA,BLACK,TRUE,CORRECT,4.57754136100084,4577.54136100084
1,20260325_120141,D,J,FALSE,CALIBRATION,1,62,62,staircase,NA,NA,0.04604503542551726,0.051265306122449,0.001,0.004,0.4539549645744827,1634,1966,0,NA,WHITE,NA,NA,0,NA,WHITE,TRUE,CORRECT,3.062035793000178,3062.035793000178
1,20260325_120141,D,J,FALSE,CALIBRATION,1,63,63,staircase,NA,NA,0.04518441999451801,0.050265306122449,0.001,0.004,0.454815580005482,1637,1963,0,NA,WHITE,NA,NA,0,NA,WHITE,TRUE,CORRECT,1.8719838520009944,1871.9838520009944
1,20260325_120141,D,J,FALSE,CALIBRATION,1,64,64,staircase,NA,NA,0.04583017748530824,0.049265306122449,0.001,0.004,0.5458301774853083,1965,1635,0,NA,BLACK,NA,NA,0,NA,BLACK,TRUE,CORRECT,1.5693857240003126,1569.3857240003126
1,20260325_120141,D,J,FALSE,CALIBRATION,1,65,65,staircase,NA,NA,0.05263158239685411,0.048265306122449,0.001,0.004,0.5526315823968541,1989,1611,0,NA,BLACK,NA,NA,0,NA,BLACK,TRUE,CORRECT,1.4001926610017108,1400.1926610017108
1,20260325_120141,D,J,FALSE,CALIBRATION,1,66,66,staircase,NA,NA,0.04330903348020646,0.047265306122449,0.001,0.004,0.5433090334802064,1956,1644,0,NA,BLACK,NA,NA,0,NA,BLACK,TRUE,CORRECT,1.864146409998284,1864.146409998284
1,20260325_120141,D,J,FALSE,CALIBRATION,1,67,67,staircase,NA,NA,0.05198840472972812,0.046265306122449,0.001,0.004,0.5519884047297281,1987,1613,0,NA,BLACK,NA,NA,0,NA,BLACK,TRUE,CORRECT,1.9550879519993032,1955.0879519993032
1,20260325_120141,D,J,FALSE,CALIBRATION,1,68,68,staircase,NA,NA,0.04939387440762938,0.045265306122449,0.001,0.004,0.5493938744076294,1978,1622,0,NA,BLACK,NA,NA,0,NA,BLACK,TRUE,CORRECT,1.988293716000044,1988.293716000044
1,20260325_120141,D,J,FALSE,CALIBRATION,1,69,69,staircase,NA,NA,0.04128095189348631,0.044265306122449,0.001,0.004,0.4587190481065137,1651,1949,0,NA,WHITE,NA,NA,0,NA,WHITE,TRUE,CORRECT,1.0320098969987157,1032.0098969987157
1,20260325_120141,D,J,FALSE,CALIBRATION,1,70,70,staircase,NA,NA,0.04664179594127026,0.043265306122449,0.001,0.004,0.4533582040587298,1632,1968,0,NA,WHITE,NA,NA,0,NA,WHITE,TRUE,CORRECT,0.8456396050005424,845.6396050005424
1,20260325_120141,D,J,FALSE,CALIBRATION,1,71,71,staircase,NA,NA,0.03460411870355071,0.042265306122449,0.001,0.004,0.46539588129644927,1675,1925,0,NA,WHITE,NA,NA,0,NA,WHITE,TRUE,CORRECT,2.091541279000012,2091.541279000012
1,20260325_120141,D,J,FALSE,CALIBRATION,1,72,72,staircase,NA,NA,0.04034841498057024,0.041265306122449,0.001,0.004,0.45965158501942976,1655,1945,0,NA,WHITE,NA,NA,0,NA,WHITE,TRUE,CORRECT,2.7040176049995353,2704.0176049995353
1,20260325_120141,D,J,FALSE,CALIBRATION,1,73,73,staircase,NA,NA,0.02804289824503831,0.04026530612244899,0.001,0.004,0.4719571017549617,1699,1901,0,NA,WHITE,NA,NA,0,NA,WHITE,TRUE,CORRECT,2.3002739980001934,2300.2739980001934
1,20260325_120141,D,J,FALSE,CALIBRATION,1,74,74,staircase,NA,NA,0.04128196185907985,0.044265306122449,0.001,0.004,0.5412819618590798,1949,1651,0,NA,BLACK,NA,NA,0,NA,WHITE,FALSE,INCORRECT,2.0358691239998734,2035.8691239998736
1,20260325_120141,D,J,FALSE,CALIBRATION,1,75,75,staircase,NA,NA,0.04936152176349747,0.048265306122449,0.001,0.004,0.5493615217634975,1978,1622,0,NA,BLACK,NA,NA,0,NA,WHITE,FALSE,INCORRECT,2.955811181998797,2955.811181998797
1,20260325_120141,D,J,FALSE,CALIBRATION,1,76,76,staircase,NA,NA,0.04206864066965183,0.047265306122449,0.001,0.004,0.4579313593303482,1649,1951,0,NA,WHITE,NA,NA,0,NA,WHITE,TRUE,CORRECT,4.111277304000396,4111.277304000396
1,20260325_120141,D,J,FALSE,CALIBRATION,1,77,77,staircase,NA,NA,0.03557888386524312,0.046265306122449,0.001,0.004,0.4644211161347569,1672,1928,0,NA,WHITE,NA,NA,0,NA,WHITE,TRUE,CORRECT,2.848701687000357,2848.701687000357
1,20260325_120141,D,J,FALSE,CALIBRATION,1,78,78,staircase,NA,NA,0.03224977539223211,0.050265306122449,0.001,0.004,0.4677502246077679,1684,1916,0,NA,WHITE,NA,NA,0,NA,BLACK,FALSE,INCORRECT,4.314282777999324,4314.282777999324
1,20260325_120141,D,J,FALSE,CALIBRATION,1,79,79,staircase,NA,NA,0.05790531760743067,0.049265306122449,0.001,0.004,0.5579053176074307,2008,1592,0,NA,BLACK,NA,NA,0,NA,BLACK,TRUE,CORRECT,4.275425486999666,4275.425486999666
1,20260325_120141,D,J,FALSE,CALIBRATION,1,80,80,staircase,NA,NA,0.03618349005187504,0.048265306122449,0.001,0.004,0.536183490051875,1930,1670,0,NA,BLACK,NA,NA,0,NA,BLACK,TRUE,CORRECT,3.0406456839991733,3040.6456839991733
1,20260325_120141,D,J,FALSE,CALIBRATION,1,81,81,staircase,NA,NA,0.04270492163838838,0.05226530612244901,0.001,0.004,0.5427049216383883,1954,1646,0,NA,BLACK,NA,NA,0,NA,WHITE,FALSE,INCORRECT,5.170452029000444,5170.452029000444
1,20260325_120141,D,J,FALSE,CALIBRATION,1,82,82,staircase,NA,NA,0.05617385134469805,0.051265306122449,0.001,0.004,0.5561738513446981,2002,1598,0,NA,BLACK,NA,NA,0,NA,BLACK,TRUE,CORRECT,6.352387094000733,6352.387094000733
1,20260325_120141,D,J,FALSE,CALIBRATION,1,83,83,staircase,NA,NA,0.05195521954527523,0.050265306122449,0.001,0.004,0.5519552195452753,1987,1613,0,NA,BLACK,NA,NA,0,NA,BLACK,TRUE,CORRECT,3.0370187199987413,3037.0187199987413
1,20260325_120141,D,J,FALSE,CALIBRATION,1,84,84,staircase,NA,NA,0.0654786946921003,0.049265306122449,0.001,0.004,0.5654786946921003,2036,1564,0,NA,BLACK,NA,NA,0,NA,BLACK,TRUE,CORRECT,1.5742049510008655,1574.2049510008655
1,20260325_120141,D,J,FALSE,CALIBRATION,1,85,85,staircase,NA,NA,0.05811820528780099,0.048265306122449,0.001,0.004,0.558118205287801,2009,1591,0,NA,BLACK,NA,NA,0,NA,BLACK,TRUE,CORRECT,4.521206671999607,4521.206671999607
1,20260325_120141,D,J,FALSE,CALIBRATION,1,86,86,staircase,NA,NA,0.03238948828568746,0.05226530612244901,0.001,0.004,0.5323894882856874,1917,1683,0,NA,BLACK,NA,NA,0,NA,WHITE,FALSE,INCORRECT,3.2346809480004595,3234.6809480004595
1,20260325_120141,D,J,FALSE,CALIBRATION,1,87,87,staircase,NA,NA,0.05915774898374799,0.051265306122449,0.001,0.004,0.440842251016252,1587,2013,0,NA,WHITE,NA,NA,0,NA,WHITE,TRUE,CORRECT,1.1649925019992224,1164.9925019992224
1,20260325_120141,D,J,FALSE,CALIBRATION,1,88,88,staircase,NA,NA,0.04560177637899126,0.050265306122449,0.001,0.004,0.45439822362100873,1636,1964,0,NA,WHITE,NA,NA,0,NA,WHITE,TRUE,CORRECT,1.3609180170005857,1360.9180170005857
1,20260325_120141,D,J,FALSE,CALIBRATION,1,89,89,staircase,NA,NA,0.05110354684585314,0.05426530612244901,0.001,0.004,0.5511035468458532,1984,1616,0,NA,BLACK,NA,NA,0,NA,WHITE,FALSE,INCORRECT,1.7214583450004284,1721.4583450004284
1,20260325_120141,D,J,FALSE,CALIBRATION,1,90,90,staircase,NA,NA,0.02583650730466238,0.05826530612244901,0.001,0.004,0.5258365073046624,1893,1707,0,NA,BLACK,NA,NA,0,NA,WHITE,FALSE,INCORRECT,4.0557454690006125,4055.745469000613
1,20260325_120141,D,J,FALSE,CALIBRATION,1,91,91,staircase,NA,NA,0.05529125904911141,0.05726530612244901,0.001,0.004,0.4447087409508886,1601,1999,0,NA,WHITE,NA,NA,0,NA,WHITE,TRUE,CORRECT,3.150499364999632,3150.499364999632
1,20260325_120141,D,J,FALSE,CALIBRATION,1,92,92,staircase,NA,NA,0.0558339116367523,0.05626530612244901,0.001,0.004,0.44416608836324767,1599,2001,0,NA,WHITE,NA,NA,0,NA,WHITE,TRUE,CORRECT,2.0642992289995163,2064.2992289995163
1,20260325_120141,D,J,FALSE,CALIBRATION,1,93,93,staircase,NA,NA,0.05370509407202106,0.05526530612244901,0.001,0.004,0.5537050940720211,1993,1607,0,NA,BLACK,NA,NA,0,NA,BLACK,TRUE,CORRECT,4.043494133000422,4043.494133000422
1,20260325_120141,D,J,FALSE,CALIBRATION,1,94,94,staircase,NA,NA,0.03900532758868443,0.05426530612244901,0.001,0.004,0.4609946724113156,1660,1940,0,NA,WHITE,NA,NA,0,NA,WHITE,TRUE,CORRECT,3.0872412620010437,3087.2412620010437
1,20260325_120141,D,J,FALSE,CALIBRATION,1,95,95,staircase,NA,NA,0.05300475091690931,0.05326530612244901,0.001,0.004,0.4469952490830907,1609,1991,0,NA,WHITE,NA,NA,0,NA,WHITE,TRUE,CORRECT,2.8095304050002596,2809.5304050002596
1,20260325_120141,D,J,FALSE,CALIBRATION,1,96,96,staircase,NA,NA,0.03627414657649133,0.05226530612244901,0.001,0.004,0.5362741465764913,1931,1669,0,NA,BLACK,NA,NA,0,NA,BLACK,TRUE,CORRECT,3.711297976000424,3711.297976000424
1,20260325_120141,D,J,FALSE,CALIBRATION,1,97,97,staircase,NA,NA,0.06067668496825905,0.051265306122449,0.001,0.004,0.43932331503174094,1582,2018,0,NA,WHITE,NA,NA,0,NA,WHITE,TRUE,CORRECT,2.6309134240000276,2630.9134240000276
1,20260325_120141,D,J,FALSE,CALIBRATION,1,98,98,staircase,NA,NA,0.04335653253584365,0.050265306122449,0.001,0.004,0.5433565325358436,1956,1644,0,NA,BLACK,NA,NA,0,NA,BLACK,TRUE,CORRECT,2.9901701460003096,2990.1701460003096
1,20260325_120141,D,J,FALSE,CALIBRATION,1,99,99,staircase,NA,NA,0.0538459271502459,0.049265306122449,0.001,0.004,0.4461540728497541,1606,1994,0,NA,WHITE,NA,NA,0,NA,WHITE,TRUE,CORRECT,2.154204752001533,2154.204752001533
1,20260325_120141,D,J,FALSE,CALIBRATION,1,100,100,staircase,NA,NA,0.0530810665647176,0.048265306122449,0.001,0.004,0.5530810665647176,1991,1609,0,NA,BLACK,NA,NA,0,NA,BLACK,TRUE,CORRECT,2.637771634999808,2637.771634999808
1,20260325_120141,D,J,FALSE,CALIBRATION,1,101,101,staircase,NA,NA,0.04125559595995135,0.047265306122449,0.001,0.004,0.5412555959599513,1949,1651,0,NA,BLACK,NA,NA,0,NA,BLACK,TRUE,CORRECT,1.9819294760000048,1981.9294760000048
1,20260325_120141,D,J,FALSE,CALIBRATION,1,102,102,staircase,NA,NA,0.03961316106983519,0.046265306122449,0.001,0.004,0.4603868389301648,1657,1943,0,NA,WHITE,NA,NA,0,NA,WHITE,TRUE,CORRECT,3.053322183999626,3053.322183999626
1,20260325_120141,D,J,FALSE,CALIBRATION,1,103,103,staircase,NA,NA,0.05028137116178246,0.045265306122449,0.001,0.004,0.5502813711617824,1981,1619,0,NA,BLACK,NA,NA,0,NA,BLACK,TRUE,CORRECT,1.39589354599957,1395.89354599957
1,20260325_120141,D,J,FALSE,CALIBRATION,1,104,104,staircase,NA,NA,0.06919373871587677,0.044265306122449,0.001,0.004,0.4308062612841233,1551,2049,0,NA,WHITE,NA,NA,0,NA,WHITE,TRUE,CORRECT,2.5606015029989067,2560.6015029989067
1,20260325_120141,D,J,FALSE,CALIBRATION,1,105,105,staircase,NA,NA,0.04958777618496619,0.043265306122449,0.001,0.004,0.4504122238150338,1621,1979,0,NA,WHITE,NA,NA,0,NA,WHITE,TRUE,CORRECT,2.118073618999915,2118.073618999915
1,20260325_120141,D,J,FALSE,CALIBRATION,1,106,106,staircase,NA,NA,0.05045638571858874,0.042265306122449,0.001,0.004,0.5504563857185887,1982,1618,0,NA,BLACK,NA,NA,0,NA,BLACK,TRUE,CORRECT,2.1048893259994657,2104.8893259994657
1,20260325_120141,D,J,FALSE,CALIBRATION,1,107,107,staircase,NA,NA,0.03698414146412268,0.041265306122449,0.001,0.004,0.46301585853587734,1667,1933,0,NA,WHITE,NA,NA,0,NA,WHITE,TRUE,CORRECT,3.120524848000059,3120.524848000059
1,20260325_120141,D,J,FALSE,CALIBRATION,1,108,108,staircase,NA,NA,0.04414226501708635,0.04026530612244899,0.001,0.004,0.45585773498291365,1641,1959,0,NA,WHITE,NA,NA,0,NA,WHITE,TRUE,CORRECT,4.182216003000576,4182.216003000576
1,20260325_120141,D,J,FALSE,CALIBRATION,1,109,109,staircase,NA,NA,0.02784725504682945,0.03926530612244899,0.001,0.004,0.5278472550468295,1900,1700,0,NA,BLACK,NA,NA,0,NA,BLACK,TRUE,CORRECT,2.889922469999874,2889.922469999874
1,20260325_120141,D,J,FALSE,CALIBRATION,1,110,110,staircase,NA,NA,0.04560929030612399,0.03826530612244899,0.001,0.004,0.454390709693876,1636,1964,0,NA,WHITE,NA,NA,0,NA,WHITE,TRUE,CORRECT,5.895475744000578,5895.475744000578
1,20260325_120141,D,J,FALSE,CALIBRATION,1,111,111,staircase,NA,NA,0.04135402679800917,0.042265306122449,0.001,0.004,0.45864597320199085,1651,1949,0,NA,WHITE,NA,NA,0,NA,BLACK,FALSE,INCORRECT,3.759388087999469,3759.388087999469
1,20260325_120141,D,J,FALSE,CALIBRATION,1,112,112,staircase,NA,NA,0.01754691549144832,0.041265306122449,0.001,0.004,0.5175469154914483,1863,1737,0,NA,BLACK,NA,NA,0,NA,BLACK,TRUE,CORRECT,2.9995928640000784,2999.5928640000784
1,20260325_120141,D,J,FALSE,CALIBRATION,1,113,113,staircase,NA,NA,0.03635597123869436,0.045265306122449,0.001,0.004,0.5363559712386944,1931,1669,0,NA,BLACK,NA,NA,0,NA,WHITE,FALSE,INCORRECT,3.997822499000904,3997.822499000904
1,20260325_120141,D,J,FALSE,CALIBRATION,1,114,114,staircase,NA,NA,0.03701305760533232,0.044265306122449,0.001,0.004,0.4629869423946677,1667,1933,0,NA,WHITE,NA,NA,0,NA,WHITE,TRUE,CORRECT,4.303932211001666,4303.932211001666
1,20260325_120141,D,J,FALSE,CALIBRATION,1,115,115,staircase,NA,NA,0.04274602264439114,0.043265306122449,0.001,0.004,0.5427460226443912,1954,1646,0,NA,BLACK,NA,NA,0,NA,BLACK,TRUE,CORRECT,1.682890406000297,1682.890406000297
1,20260325_120141,D,J,FALSE,CALIBRATION,1,116,116,staircase,NA,NA,0.04155918834053406,0.042265306122449,0.001,0.004,0.45844081165946593,1650,1950,0,NA,WHITE,NA,NA,0,NA,WHITE,TRUE,CORRECT,6.78520350999861,6785.20350999861
1,20260325_120141,D,J,FALSE,CALIBRATION,1,117,117,staircase,NA,NA,0.03703766459562464,0.046265306122449,0.001,0.004,0.5370376645956246,1933,1667,0,NA,BLACK,NA,NA,0,NA,WHITE,FALSE,INCORRECT,3.612594411000828,3612.594411000828
1,20260325_120141,D,J,FALSE,CALIBRATION,1,118,118,staircase,NA,NA,0.04664777771583313,0.050265306122449,0.001,0.004,0.5466477777158332,1968,1632,0,NA,BLACK,NA,NA,0,NA,WHITE,FALSE,INCORRECT,5.027114651000375,5027.114651000375
1,20260325_120141,D,J,FALSE,CALIBRATION,1,119,119,staircase,NA,NA,0.03780098926829423,0.05426530612244901,0.001,0.004,0.4621990107317058,1664,1936,0,NA,WHITE,NA,NA,0,NA,BLACK,FALSE,INCORRECT,0.9938211489989044,993.8211489989044
1,20260325_120141,D,J,FALSE,CALIBRATION,1,120,120,staircase,NA,NA,0.07346571544037112,0.05826530612244901,0.001,0.004,0.4265342845596289,1536,2064,0,NA,WHITE,NA,NA,0,NA,BLACK,FALSE,INCORRECT,3.7349554270003864,3734.9554270003864
1,20260325_120141,D,J,FALSE,CALIBRATION,1,121,121,staircase,NA,NA,0.06156812094647523,0.05726530612244901,0.001,0.004,0.5615681209464752,2022,1578,0,NA,BLACK,NA,NA,0,NA,BLACK,TRUE,CORRECT,3.150896585000737,3150.896585000737
1,20260325_120141,D,J,FALSE,CALIBRATION,1,122,122,staircase,NA,NA,0.05872424392788553,0.06126530612244901,0.001,0.004,0.4412757560721144,1589,2011,0,NA,WHITE,NA,NA,0,NA,BLACK,FALSE,INCORRECT,4.081639612000799,4081.6396120007994
1,20260325_120141,D,J,FALSE,CALIBRATION,1,123,123,staircase,NA,NA,0.0610165871216299,0.06026530612244901,0.001,0.004,0.5610165871216299,2020,1580,0,NA,BLACK,NA,NA,0,NA,BLACK,TRUE,CORRECT,1.942572203000964,1942.572203000964
1,20260325_120141,D,J,FALSE,CALIBRATION,1,124,124,staircase,NA,NA,0.0612776278399292,0.05926530612244901,0.001,0.004,0.5612776278399292,2021,1579,0,NA,BLACK,NA,NA,0,NA,BLACK,TRUE,CORRECT,4.387342489999355,4387.342489999355
1,20260325_120141,D,J,FALSE,CALIBRATION,1,125,125,staircase,NA,NA,0.06313698144716388,0.05826530612244901,0.001,0.004,0.4368630185528361,1573,2027,0,NA,WHITE,NA,NA,0,NA,WHITE,TRUE,CORRECT,5.144229171999541,5144.229171999541
1,20260325_120141,D,J,FALSE,CALIBRATION,1,126,126,staircase,NA,NA,0.06857328148326537,0.05726530612244901,0.001,0.004,0.43142671851673464,1553,2047,0,NA,WHITE,NA,NA,0,NA,WHITE,TRUE,CORRECT,7.204731068999536,7204.731068999536
1,20260325_120141,D,J,FALSE,CALIBRATION,1,127,127,staircase,NA,NA,0.04299659388368369,0.06126530612244901,0.001,0.004,0.4570034061163163,1645,1955,0,NA,WHITE,NA,NA,0,NA,BLACK,FALSE,INCORRECT,5.701854525999806,5701.854525999806
1,20260325_120141,D,J,FALSE,CALIBRATION,1,128,128,staircase,NA,NA,0.06207281958353859,0.06026530612244901,0.001,0.004,0.4379271804164614,1577,2023,0,NA,WHITE,NA,NA,0,NA,WHITE,TRUE,CORRECT,4.2571251040008065,4257.1251040008065
1,20260325_120141,D,J,FALSE,CALIBRATION,1,129,129,staircase,NA,NA,0.05653991469065468,0.05926530612244901,0.001,0.004,0.4434600853093454,1596,2004,0,NA,WHITE,NA,NA,0,NA,WHITE,TRUE,CORRECT,3.6028099289997044,3602.8099289997044
1,20260325_120141,D,J,FALSE,CALIBRATION,1,130,130,staircase,NA,NA,0.06003656668599214,0.05826530612244901,0.001,0.004,0.4399634333140079,1584,2016,0,NA,WHITE,NA,NA,0,NA,WHITE,TRUE,CORRECT,5.907624618999762,5907.624618999762
1,20260325_120141,D,J,FALSE,CALIBRATION,1,131,131,staircase,NA,NA,0.04341341977515823,0.05726530612244901,0.001,0.004,0.5434134197751582,1956,1644,0,NA,BLACK,NA,NA,0,NA,BLACK,TRUE,CORRECT,2.9376111550009227,2937.6111550009227
1,20260325_120141,D,J,FALSE,CALIBRATION,1,132,132,staircase,NA,NA,0.05012761237957242,0.05626530612244901,0.001,0.004,0.4498723876204276,1620,1980,0,NA,WHITE,NA,NA,0,NA,WHITE,TRUE,CORRECT,5.122022386998651,5122.022386998651
1,20260325_120141,D,J,FALSE,CALIBRATION,1,133,133,staircase,NA,NA,0.04642903709372158,0.06026530612244901,0.001,0.004,0.4535709629062784,1633,1967,0,NA,WHITE,NA,NA,0,NA,BLACK,FALSE,INCORRECT,2.771747291999418,2771.747291999418
1,20260325_120141,D,J,FALSE,CALIBRATION,1,134,134,staircase,NA,NA,0.05989151498414202,0.05926530612244901,0.001,0.004,0.440108485015858,1584,2016,0,NA,WHITE,NA,NA,0,NA,WHITE,TRUE,CORRECT,2.7224069269996107,2722.4069269996107
1,20260325_120141,D,J,FALSE,CALIBRATION,1,135,135,staircase,NA,NA,0.06723077571460108,0.05826530612244901,0.001,0.004,0.5672307757146011,2042,1558,0,NA,BLACK,NA,NA,0,NA,BLACK,TRUE,CORRECT,1.3666104090007138,1366.6104090007138
1,20260325_120141,D,J,FALSE,CALIBRATION,1,136,136,staircase,NA,NA,0.04097922789957869,0.05726530612244901,0.001,0.004,0.4590207721004213,1652,1948,0,NA,WHITE,NA,NA,0,NA,WHITE,TRUE,CORRECT,3.465909803999238,3465.909803999238
1,20260325_120141,D,J,FALSE,CALIBRATION,1,137,137,staircase,NA,NA,0.06584295304986491,0.05626530612244901,0.001,0.004,0.5658429530498649,2037,1563,0,NA,BLACK,NA,NA,0,NA,BLACK,TRUE,CORRECT,3.898191384998426,3898.191384998426
1,20260325_120141,D,J,FALSE,CALIBRATION,1,138,138,staircase,NA,NA,0.04836545587850789,0.05526530612244901,0.001,0.004,0.4516345441214921,1626,1974,0,NA,WHITE,NA,NA,0,NA,WHITE,TRUE,CORRECT,3.6476609820001618,3647.6609820001618
1,20260325_120141,D,J,FALSE,CALIBRATION,1,139,139,staircase,NA,NA,0.05352245522123173,0.05426530612244901,0.001,0.004,0.5535224552212318,1993,1607,0,NA,BLACK,NA,NA,0,NA,BLACK,TRUE,CORRECT,2.332087687998865,2332.087687998865
1,20260325_120141,D,J,FALSE,CALIBRATION,1,140,140,staircase,NA,NA,0.05413660321102818,0.05326530612244901,0.001,0.004,0.4458633967889718,1605,1995,0,NA,WHITE,NA,NA,0,NA,WHITE,TRUE,CORRECT,1.9515454190004675,1951.5454190004675
1,20260325_120141,D,J,FALSE,CALIBRATION,1,141,141,staircase,NA,NA,0.06556199857701424,0.05226530612244901,0.001,0.004,0.4344380014229858,1564,2036,0,NA,WHITE,NA,NA,0,NA,WHITE,TRUE,CORRECT,1.898716906000118,1898.716906000118
1,20260325_120141,D,J,FALSE,CALIBRATION,1,142,142,staircase,NA,NA,0.03859581544546288,0.05626530612244901,0.001,0.004,0.46140418455453713,1661,1939,0,NA,WHITE,NA,NA,0,NA,BLACK,FALSE,INCORRECT,4.015779145998749,4015.7791459987498
1,20260325_120141,D,J,FALSE,CALIBRATION,1,143,143,staircase,NA,NA,0.06441450966554929,0.06026530612244901,0.001,0.004,0.5644145096655493,2032,1568,0,NA,BLACK,NA,NA,0,NA,WHITE,FALSE,INCORRECT,3.5686841280003136,3568.6841280003136
1,20260325_120141,D,J,FALSE,CALIBRATION,1,144,144,staircase,NA,NA,0.04584285287287211,0.05926530612244901,0.001,0.004,0.4541571471271279,1635,1965,0,NA,WHITE,NA,NA,0,NA,WHITE,TRUE,CORRECT,5.53715167700102,5537.15167700102
1,20260325_120141,D,J,FALSE,CALIBRATION,1,145,145,staircase,NA,NA,0.06627137500923629,0.05826530612244901,0.001,0.004,0.5662713750092363,2039,1561,0,NA,BLACK,NA,NA,0,NA,BLACK,TRUE,CORRECT,5.130742908000684,5130.742908000684
1,20260325_120141,D,J,FALSE,CALIBRATION,1,146,146,staircase,NA,NA,0.07443212724185182,0.05726530612244901,0.001,0.004,0.42556787275814817,1532,2068,0,NA,WHITE,NA,NA,0,NA,WHITE,TRUE,CORRECT,2.8950641009996616,2895.0641009996616
1,20260325_120141,D,J,FALSE,CALIBRATION,1,147,147,staircase,NA,NA,0.05925218637059315,0.05626530612244901,0.001,0.004,0.4407478136294069,1587,2013,0,NA,WHITE,NA,NA,0,NA,WHITE,TRUE,CORRECT,2.2237667019999208,2223.7667019999208
1,20260325_120141,D,J,FALSE,CALIBRATION,1,148,148,staircase,NA,NA,0.05264344595472664,0.05526530612244901,0.001,0.004,0.44735655404527336,1610,1990,0,NA,WHITE,NA,NA,0,NA,WHITE,TRUE,CORRECT,3.0386484650007333,3038.6484650007333
1,20260325_120141,D,J,FALSE,CALIBRATION,1,149,149,staircase,NA,NA,0.04241937611817902,0.05426530612244901,0.001,0.004,0.45758062388182097,1647,1953,0,NA,WHITE,NA,NA,0,NA,WHITE,TRUE,CORRECT,4.811484958001529,4811.484958001529
1,20260325_120141,D,J,FALSE,CALIBRATION,1,150,150,staircase,NA,NA,0.0483976500869441,0.05326530612244901,0.001,0.004,0.5483976500869441,1974,1626,0,NA,BLACK,NA,NA,0,NA,BLACK,TRUE,CORRECT,2.6722195399997872,2672.2195399997872
1,20260325_120141,D,J,FALSE,CALIBRATION,1,151,151,staircase,NA,NA,0.04540970745407297,0.05226530612244901,0.001,0.004,0.45459029254592703,1637,1963,0,NA,WHITE,NA,NA,0,NA,WHITE,TRUE,CORRECT,7.009134568001173,7009.134568001173
1,20260325_120141,D,J,FALSE,CALIBRATION,1,152,152,staircase,NA,NA,0.04959613360365041,0.051265306122449,0.001,0.004,0.5495961336036504,1979,1621,0,NA,BLACK,NA,NA,0,NA,BLACK,TRUE,CORRECT,2.7015615689997503,2701.5615689997503
1,20260325_120141,D,J,FALSE,CALIBRATION,1,153,153,staircase,NA,NA,0.05702400393646319,0.050265306122449,0.001,0.004,0.4429759960635368,1595,2005,0,NA,WHITE,NA,NA,0,NA,WHITE,TRUE,CORRECT,2.386953381999774,2386.953381999774
1,20260325_120141,D,J,FALSE,CALIBRATION,1,154,154,staircase,NA,NA,0.04940071928913583,0.049265306122449,0.001,0.004,0.4505992807108642,1622,1978,0,NA,WHITE,NA,NA,0,NA,WHITE,TRUE,CORRECT,3.637292687999434,3637.292687999434
1,20260325_120141,D,J,FALSE,CALIBRATION,1,155,155,staircase,NA,NA,0.05802166985325432,0.048265306122449,0.001,0.004,0.4419783301467457,1591,2009,0,NA,WHITE,NA,NA,0,NA,WHITE,TRUE,CORRECT,3.3246700020008575,3324.6700020008575
1,20260325_120141,D,J,FALSE,CALIBRATION,1,156,156,staircase,NA,NA,0.03435662225508722,0.047265306122449,0.001,0.004,0.4656433777449128,1676,1924,0,NA,WHITE,NA,NA,0,NA,WHITE,TRUE,CORRECT,3.0924808449999546,3092.4808449999546
1,20260325_120141,D,J,FALSE,CALIBRATION,1,157,157,staircase,NA,NA,0.02846574566098292,0.046265306122449,0.001,0.004,0.5284657456609829,1902,1698,0,NA,BLACK,NA,NA,0,NA,BLACK,TRUE,CORRECT,7.464323326999875,7464.323326999875
1,20260325_120141,D,J,FALSE,CALIBRATION,1,158,158,staircase,NA,NA,0.03138805656504707,0.045265306122449,0.001,0.004,0.46861194343495294,1687,1913,0,NA,WHITE,NA,NA,0,NA,WHITE,TRUE,CORRECT,4.367360981001184,4367.360981001184
1,20260325_120141,D,J,FALSE,CALIBRATION,1,159,159,staircase,NA,NA,0.05264637196369094,0.044265306122449,0.001,0.004,0.5526463719636909,1990,1610,0,NA,BLACK,NA,NA,0,NA,BLACK,TRUE,CORRECT,1.4273235370001205,1427.3235370001205
1,20260325_120141,D,J,FALSE,CALIBRATION,1,160,160,staircase,NA,NA,0.05506330819695246,0.043265306122449,0.001,0.004,0.4449366918030475,1602,1998,0,NA,WHITE,NA,NA,0,NA,WHITE,TRUE,CORRECT,3.67546851500083,3675.46851500083
1,20260325_120141,D,J,FALSE,CALIBRATION,1,161,161,staircase,NA,NA,0.03924039660747503,0.042265306122449,0.001,0.004,0.539240396607475,1941,1659,0,NA,BLACK,NA,NA,0,NA,BLACK,TRUE,CORRECT,3.816521725999337,3816.521725999337
1,20260325_120141,D,J,FALSE,CALIBRATION,1,162,162,staircase,NA,NA,0.02892981917375813,0.046265306122449,0.001,0.004,0.5289298191737581,1904,1696,0,NA,BLACK,NA,NA,0,NA,WHITE,FALSE,INCORRECT,4.234795726999437,4234.795726999437
1,20260325_120141,D,J,FALSE,CALIBRATION,1,163,163,staircase,NA,NA,0.0401821257996902,0.050265306122449,0.001,0.004,0.4598178742003098,1655,1945,0,NA,WHITE,NA,NA,0,NA,BLACK,FALSE,INCORRECT,5.684785466000903,5684.785466000903
1,20260325_120141,D,J,FALSE,CALIBRATION,1,164,164,staircase,NA,NA,0.04293929759814693,0.049265306122449,0.001,0.004,0.542939297598147,1955,1645,0,NA,BLACK,NA,NA,0,NA,BLACK,TRUE,CORRECT,2.7624624899999617,2762.4624899999617
1,20260325_120141,D,J,FALSE,CALIBRATION,1,165,165,staircase,NA,NA,0.04745962346026623,0.048265306122449,0.001,0.004,0.4525403765397338,1629,1971,0,NA,WHITE,NA,NA,0,NA,WHITE,TRUE,CORRECT,2.082941546999791,2082.941546999791
1,20260325_120141,D,J,FALSE,CALIBRATION,1,166,166,staircase,NA,NA,0.06294092402497457,0.047265306122449,0.001,0.004,0.5629409240249745,2027,1573,0,NA,BLACK,NA,NA,0,NA,BLACK,TRUE,CORRECT,2.4264038000001165,2426.4038000001165
1,20260325_120141,D,J,FALSE,CALIBRATION,1,167,167,staircase,NA,NA,0.07013102287843637,0.051265306122449,0.001,0.004,0.4298689771215636,1548,2052,0,NA,WHITE,NA,NA,0,NA,BLACK,FALSE,INCORRECT,3.947310303999984,3947.310303999984
1,20260325_120141,D,J,FALSE,CALIBRATION,1,168,168,staircase,NA,NA,0.05378722715576783,0.050265306122449,0.001,0.004,0.5537872271557678,1994,1606,0,NA,BLACK,NA,NA,0,NA,BLACK,TRUE,CORRECT,4.00010366099923,4000.1036609992298
1,20260325_120141,D,J,FALSE,CALIBRATION,1,169,169,staircase,NA,NA,0.04940097717968461,0.05426530612244901,0.001,0.004,0.4505990228203154,1622,1978,0,NA,WHITE,NA,NA,0,NA,BLACK,FALSE,INCORRECT,5.3200574980000965,5320.0574980000965
1,20260325_120141,D,J,FALSE,CALIBRATION,1,170,170,staircase,NA,NA,0.06805244478604693,0.05326530612244901,0.001,0.004,0.43194755521395306,1555,2045,0,NA,WHITE,NA,NA,0,NA,WHITE,TRUE,CORRECT,5.0258415620010055,5025.8415620010055
1,20260325_120141,D,J,FALSE,CALIBRATION,1,171,171,staircase,NA,NA,0.03888447171701859,0.05726530612244901,0.001,0.004,0.5388844717170186,1940,1660,0,NA,BLACK,NA,NA,0,NA,WHITE,FALSE,INCORRECT,5.225743789000262,5225.743789000262
1,20260325_120141,D,J,FALSE,CALIBRATION,1,172,172,staircase,NA,NA,0.04211592042201302,0.05626530612244901,0.001,0.004,0.5421159204220131,1952,1648,0,NA,BLACK,NA,NA,0,NA,BLACK,TRUE,CORRECT,7.285588860999269,7285.588860999269
1,20260325_120141,D,J,FALSE,CALIBRATION,1,173,173,staircase,NA,NA,0.04920841587282074,0.05526530612244901,0.001,0.004,0.5492084158728208,1977,1623,0,NA,BLACK,NA,NA,0,NA,BLACK,TRUE,CORRECT,5.333781433000695,5333.781433000695
1,20260325_120141,D,J,FALSE,CALIBRATION,1,174,174,staircase,NA,NA,0.04127172259847812,0.05926530612244901,0.001,0.004,0.5412717225984781,1949,1651,0,NA,BLACK,NA,NA,0,NA,WHITE,FALSE,INCORRECT,3.7941866400014983,3794.1866400014983
1,20260325_120141,D,J,FALSE,CALIBRATION,1,175,175,staircase,NA,NA,0.04592043987856574,0.06326530612244902,0.001,0.004,0.5459204398785658,1965,1635,0,NA,BLACK,NA,NA,0,NA,WHITE,FALSE,INCORRECT,4.3745824599991465,4374.5824599991465
1,20260325_120141,D,J,FALSE,CALIBRATION,1,176,176,staircase,NA,NA,0.07207562832106282,0.06226530612244901,0.001,0.004,0.4279243716789371,1541,2059,0,NA,WHITE,NA,NA,0,NA,WHITE,TRUE,CORRECT,2.274243440999271,2274.243440999271
1,20260325_120141,D,J,FALSE,CALIBRATION,1,177,177,staircase,NA,NA,0.04716082874550322,0.06126530612244901,0.001,0.004,0.4528391712544968,1630,1970,0,NA,WHITE,NA,NA,0,NA,WHITE,TRUE,CORRECT,2.799783481999839,2799.783481999839
1,20260325_120141,D,J,FALSE,CALIBRATION,1,178,178,staircase,NA,NA,0.07052089566105538,0.06026530612244901,0.001,0.004,0.42947910433894465,1546,2054,0,NA,WHITE,NA,NA,0,NA,WHITE,TRUE,CORRECT,3.0968340460003674,3096.8340460003674
1,20260325_120141,D,J,FALSE,CALIBRATION,1,179,179,staircase,NA,NA,0.06557407283070617,0.05926530612244901,0.001,0.004,0.43442592716929385,1564,2036,0,NA,WHITE,NA,NA,0,NA,WHITE,TRUE,CORRECT,3.737725753000632,3737.725753000632
1,20260325_120141,D,J,FALSE,CALIBRATION,1,180,180,staircase,NA,NA,0.0649437558446938,0.05826530612244901,0.001,0.004,0.5649437558446938,2034,1566,0,NA,BLACK,NA,NA,0,NA,BLACK,TRUE,CORRECT,6.023780643001373,6023.780643001373
1,20260325_120141,D,J,FALSE,CALIBRATION,1,181,181,staircase,NA,NA,0.05634132298083264,0.05726530612244901,0.001,0.004,0.4436586770191674,1597,2003,0,NA,WHITE,NA,NA,0,NA,WHITE,TRUE,CORRECT,4.004917480999211,4004.917480999211
1,20260325_120141,D,J,FALSE,CALIBRATION,1,182,182,staircase,NA,NA,0.07100510407449431,0.05626530612244901,0.001,0.004,0.42899489592550566,1544,2056,0,NA,WHITE,NA,NA,0,NA,WHITE,TRUE,CORRECT,3.328819183001542,3328.819183001542
1,20260325_120141,D,J,FALSE,CALIBRATION,1,183,183,staircase,NA,NA,0.05014522697432948,0.05526530612244901,0.001,0.004,0.5501452269743294,1981,1619,0,NA,BLACK,NA,NA,0,NA,BLACK,TRUE,CORRECT,5.88743248100036,5887.43248100036
1,20260325_120141,D,J,FALSE,CALIBRATION,1,184,184,staircase,NA,NA,0.05268762053676221,0.05426530612244901,0.001,0.004,0.5526876205367622,1990,1610,0,NA,BLACK,NA,NA,0,NA,BLACK,TRUE,CORRECT,8.520065790000444,8520.065790000444
1,20260325_120141,D,J,FALSE,CALIBRATION,1,185,185,staircase,NA,NA,0.06266316653435154,0.05326530612244901,0.001,0.004,0.4373368334656485,1574,2026,0,NA,WHITE,NA,NA,0,NA,WHITE,TRUE,CORRECT,3.684012960000473,3684.012960000473
1,20260325_120141,D,J,FALSE,CALIBRATION,1,186,186,staircase,NA,NA,0.03443039540945031,0.05226530612244901,0.001,0.004,0.4655696045905497,1676,1924,0,NA,WHITE,NA,NA,0,NA,WHITE,TRUE,CORRECT,5.3807874510002875,5380.787451000288
1,20260325_120141,D,J,FALSE,CALIBRATION,1,187,187,staircase,NA,NA,0.05829699305419212,0.051265306122449,0.001,0.004,0.4417030069458079,1590,2010,0,NA,WHITE,NA,NA,0,NA,WHITE,TRUE,CORRECT,5.686590985998919,5686.590985998919
1,20260325_120141,D,J,FALSE,CALIBRATION,1,188,188,staircase,NA,NA,0.05334186796666325,0.050265306122449,0.001,0.004,0.5533418679666633,1992,1608,0,NA,BLACK,NA,NA,0,NA,BLACK,TRUE,CORRECT,5.024609037000118,5024.609037000118
1,20260325_120141,D,J,FALSE,CALIBRATION,1,189,189,staircase,NA,NA,0.05933145204967557,0.049265306122449,0.001,0.004,0.5593314520496756,2014,1586,0,NA,BLACK,NA,NA,0,NA,BLACK,TRUE,CORRECT,4.558137654999882,4558.137654999882
1,20260325_120141,D,J,FALSE,CALIBRATION,1,190,190,staircase,NA,NA,0.05172603809306007,0.048265306122449,0.001,0.004,0.4482739619069399,1614,1986,0,NA,WHITE,NA,NA,0,NA,WHITE,TRUE,CORRECT,3.087691063999955,3087.691063999955
1,20260325_120141,D,J,FALSE,CALIBRATION,1,191,191,staircase,NA,NA,0.04553095121604616,0.047265306122449,0.001,0.004,0.5455309512160461,1964,1636,0,NA,BLACK,NA,NA,0,NA,BLACK,TRUE,CORRECT,3.7799726390003343,3779.9726390003343
1,20260325_120141,D,J,FALSE,CALIBRATION,1,192,192,staircase,NA,NA,0.03579581302221598,0.046265306122449,0.001,0.004,0.464204186977784,1671,1929,0,NA,WHITE,NA,NA,0,NA,WHITE,TRUE,CORRECT,4.417533345000265,4417.533345000265
1,20260325_120141,D,J,FALSE,CALIBRATION,1,193,193,staircase,NA,NA,0.02759412425716137,0.050265306122449,0.001,0.004,0.5275941242571613,1899,1701,0,NA,BLACK,NA,NA,0,NA,WHITE,FALSE,INCORRECT,5.392170430999613,5392.170430999613
1,20260325_120141,D,J,FALSE,CALIBRATION,1,194,194,staircase,NA,NA,0.05786497583094637,0.049265306122449,0.001,0.004,0.4421350241690537,1592,2008,0,NA,WHITE,NA,NA,0,NA,WHITE,TRUE,CORRECT,2.843432055999074,2843.432055999074
1,20260325_120141,D,J,FALSE,CALIBRATION,1,195,195,staircase,NA,NA,0.05503547370667826,0.048265306122449,0.001,0.004,0.4449645262933217,1602,1998,0,NA,WHITE,NA,NA,0,NA,WHITE,TRUE,CORRECT,6.950083634999828,6950.083634999828
1,20260325_120141,D,J,FALSE,CALIBRATION,1,196,196,staircase,NA,NA,0.05248676275488756,0.047265306122449,0.001,0.004,0.5524867627548875,1989,1611,0,NA,BLACK,NA,NA,0,NA,BLACK,TRUE,CORRECT,2.753934571001082,2753.934571001082
1,20260325_120141,D,J,FALSE,CALIBRATION,1,197,197,staircase,NA,NA,0.0517908315578781,0.046265306122449,0.001,0.004,0.4482091684421219,1614,1986,0,NA,WHITE,NA,NA,0,NA,WHITE,TRUE,CORRECT,4.237379162001162,4237.379162001162
1,20260325_120141,D,J,FALSE,CALIBRATION,1,198,198,staircase,NA,NA,0.03243306430463055,0.045265306122449,0.001,0.004,0.46756693569536945,1683,1917,0,NA,WHITE,NA,NA,0,NA,WHITE,TRUE,CORRECT,4.989541265000298,4989.541265000298
1,20260325_120141,D,J,FALSE,CALIBRATION,1,199,199,staircase,NA,NA,0.03327756639226711,0.044265306122449,0.001,0.004,0.4667224336077329,1680,1920,0,NA,WHITE,NA,NA,0,NA,WHITE,TRUE,CORRECT,5.9737023249999766,5973.702324999977
1,20260325_120141,D,J,FALSE,CALIBRATION,1,200,200,staircase,NA,NA,0.0316472855509628,0.048265306122449,0.001,0.004,0.4683527144490372,1686,1914,0,NA,WHITE,NA,NA,0,NA,BLACK,FALSE,INCORRECT,8.02299611700073,8022.99611700073
1,20260325_120141,D,J,FALSE,CALIBRATION,1,201,201,staircase,NA,NA,0.0620365080956985,0.047265306122449,0.001,0.004,0.4379634919043015,1577,2023,0,NA,WHITE,NA,NA,0,NA,WHITE,TRUE,CORRECT,5.410685349999767,5410.685349999767
1,20260325_120141,D,J,FALSE,CALIBRATION,1,202,202,staircase,NA,NA,0.04159462082477255,0.046265306122449,0.001,0.004,0.5415946208247725,1950,1650,0,NA,BLACK,NA,NA,0,NA,BLACK,TRUE,CORRECT,5.300091613000404,5300.091613000404
1,20260325_120141,D,J,FALSE,CALIBRATION,1,203,203,staircase,NA,NA,0.06107735700872117,0.045265306122449,0.001,0.004,0.4389226429912788,1580,2020,0,NA,WHITE,NA,NA,0,NA,WHITE,TRUE,CORRECT,2.987242373999834,2987.242373999834
1,20260325_120141,D,J,FALSE,CALIBRATION,1,204,204,staircase,NA,NA,0.03679195910264217,0.044265306122449,0.001,0.004,0.5367919591026422,1932,1668,0,NA,BLACK,NA,NA,0,NA,BLACK,TRUE,CORRECT,6.567079021000609,6567.079021000609
1,20260325_120141,D,J,FALSE,CALIBRATION,1,205,205,staircase,NA,NA,0.04075589070807559,0.043265306122449,0.001,0.004,0.4592441092919244,1653,1947,0,NA,WHITE,NA,NA,0,NA,WHITE,TRUE,CORRECT,4.0500768149995565,4050.076814999557
1,20260325_120141,D,J,FALSE,CALIBRATION,1,206,206,staircase,NA,NA,0.05032813217251242,0.047265306122449,0.001,0.004,0.5503281321725124,1981,1619,0,NA,BLACK,NA,NA,0,NA,WHITE,FALSE,INCORRECT,6.894089078001343,6894.089078001343
1,20260325_120141,D,J,FALSE,CALIBRATION,1,207,207,staircase,NA,NA,0.03769430690615864,0.051265306122449,0.001,0.004,0.5376943069061586,1936,1664,0,NA,BLACK,NA,NA,0,NA,WHITE,FALSE,INCORRECT,4.461728173000665,4461.728173000665
1,20260325_120141,D,J,FALSE,CALIBRATION,1,208,208,staircase,NA,NA,0.04274124517172727,0.05526530612244901,0.001,0.004,0.4572587548282727,1646,1954,0,NA,WHITE,NA,NA,0,NA,BLACK,FALSE,INCORRECT,5.1226557760001015,5122.6557760001015
1,20260325_120141,D,J,FALSE,CALIBRATION,1,209,209,staircase,NA,NA,0.05290609653356284,0.05426530612244901,0.001,0.004,0.4470939034664372,1610,1990,0,NA,WHITE,NA,NA,0,NA,WHITE,TRUE,CORRECT,4.5158505069994135,4515.8505069994135
1,20260325_120141,D,J,FALSE,CALIBRATION,1,210,210,staircase,NA,NA,0.05708648770887193,0.05326530612244901,0.001,0.004,0.4429135122911281,1594,2006,0,NA,WHITE,NA,NA,0,NA,WHITE,TRUE,CORRECT,2.6746758770004817,2674.6758770004817
1,20260325_120141,D,J,FALSE,CALIBRATION,1,211,211,staircase,NA,NA,0.04259507761452187,0.05726530612244901,0.001,0.004,0.5425950776145219,1953,1647,0,NA,BLACK,NA,NA,0,NA,WHITE,FALSE,INCORRECT,4.796339202999661,4796.339202999661
1,20260325_120141,D,J,FALSE,CALIBRATION,1,212,212,staircase,NA,NA,0.06229688403932777,0.05626530612244901,0.001,0.004,0.5622968840393278,2024,1576,0,NA,BLACK,NA,NA,0,NA,BLACK,TRUE,CORRECT,5.649299441000039,5649.299441000039
1,20260325_120141,D,J,FALSE,CALIBRATION,1,213,213,staircase,NA,NA,0.07018351091285728,0.05526530612244901,0.001,0.004,0.5701835109128572,2053,1547,0,NA,BLACK,NA,NA,0,NA,BLACK,TRUE,CORRECT,7.25500619399827,7255.00619399827
1,20260325_120141,D,J,FALSE,CALIBRATION,1,214,214,staircase,NA,NA,0.03324291816372,0.05426530612244901,0.001,0.004,0.53324291816372,1920,1680,0,NA,BLACK,NA,NA,0,NA,BLACK,TRUE,CORRECT,3.8365687360001175,3836.5687360001175
1,20260325_120141,D,J,FALSE,CALIBRATION,1,215,215,staircase,NA,NA,0.06192750392965036,0.05326530612244901,0.001,0.004,0.4380724960703497,1577,2023,0,NA,WHITE,NA,NA,0,NA,WHITE,TRUE,CORRECT,2.661307697000666,2661.307697000666
1,20260325_120141,D,J,FALSE,CALIBRATION,1,216,216,staircase,NA,NA,0.04785234811426378,0.05726530612244901,0.001,0.004,0.45214765188573625,1628,1972,0,NA,WHITE,NA,NA,0,NA,BLACK,FALSE,INCORRECT,8.114843875000588,8114.843875000588
1,20260325_120141,D,J,FALSE,CALIBRATION,1,217,217,staircase,NA,NA,0.04427816850668571,0.05626530612244901,0.001,0.004,0.5442781685066858,1959,1641,0,NA,BLACK,NA,NA,0,NA,BLACK,TRUE,CORRECT,5.938587380000172,5938.587380000172
1,20260325_120141,D,J,FALSE,CALIBRATION,1,218,218,staircase,NA,NA,0.06167533367139885,0.05526530612244901,0.001,0.004,0.4383246663286011,1578,2022,0,NA,WHITE,NA,NA,0,NA,WHITE,TRUE,CORRECT,3.7989520830014953,3798.9520830014953
1,20260325_120141,D,J,FALSE,CALIBRATION,1,219,219,staircase,NA,NA,0.0610198740278989,0.05426530612244901,0.001,0.004,0.4389801259721011,1580,2020,0,NA,WHITE,NA,NA,0,NA,WHITE,TRUE,CORRECT,1.320507900998564,1320.507900998564
1,20260325_120141,D,J,FALSE,CALIBRATION,1,220,220,staircase,NA,NA,0.05249114484304298,0.05826530612244901,0.001,0.004,0.552491144843043,1989,1611,0,NA,BLACK,NA,NA,0,NA,WHITE,FALSE,INCORRECT,3.4220578120002756,3422.0578120002756
1,20260325_120141,D,J,FALSE,CALIBRATION,1,221,221,staircase,NA,NA,0.05178822500287409,0.05726530612244901,0.001,0.004,0.4482117749971259,1614,1986,0,NA,WHITE,NA,NA,0,NA,WHITE,TRUE,CORRECT,2.857881023999653,2857.881023999653
1,20260325_120141,D,J,FALSE,CALIBRATION,1,222,222,staircase,NA,NA,0.05563349102143306,0.05626530612244901,0.001,0.004,0.44436650897856694,1600,2000,0,NA,WHITE,NA,NA,0,NA,WHITE,TRUE,CORRECT,3.9890031239992823,3989.0031239992823
1,20260325_120141,D,J,FALSE,CALIBRATION,1,223,223,staircase,NA,NA,0.06106065616265658,0.05526530612244901,0.001,0.004,0.4389393438373434,1580,2020,0,NA,WHITE,NA,NA,0,NA,WHITE,TRUE,CORRECT,3.3427925069991034,3342.7925069991034
1,20260325_120141,D,J,FALSE,CALIBRATION,1,224,224,staircase,NA,NA,0.05768329030449437,0.05426530612244901,0.001,0.004,0.44231670969550563,1592,2008,0,NA,WHITE,NA,NA,0,NA,WHITE,TRUE,CORRECT,3.328113380999639,3328.113380999639
1,20260325_120141,D,J,FALSE,CALIBRATION,1,225,225,staircase,NA,NA,0.06387745813198441,0.05326530612244901,0.001,0.004,0.4361225418680156,1570,2030,0,NA,WHITE,NA,NA,0,NA,WHITE,TRUE,CORRECT,1.603379017999032,1603.379017999032
1,20260325_120141,D,J,FALSE,CALIBRATION,1,226,226,staircase,NA,NA,0.0531874072958522,0.05226530612244901,0.001,0.004,0.4468125927041478,1609,1991,0,NA,WHITE,NA,NA,0,NA,WHITE,TRUE,CORRECT,3.053287629998522,3053.287629998522
1,20260325_120141,D,J,FALSE,CALIBRATION,1,227,227,staircase,NA,NA,0.05737291525331194,0.051265306122449,0.001,0.004,0.4426270847466881,1593,2007,0,NA,WHITE,NA,NA,0,NA,WHITE,TRUE,CORRECT,2.6205454299997655,2620.5454299997655
1,20260325_120141,D,J,FALSE,CALIBRATION,1,228,228,staircase,NA,NA,0.04704817150208183,0.050265306122449,0.001,0.004,0.5470481715020818,1969,1631,0,NA,BLACK,NA,NA,0,NA,BLACK,TRUE,CORRECT,5.758721648000574,5758.721648000574
1,20260325_120141,D,J,FALSE,CALIBRATION,1,229,229,staircase,NA,NA,0.04443292213568805,0.049265306122449,0.001,0.004,0.5444329221356881,1960,1640,0,NA,BLACK,NA,NA,0,NA,BLACK,TRUE,CORRECT,8.444208109000101,8444.208109000101
1,20260325_120141,D,J,FALSE,CALIBRATION,1,230,230,staircase,NA,NA,0.05742004152931491,0.05326530612244901,0.001,0.004,0.5574200415293149,2007,1593,0,NA,BLACK,NA,NA,0,NA,WHITE,FALSE,INCORRECT,5.221376768000482,5221.376768000482
1,20260325_120141,D,J,FALSE,CALIBRATION,1,231,231,staircase,NA,NA,0.04927047959572242,0.05726530612244901,0.001,0.004,0.5492704795957224,1977,1623,0,NA,BLACK,NA,NA,0,NA,WHITE,FALSE,INCORRECT,7.489323875000991,7489.323875000991
1,20260325_120141,D,J,FALSE,CALIBRATION,1,232,232,staircase,NA,NA,0.063038322006329,0.05626530612244901,0.001,0.004,0.436961677993671,1573,2027,0,NA,WHITE,NA,NA,0,NA,WHITE,TRUE,CORRECT,1.019970391000243,1019.9703910002428
1,20260325_120141,D,J,FALSE,CALIBRATION,1,233,233,staircase,NA,NA,0.0482494147875958,0.05526530612244901,0.001,0.004,0.4517505852124042,1626,1974,0,NA,WHITE,NA,NA,0,NA,WHITE,TRUE,CORRECT,3.6337017789992383,3633.7017789992383
1,20260325_120141,D,J,FALSE,CALIBRATION,1,234,234,staircase,NA,NA,0.0746327948056705,0.05426530612244901,0.001,0.004,0.5746327948056705,2069,1531,0,NA,BLACK,NA,NA,0,NA,BLACK,TRUE,CORRECT,1.3752930700011348,1375.2930700011348
1,20260325_120141,D,J,FALSE,CALIBRATION,1,235,235,staircase,NA,NA,0.0478613447415381,0.05326530612244901,0.001,0.004,0.4521386552584619,1628,1972,0,NA,WHITE,NA,NA,0,NA,WHITE,TRUE,CORRECT,4.639381850000063,4639.381850000063
1,20260325_120141,D,J,FALSE,CALIBRATION,1,236,236,staircase,NA,NA,0.05104245306392218,0.05226530612244901,0.001,0.004,0.4489575469360778,1616,1984,0,NA,WHITE,NA,NA,0,NA,WHITE,TRUE,CORRECT,2.391288553999402,2391.288553999402
1,20260325_120141,D,J,FALSE,CALIBRATION,1,237,237,staircase,NA,NA,0.05566048921679337,0.051265306122449,0.001,0.004,0.5556604892167933,2000,1600,0,NA,BLACK,NA,NA,0,NA,BLACK,TRUE,CORRECT,3.969528506999268,3969.528506999268
1,20260325_120141,D,J,FALSE,CALIBRATION,1,238,238,staircase,NA,NA,0.03411422726497198,0.050265306122449,0.001,0.004,0.5341142272649719,1923,1677,0,NA,BLACK,NA,NA,0,NA,BLACK,TRUE,CORRECT,6.747893635001674,6747.893635001674
1,20260325_120141,D,J,FALSE,CALIBRATION,1,239,239,staircase,NA,NA,0.0500375982806237,0.049265306122449,0.001,0.004,0.5500375982806237,1980,1620,0,NA,BLACK,NA,NA,0,NA,BLACK,TRUE,CORRECT,2.3383089039998595,2338.3089039998595
1,20260325_120141,D,J,FALSE,CALIBRATION,1,240,240,staircase,NA,NA,0.03292427157728857,0.048265306122449,0.001,0.004,0.46707572842271144,1681,1919,0,NA,WHITE,NA,NA,0,NA,WHITE,TRUE,CORRECT,3.793906903998504,3793.906903998504
1,20260325_120141,D,J,FALSE,CALIBRATION,1,241,241,staircase,NA,NA,0.06041570999032126,0.047265306122449,0.001,0.004,0.43958429000967875,1583,2017,0,NA,WHITE,NA,NA,0,NA,WHITE,TRUE,CORRECT,3.973256429000685,3973.256429000685
1,20260325_120141,D,J,FALSE,CALIBRATION,1,242,242,staircase,NA,NA,0.0491205277647487,0.046265306122449,0.001,0.004,0.5491205277647487,1977,1623,0,NA,BLACK,NA,NA,0,NA,BLACK,TRUE,CORRECT,2.473402907999116,2473.402907999116
1,20260325_120141,D,J,FALSE,CALIBRATION,1,243,243,staircase,NA,NA,0.05616395208528303,0.050265306122449,0.001,0.004,0.556163952085283,2002,1598,0,NA,BLACK,NA,NA,0,NA,WHITE,FALSE,INCORRECT,6.184780809000586,6184.780809000586
1,20260325_120141,D,J,FALSE,CALIBRATION,1,244,244,staircase,NA,NA,0.06937226226735012,0.049265306122449,0.001,0.004,0.4306277377326499,1550,2050,0,NA,WHITE,NA,NA,0,NA,WHITE,TRUE,CORRECT,1.856327898998643,1856.327898998643
1,20260325_120141,D,J,FALSE,CALIBRATION,1,245,245,staircase,NA,NA,0.05617627613089925,0.048265306122449,0.001,0.004,0.5561762761308993,2002,1598,0,NA,BLACK,NA,NA,0,NA,BLACK,TRUE,CORRECT,2.5651623269986885,2565.1623269986885
1,20260325_120141,D,J,FALSE,CALIBRATION,1,246,246,staircase,NA,NA,0.04692187632253163,0.047265306122449,0.001,0.004,0.5469218763225316,1969,1631,0,NA,BLACK,NA,NA,0,NA,BLACK,TRUE,CORRECT,5.022982296000919,5022.982296000919
1,20260325_120141,D,J,FALSE,CALIBRATION,1,247,247,staircase,NA,NA,0.05461644365212688,0.046265306122449,0.001,0.004,0.44538355634787313,1603,1997,0,NA,WHITE,NA,NA,0,NA,WHITE,TRUE,CORRECT,3.889266244999817,3889.266244999817
1,20260325_120141,D,J,FALSE,CALIBRATION,1,248,248,staircase,NA,NA,0.05039221898732537,0.050265306122449,0.001,0.004,0.5503922189873254,1981,1619,0,NA,BLACK,NA,NA,0,NA,WHITE,FALSE,INCORRECT,2.815776261000792,2815.776261000792
1,20260325_120141,D,J,FALSE,CALIBRATION,1,249,249,staircase,NA,NA,0.03830034505826808,0.049265306122449,0.001,0.004,0.46169965494173193,1662,1938,0,NA,WHITE,NA,NA,0,NA,WHITE,TRUE,CORRECT,6.78487239199967,6784.87239199967
1,20260325_120141,D,J,FALSE,CALIBRATION,1,250,250,staircase,NA,NA,0.02679404836133641,0.048265306122449,0.001,0.004,0.4732059516386636,1704,1896,0,NA,WHITE,NA,NA,0,NA,WHITE,TRUE,CORRECT,5.810655362000034,5810.655362000034
1,20260325_120141,D,J,FALSE,CALIBRATION,1,251,251,staircase,NA,NA,0.04879610896709716,0.047265306122449,0.001,0.004,0.5487961089670972,1976,1624,0,NA,BLACK,NA,NA,0,NA,BLACK,TRUE,CORRECT,2.2251143060002505,2225.1143060002505
1,20260325_120141,D,J,FALSE,CALIBRATION,1,252,252,staircase,NA,NA,0.04644015882097879,0.051265306122449,0.001,0.004,0.5464401588209788,1967,1633,0,NA,BLACK,NA,NA,0,NA,WHITE,FALSE,INCORRECT,6.94120837400078,6941.20837400078
1,20260325_120141,D,J,FALSE,CALIBRATION,1,253,253,staircase,NA,NA,0.05909616455400485,0.05526530612244901,0.001,0.004,0.4409038354459951,1587,2013,0,NA,WHITE,NA,NA,0,NA,BLACK,FALSE,INCORRECT,4.033711753998432,4033.711753998432
1,20260325_120141,D,J,FALSE,CALIBRATION,1,254,254,staircase,NA,NA,0.06338058510967892,0.05426530612244901,0.001,0.004,0.5633805851096789,2028,1572,0,NA,BLACK,NA,NA,0,NA,BLACK,TRUE,CORRECT,4.41765112900066,4417.65112900066
1,20260325_120141,D,J,FALSE,CALIBRATION,1,255,255,staircase,NA,NA,0.05253254218344177,0.05326530612244901,0.001,0.004,0.5525325421834417,1989,1611,0,NA,BLACK,NA,NA,0,NA,BLACK,TRUE,CORRECT,4.334019404999708,4334.019404999708
1,20260325_120141,D,J,FALSE,CALIBRATION,1,256,256,staircase,NA,NA,0.05336250449706291,0.05226530612244901,0.001,0.004,0.4466374955029371,1608,1992,0,NA,WHITE,NA,NA,0,NA,WHITE,TRUE,CORRECT,2.3482003539993457,2348.2003539993457
1,20260325_120141,D,J,FALSE,CALIBRATION,1,257,257,staircase,NA,NA,0.0868331780022363,0.051265306122449,0.001,0.004,0.41316682199776367,1487,2113,0,NA,WHITE,NA,NA,0,NA,WHITE,TRUE,CORRECT,2.7413584280002397,2741.3584280002397
1,20260325_120141,D,J,FALSE,CALIBRATION,1,258,258,staircase,NA,NA,0.03712976069464416,0.050265306122449,0.001,0.004,0.4628702393053558,1666,1934,0,NA,WHITE,NA,NA,0,NA,WHITE,TRUE,CORRECT,3.2391152740001417,3239.1152740001417
1,20260325_120141,D,J,FALSE,CALIBRATION,1,259,259,staircase,NA,NA,0.03761461979002176,0.049265306122449,0.001,0.004,0.4623853802099782,1665,1935,0,NA,WHITE,NA,NA,0,NA,WHITE,TRUE,CORRECT,4.18867579200014,4188.67579200014
1,20260325_120141,D,J,FALSE,CALIBRATION,1,260,260,staircase,NA,NA,0.03116843538466317,0.048265306122449,0.001,0.004,0.4688315646153368,1688,1912,0,NA,WHITE,NA,NA,0,NA,WHITE,TRUE,CORRECT,8.446592934000364,8446.592934000364
1,20260325_120141,D,J,FALSE,CALIBRATION,1,261,261,staircase,NA,NA,0.04356669204881155,0.047265306122449,0.001,0.004,0.5435666920488116,1957,1643,0,NA,BLACK,NA,NA,0,NA,BLACK,TRUE,CORRECT,1.375565594998989,1375.565594998989
1,20260325_120141,D,J,FALSE,CALIBRATION,1,262,262,staircase,NA,NA,0.0546511357235696,0.046265306122449,0.001,0.004,0.4453488642764304,1603,1997,0,NA,WHITE,NA,NA,0,NA,WHITE,TRUE,CORRECT,3.3212689899992256,3321.2689899992256
1,20260325_120141,D,J,FALSE,CALIBRATION,1,263,263,staircase,NA,NA,0.04433488494214626,0.050265306122449,0.001,0.004,0.4556651150578538,1640,1960,0,NA,WHITE,NA,NA,0,NA,BLACK,FALSE,INCORRECT,6.432643645999633,6432.643645999633
1,20260325_120141,D,J,FALSE,CALIBRATION,1,264,264,staircase,NA,NA,0.04481460160457474,0.049265306122449,0.001,0.004,0.45518539839542527,1639,1961,0,NA,WHITE,NA,NA,0,NA,WHITE,TRUE,CORRECT,3.021339330000046,3021.339330000046
1,20260325_120141,D,J,FALSE,CALIBRATION,1,265,265,staircase,NA,NA,0.04394598673521623,0.048265306122449,0.001,0.004,0.4560540132647838,1642,1958,0,NA,WHITE,NA,NA,0,NA,WHITE,TRUE,CORRECT,1.894637433999378,1894.637433999378
1,20260325_120141,D,J,FALSE,CALIBRATION,1,266,266,staircase,NA,NA,0.04865875867853413,0.047265306122449,0.001,0.004,0.45134124132146586,1625,1975,0,NA,WHITE,NA,NA,0,NA,WHITE,TRUE,CORRECT,2.245691045000058,2245.691045000058
1,20260325_120141,D,J,FALSE,CALIBRATION,1,267,267,staircase,NA,NA,0.04941063448630341,0.046265306122449,0.001,0.004,0.4505893655136966,1622,1978,0,NA,WHITE,NA,NA,0,NA,WHITE,TRUE,CORRECT,9.115897319999933,9115.897319999933
1,20260325_120141,D,J,FALSE,CALIBRATION,1,268,268,staircase,NA,NA,0.04118560422107496,0.045265306122449,0.001,0.004,0.458814395778925,1652,1948,0,NA,WHITE,NA,NA,0,NA,WHITE,TRUE,CORRECT,5.392193867999595,5392.193867999595
1,20260325_120141,D,J,FALSE,CALIBRATION,1,269,269,staircase,NA,NA,0.03604531816331942,0.044265306122449,0.001,0.004,0.4639546818366806,1670,1930,0,NA,WHITE,NA,NA,0,NA,WHITE,TRUE,CORRECT,3.8714721520009334,3871.4721520009334
1,20260325_120141,D,J,FALSE,CALIBRATION,1,270,270,staircase,NA,NA,0.04465047321213678,0.043265306122449,0.001,0.004,0.4553495267878632,1639,1961,0,NA,WHITE,NA,NA,0,NA,WHITE,TRUE,CORRECT,6.057781447998423,6057.781447998423
1,20260325_120141,D,J,FALSE,CALIBRATION,1,271,271,staircase,NA,NA,0.05545473746051614,0.042265306122449,0.001,0.004,0.44454526253948384,1600,2000,0,NA,WHITE,NA,NA,0,NA,WHITE,TRUE,CORRECT,6.073270040000352,6073.270040000352
1,20260325_120141,D,J,FALSE,CALIBRATION,1,272,272,staircase,NA,NA,0.0308759257446874,0.046265306122449,0.001,0.004,0.5308759257446874,1911,1689,0,NA,BLACK,NA,NA,0,NA,WHITE,FALSE,INCORRECT,3.7173082640001662,3717.308264000166
1,20260325_120141,D,J,FALSE,CALIBRATION,1,273,273,staircase,NA,NA,0.02202114043561412,0.045265306122449,0.001,0.004,0.47797885956438585,1721,1879,0,NA,WHITE,NA,NA,0,NA,WHITE,TRUE,CORRECT,6.956009190998884,6956.009190998884
1,20260325_120141,D,J,FALSE,CALIBRATION,1,274,274,staircase,NA,NA,0.0472863906934112,0.049265306122449,0.001,0.004,0.5472863906934112,1970,1630,0,NA,BLACK,NA,NA,0,NA,WHITE,FALSE,INCORRECT,6.382333065999774,6382.333065999774
1,20260325_120141,D,J,FALSE,CALIBRATION,1,275,275,staircase,NA,NA,0.05603050420994397,0.048265306122449,0.001,0.004,0.5560305042099439,2002,1598,0,NA,BLACK,NA,NA,0,NA,BLACK,TRUE,CORRECT,1.2974357650000456,1297.4357650000456
1,20260325_120141,D,J,FALSE,CALIBRATION,1,276,276,staircase,NA,NA,0.05364780563539756,0.047265306122449,0.001,0.004,0.4463521943646024,1607,1993,0,NA,WHITE,NA,NA,0,NA,WHITE,TRUE,CORRECT,3.4041675690004922,3404.167569000492
1,20260325_120141,D,J,FALSE,CALIBRATION,1,277,277,staircase,NA,NA,0.05284721915286011,0.046265306122449,0.001,0.004,0.4471527808471399,1610,1990,0,NA,WHITE,NA,NA,0,NA,WHITE,TRUE,CORRECT,4.565406608000558,4565.406608000558
1,20260325_120141,D,J,FALSE,CALIBRATION,1,278,278,staircase,NA,NA,0.04787901919467659,0.045265306122449,0.001,0.004,0.5478790191946766,1972,1628,0,NA,BLACK,NA,NA,0,NA,BLACK,TRUE,CORRECT,3.86731576100101,3867.3157610010094
1,20260325_120141,D,J,FALSE,CALIBRATION,1,279,279,staircase,NA,NA,0.0366819502505704,0.044265306122449,0.001,0.004,0.4633180497494296,1668,1932,0,NA,WHITE,NA,NA,0,NA,WHITE,TRUE,CORRECT,7.049556402000235,7049.556402000235
1,20260325_120141,D,J,FALSE,CALIBRATION,1,280,280,staircase,NA,NA,0.0438057731493359,0.043265306122449,0.001,0.004,0.5438057731493359,1958,1642,0,NA,BLACK,NA,NA,0,NA,BLACK,TRUE,CORRECT,2.2328105269989464,2232.8105269989464
1,20260325_120141,D,J,FALSE,CALIBRATION,1,281,281,staircase,NA,NA,0.05171769927194934,0.042265306122449,0.001,0.004,0.5517176992719494,1986,1614,0,NA,BLACK,NA,NA,0,NA,BLACK,TRUE,CORRECT,3.3178027760004625,3317.8027760004625
1,20260325_120141,D,J,FALSE,CALIBRATION,1,282,282,staircase,NA,NA,0.06281794263057516,0.041265306122449,0.001,0.004,0.4371820573694248,1574,2026,0,NA,WHITE,NA,NA,0,NA,WHITE,TRUE,CORRECT,9.314546589999736,9314.546589999736
1,20260325_120141,D,J,FALSE,CALIBRATION,1,283,283,staircase,NA,NA,0.0256086329964114,0.04026530612244899,0.001,0.004,0.4743913670035886,1708,1892,0,NA,WHITE,NA,NA,0,NA,WHITE,TRUE,CORRECT,5.841830554998523,5841.830554998523
1,20260325_120141,D,J,FALSE,CALIBRATION,1,284,284,staircase,NA,NA,0.03722239454530744,0.03926530612244899,0.001,0.004,0.5372223945453074,1934,1666,0,NA,BLACK,NA,NA,0,NA,BLACK,TRUE,CORRECT,5.847677387999283,5847.677387999283
1,20260325_120141,D,J,FALSE,CALIBRATION,1,285,285,staircase,NA,NA,0.03682157536567614,0.03826530612244899,0.001,0.004,0.46317842463432385,1667,1933,0,NA,WHITE,NA,NA,0,NA,WHITE,TRUE,CORRECT,6.074849607000942,6074.849607000942
1,20260325_120141,D,J,FALSE,CALIBRATION,1,286,286,staircase,NA,NA,0.04138622107692603,0.03726530612244899,0.001,0.004,0.458613778923074,1651,1949,0,NA,WHITE,NA,NA,0,NA,WHITE,TRUE,CORRECT,8.489374053000574,8489.374053000574
1,20260325_120141,D,J,FALSE,CALIBRATION,1,287,287,staircase,NA,NA,0.03231346660879933,0.041265306122449,0.001,0.004,0.46768653339120064,1684,1916,0,NA,WHITE,NA,NA,0,NA,BLACK,FALSE,INCORRECT,5.06739165900035,5067.39165900035
1,20260325_120141,D,J,FALSE,CALIBRATION,1,288,288,staircase,NA,NA,0.05202725236165227,0.04026530612244899,0.001,0.004,0.5520272523616523,1987,1613,0,NA,BLACK,NA,NA,0,NA,BLACK,TRUE,CORRECT,3.646548344000621,3646.548344000621
1,20260325_120141,D,J,FALSE,CALIBRATION,1,289,289,staircase,NA,NA,0.02629939175481501,0.044265306122449,0.001,0.004,0.473700608245185,1705,1895,0,NA,WHITE,NA,NA,0,NA,BLACK,FALSE,INCORRECT,6.658239604999835,6658.239604999835
1,20260325_120141,D,J,FALSE,CALIBRATION,1,290,290,staircase,NA,NA,0.04490446693878811,0.043265306122449,0.001,0.004,0.45509553306121187,1638,1962,0,NA,WHITE,NA,NA,0,NA,WHITE,TRUE,CORRECT,5.27345741300087,5273.45741300087
1,20260325_120141,D,J,FALSE,CALIBRATION,1,291,291,staircase,NA,NA,0.04462842059695091,0.047265306122449,0.001,0.004,0.45537157940304906,1639,1961,0,NA,WHITE,NA,NA,0,NA,BLACK,FALSE,INCORRECT,3.508740802999455,3508.740802999455
1,20260325_120141,D,J,FALSE,CALIBRATION,1,292,292,staircase,NA,NA,0.05846297253651427,0.046265306122449,0.001,0.004,0.5584629725365142,2010,1590,0,NA,BLACK,NA,NA,0,NA,BLACK,TRUE,CORRECT,4.169736010999259,4169.736010999259
1,20260325_120141,D,J,FALSE,CALIBRATION,1,293,293,staircase,NA,NA,0.08287730399700952,0.045265306122449,0.001,0.004,0.41712269600299046,1502,2098,0,NA,WHITE,NA,NA,0,NA,WHITE,TRUE,CORRECT,6.643154544000936,6643.154544000936
1,20260325_120141,D,J,FALSE,CALIBRATION,1,294,294,staircase,NA,NA,0.05502369062416604,0.044265306122449,0.001,0.004,0.555023690624166,1998,1602,0,NA,BLACK,NA,NA,0,NA,BLACK,TRUE,CORRECT,8.00979439799994,8009.79439799994
1,20260325_120141,D,J,FALSE,CALIBRATION,1,295,295,staircase,NA,NA,0.03888648349716162,0.043265306122449,0.001,0.004,0.4611135165028384,1660,1940,0,NA,WHITE,NA,NA,0,NA,WHITE,TRUE,CORRECT,8.475790737000352,8475.790737000352
1,20260325_120141,D,J,FALSE,CALIBRATION,1,296,296,staircase,NA,NA,0.03199449660375139,0.047265306122449,0.001,0.004,0.5319944966037514,1915,1685,0,NA,BLACK,NA,NA,0,NA,WHITE,FALSE,INCORRECT,6.1625364660012565,6162.5364660012565
1,20260325_120141,D,J,FALSE,CALIBRATION,1,297,297,staircase,NA,NA,0.04425840632134142,0.046265306122449,0.001,0.004,0.5442584063213414,1959,1641,0,NA,BLACK,NA,NA,0,NA,BLACK,TRUE,CORRECT,3.802488307001113,3802.488307001113
1,20260325_120141,D,J,FALSE,CALIBRATION,1,298,298,staircase,NA,NA,0.05368845671784197,0.045265306122449,0.001,0.004,0.553688456717842,1993,1607,0,NA,BLACK,NA,NA,0,NA,BLACK,TRUE,CORRECT,3.7602925010014583,3760.2925010014583
1,20260325_120141,D,J,FALSE,CALIBRATION,1,299,299,staircase,NA,NA,0.04846122118007652,0.044265306122449,0.001,0.004,0.4515387788199235,1626,1974,0,NA,WHITE,NA,NA,0,NA,WHITE,TRUE,CORRECT,1.67178566199982,1671.78566199982
1,20260325_120141,D,J,FALSE,CALIBRATION,1,300,300,staircase,NA,NA,0.04602261893717525,0.043265306122449,0.001,0.004,0.4539773810628248,1634,1966,0,NA,WHITE,NA,NA,0,NA,WHITE,TRUE,CORRECT,4.515388385001643,4515.388385001643
1,20260325_120141,D,J,FALSE,MANUAL,2,1,301,fixed_delta,0.04926863410845236,0.01178079441382163,NA,NA,NA,NA,0.44301871200453263,1595,2005,0,NA,WHITE,NA,NA,0,NA,WHITE,TRUE,CORRECT,3.2445838149997144,3244.5838149997144
1,20260325_120141,D,J,FALSE,MANUAL,2,2,302,fixed_delta,0.04926863410845236,0.01178079441382163,NA,NA,NA,NA,0.5406745526145269,1946,1654,0,NA,BLACK,NA,NA,0,NA,BLACK,TRUE,CORRECT,3.1142294149994996,3114.2294149994996
1,20260325_120141,D,J,FALSE,MANUAL,2,3,303,fixed_delta,0.04926863410845236,0.01178079441382163,NA,NA,NA,NA,0.45318653177744966,1631,1969,0,NA,WHITE,NA,NA,0,NA,WHITE,TRUE,CORRECT,1.8612378680008987,1861.2378680008987
1,20260325_120141,D,J,FALSE,MANUAL,2,4,304,fixed_delta,0.04926863410845236,0.01178079441382163,NA,NA,NA,NA,0.5694771998575086,2050,1550,0,NA,BLACK,NA,NA,0,NA,BLACK,TRUE,CORRECT,2.757839769999918,2757.839769999918
1,20260325_120141,D,J,FALSE,MANUAL,2,5,305,fixed_delta,0.04926863410845236,0.01178079441382163,NA,NA,NA,NA,0.5383624179418949,1938,1662,0,NA,BLACK,NA,NA,0,NA,WHITE,FALSE,INCORRECT,8.373364658000355,8373.364658000355
1,20260325_120141,D,J,FALSE,MANUAL,2,6,306,fixed_delta,0.04926863410845236,0.01178079441382163,NA,NA,NA,NA,0.560992591922753,2020,1580,0,NA,BLACK,NA,NA,0,NA,BLACK,TRUE,CORRECT,1.5018765810000332,1501.8765810000332
1,20260325_120141,D,J,FALSE,MANUAL,2,7,307,fixed_delta,0.04926863410845236,0.01178079441382163,NA,NA,NA,NA,0.4462500265516552,1607,1993,0,NA,WHITE,NA,NA,0,NA,BLACK,FALSE,INCORRECT,4.232654283001466,4232.654283001466
1,20260325_120141,D,J,FALSE,MANUAL,2,8,308,fixed_delta,0.04926863410845236,0.01178079441382163,NA,NA,NA,NA,0.5644961109268627,2032,1568,0,NA,BLACK,NA,NA,0,NA,BLACK,TRUE,CORRECT,6.290679110999918,6290.679110999918
1,20260325_120141,D,J,FALSE,MANUAL,2,9,309,fixed_delta,0.04926863410845236,0.01178079441382163,NA,NA,NA,NA,0.45118718124000856,1624,1976,0,NA,WHITE,NA,NA,0,NA,WHITE,TRUE,CORRECT,3.189560373999484,3189.560373999484
1,20260325_120141,D,J,FALSE,MANUAL,2,10,310,fixed_delta,0.04926863410845236,0.01178079441382163,NA,NA,NA,NA,0.4332253064007313,1560,2040,0,NA,WHITE,NA,NA,0,NA,WHITE,TRUE,CORRECT,7.393407162000585,7393.407162000585
1,20260325_120141,D,J,FALSE,MANUAL,2,11,311,fixed_delta,0.04926863410845236,0.01178079441382163,NA,NA,NA,NA,0.5398875405812812,1944,1656,0,NA,BLACK,NA,NA,0,NA,BLACK,TRUE,CORRECT,2.152785636000772,2152.785636000772
1,20260325_120141,D,J,FALSE,MANUAL,2,12,312,fixed_delta,0.04926863410845236,0.01178079441382163,NA,NA,NA,NA,0.5428305011611941,1954,1646,0,NA,BLACK,NA,NA,0,NA,BLACK,TRUE,CORRECT,6.689486007999221,6689.486007999221
1,20260325_120141,D,J,FALSE,MANUAL,2,13,313,fixed_delta,0.04926863410845236,0.01178079441382163,NA,NA,NA,NA,0.5484049545201927,1974,1626,0,NA,BLACK,NA,NA,0,NA,BLACK,TRUE,CORRECT,4.624923266999758,4624.923266999758
1,20260325_120141,D,J,FALSE,MANUAL,2,14,314,fixed_delta,0.04926863410845236,0.01178079441382163,NA,NA,NA,NA,0.5455199392905705,1964,1636,0,NA,BLACK,NA,NA,0,NA,BLACK,TRUE,CORRECT,3.1351625099996454,3135.1625099996454
1,20260325_120141,D,J,FALSE,MANUAL,2,15,315,fixed_delta,0.04926863410845236,0.01178079441382163,NA,NA,NA,NA,0.5577504336131893,2008,1592,0,NA,BLACK,NA,NA,0,NA,BLACK,TRUE,CORRECT,4.608944609999526,4608.944609999526
1,20260325_120141,D,J,FALSE,MANUAL,2,16,316,fixed_delta,0.04926863410845236,0.01178079441382163,NA,NA,NA,NA,0.5481473340169231,1973,1627,0,NA,BLACK,NA,NA,0,NA,BLACK,TRUE,CORRECT,3.572573702998852,3572.573702998852
1,20260325_120141,D,J,FALSE,MANUAL,2,17,317,fixed_delta,0.04926863410845236,0.01178079441382163,NA,NA,NA,NA,0.5468990716577338,1969,1631,0,NA,BLACK,NA,NA,0,NA,BLACK,TRUE,CORRECT,4.19520228699912,4195.20228699912
1,20260325_120141,D,J,FALSE,MANUAL,2,18,318,fixed_delta,0.04926863410845236,0.01178079441382163,NA,NA,NA,NA,0.5516400051462785,1986,1614,0,NA,BLACK,NA,NA,0,NA,BLACK,TRUE,CORRECT,6.04742697599977,6047.42697599977
1,20260325_120141,D,J,FALSE,MANUAL,2,19,319,fixed_delta,0.04926863410845236,0.01178079441382163,NA,NA,NA,NA,0.4470503313786454,1609,1991,0,NA,WHITE,NA,NA,0,NA,WHITE,TRUE,CORRECT,4.026225862000501,4026.225862000502
1,20260325_120141,D,J,FALSE,MANUAL,2,20,320,fixed_delta,0.04926863410845236,0.01178079441382163,NA,NA,NA,NA,0.4549554836495632,1638,1962,0,NA,WHITE,NA,NA,0,NA,WHITE,TRUE,CORRECT,3.7447663500006456,3744.7663500006456
1,20260325_120141,D,J,FALSE,MANUAL,2,21,321,fixed_delta,0.04926863410845236,0.01178079441382163,NA,NA,NA,NA,0.5618161670461226,2023,1577,0,NA,BLACK,NA,NA,0,NA,BLACK,TRUE,CORRECT,4.303628437999578,4303.628437999578
1,20260325_120141,D,J,FALSE,MANUAL,2,22,322,fixed_delta,0.04926863410845236,0.01178079441382163,NA,NA,NA,NA,0.4368480846309024,1573,2027,0,NA,WHITE,NA,NA,0,NA,WHITE,TRUE,CORRECT,1.5853709909988538,1585.3709909988538
1,20260325_120141,D,J,FALSE,MANUAL,2,23,323,fixed_delta,0.04926863410845236,0.01178079441382163,NA,NA,NA,NA,0.46616825483531743,1678,1922,0,NA,WHITE,NA,NA,0,NA,WHITE,TRUE,CORRECT,2.3617854730000545,2361.7854730000545
1,20260325_120141,D,J,FALSE,MANUAL,2,24,324,fixed_delta,0.04926863410845236,0.01178079441382163,NA,NA,NA,NA,0.4615354603349639,1662,1938,0,NA,WHITE,NA,NA,0,NA,WHITE,TRUE,CORRECT,2.280255831999966,2280.255831999966
1,20260325_120141,D,J,FALSE,MANUAL,2,25,325,fixed_delta,0.04926863410845236,0.01178079441382163,NA,NA,NA,NA,0.4446692222761837,1601,1999,0,NA,WHITE,NA,NA,0,NA,WHITE,TRUE,CORRECT,2.1955343049994553,2195.5343049994553
1,20260325_120141,D,J,FALSE,MANUAL,2,26,326,fixed_delta,0.04926863410845236,0.01178079441382163,NA,NA,NA,NA,0.5601917889468206,2017,1583,0,NA,BLACK,NA,NA,0,NA,BLACK,TRUE,CORRECT,1.161082795000766,1161.082795000766
1,20260325_120141,D,J,FALSE,MANUAL,2,27,327,fixed_delta,0.04926863410845236,0.01178079441382163,NA,NA,NA,NA,0.4441595697739056,1599,2001,0,NA,WHITE,NA,NA,0,NA,WHITE,TRUE,CORRECT,1.0333436800010531,1033.3436800010531
1,20260325_120141,D,J,FALSE,MANUAL,2,28,328,fixed_delta,0.04926863410845236,0.01178079441382163,NA,NA,NA,NA,0.4431017231374912,1595,2005,0,NA,WHITE,NA,NA,0,NA,WHITE,TRUE,CORRECT,0.9828951840008812,982.8951840008812
1,20260325_120141,D,J,FALSE,MANUAL,2,29,329,fixed_delta,0.04926863410845236,0.01178079441382163,NA,NA,NA,NA,0.4573746098186851,1647,1953,0,NA,WHITE,NA,NA,0,NA,WHITE,TRUE,CORRECT,1.5333777830001054,1533.3777830001054
1,20260325_120141,D,J,FALSE,MANUAL,2,30,330,fixed_delta,0.04926863410845236,0.01178079441382163,NA,NA,NA,NA,0.4371017113795195,1574,2026,0,NA,WHITE,NA,NA,0,NA,WHITE,TRUE,CORRECT,1.8773931999985507,1877.3931999985507
1,20260325_120141,D,J,FALSE,MANUAL,2,31,331,fixed_delta,0.04926863410845236,0.01178079441382163,NA,NA,NA,NA,0.4492165601459399,1617,1983,0,NA,WHITE,NA,NA,0,NA,WHITE,TRUE,CORRECT,1.8494219120002529,1849.4219120002529
1,20260325_120141,D,J,FALSE,MANUAL,2,32,332,fixed_delta,0.04926863410845236,0.01178079441382163,NA,NA,NA,NA,0.4328710598008564,1558,2042,0,NA,WHITE,NA,NA,0,NA,WHITE,TRUE,CORRECT,1.8549929129985685,1854.9929129985685
1,20260325_120141,D,J,FALSE,MANUAL,2,33,333,fixed_delta,0.04926863410845236,0.01178079441382163,NA,NA,NA,NA,0.44610445868682463,1606,1994,0,NA,WHITE,NA,NA,0,NA,WHITE,TRUE,CORRECT,2.122050931000558,2122.050931000558
1,20260325_120141,D,J,FALSE,MANUAL,2,34,334,fixed_delta,0.04926863410845236,0.01178079441382163,NA,NA,NA,NA,0.4353927266366664,1567,2033,0,NA,WHITE,NA,NA,0,NA,WHITE,TRUE,CORRECT,2.3274607610001112,2327.4607610001112
1,20260325_120141,D,J,FALSE,MANUAL,2,35,335,fixed_delta,0.04926863410845236,0.01178079441382163,NA,NA,NA,NA,0.44210982262179166,1592,2008,0,NA,WHITE,NA,NA,0,NA,WHITE,TRUE,CORRECT,2.2776168100008363,2277.6168100008363
1,20260325_120141,D,J,FALSE,MANUAL,2,36,336,fixed_delta,0.04926863410845236,0.01178079441382163,NA,NA,NA,NA,0.4516635499168372,1626,1974,0,NA,WHITE,NA,NA,0,NA,WHITE,TRUE,CORRECT,2.652360621999833,2652.360621999833
1,20260325_120141,D,J,FALSE,MANUAL,2,37,337,fixed_delta,0.04926863410845236,0.01178079441382163,NA,NA,NA,NA,0.45383459616533034,1634,1966,0,NA,WHITE,NA,NA,0,NA,WHITE,TRUE,CORRECT,2.360096534999684,2360.096534999684
1,20260325_120141,D,J,FALSE,MANUAL,2,38,338,fixed_delta,0.04926863410845236,0.01178079441382163,NA,NA,NA,NA,0.5728732900936868,2062,1538,0,NA,BLACK,NA,NA,0,NA,WHITE,FALSE,INCORRECT,2.3646856020004634,2364.6856020004634
1,20260325_120141,D,J,FALSE,MANUAL,2,39,339,fixed_delta,0.04926863410845236,0.01178079441382163,NA,NA,NA,NA,0.5373686545795024,1935,1665,0,NA,BLACK,NA,NA,0,NA,BLACK,TRUE,CORRECT,1.230182622999564,1230.182622999564
1,20260325_120141,D,J,FALSE,MANUAL,2,40,340,fixed_delta,0.04926863410845236,0.01178079441382163,NA,NA,NA,NA,0.438984135875259,1580,2020,0,NA,WHITE,NA,NA,0,NA,WHITE,TRUE,CORRECT,1.7140157210014877,1714.0157210014877
1,20260325_120141,D,J,FALSE,MANUAL,2,41,341,fixed_delta,0.04926863410845236,0.01178079441382163,NA,NA,NA,NA,0.4671268440306523,1682,1918,0,NA,WHITE,NA,NA,0,NA,WHITE,TRUE,CORRECT,3.515278713999578,3515.278713999578
1,20260325_120141,D,J,FALSE,MANUAL,2,42,342,fixed_delta,0.04926863410845236,0.01178079441382163,NA,NA,NA,NA,0.5513595064151748,1985,1615,0,NA,BLACK,NA,NA,0,NA,BLACK,TRUE,CORRECT,1.024143009000909,1024.143009000909
1,20260325_120141,D,J,FALSE,MANUAL,2,43,343,fixed_delta,0.04926863410845236,0.01178079441382163,NA,NA,NA,NA,0.454064136576848,1635,1965,0,NA,WHITE,NA,NA,0,NA,WHITE,TRUE,CORRECT,5.060518423999383,5060.518423999383
1,20260325_120141,D,J,FALSE,MANUAL,2,44,344,fixed_delta,0.04926863410845236,0.01178079441382163,NA,NA,NA,NA,0.4433509980811033,1596,2004,0,NA,WHITE,NA,NA,0,NA,WHITE,TRUE,CORRECT,2.1808317409995652,2180.8317409995652
1,20260325_120141,D,J,FALSE,MANUAL,2,45,345,fixed_delta,0.04926863410845236,0.01178079441382163,NA,NA,NA,NA,0.5553615396079117,1999,1601,0,NA,BLACK,NA,NA,0,NA,BLACK,TRUE,CORRECT,2.5131180389998917,2513.1180389998917
1,20260325_120141,D,J,FALSE,MANUAL,2,46,346,fixed_delta,0.04926863410845236,0.01178079441382163,NA,NA,NA,NA,0.4631072537394492,1667,1933,0,NA,WHITE,NA,NA,0,NA,WHITE,TRUE,CORRECT,2.9726987579997513,2972.6987579997513
1,20260325_120141,D,J,FALSE,MANUAL,2,47,347,fixed_delta,0.04926863410845236,0.01178079441382163,NA,NA,NA,NA,0.4712313774463811,1696,1904,0,NA,WHITE,NA,NA,0,NA,WHITE,TRUE,CORRECT,3.394265904000349,3394.265904000349
1,20260325_120141,D,J,FALSE,MANUAL,2,48,348,fixed_delta,0.04926863410845236,0.01178079441382163,NA,NA,NA,NA,0.5725939553833763,2061,1539,0,NA,BLACK,NA,NA,0,NA,BLACK,TRUE,CORRECT,3.2217505520002305,3221.7505520002305
1,20260325_120141,D,J,FALSE,MANUAL,2,49,349,fixed_delta,0.04926863410845236,0.01178079441382163,NA,NA,NA,NA,0.461099774456373,1660,1940,0,NA,WHITE,NA,NA,0,NA,WHITE,TRUE,CORRECT,2.049943706999329,2049.943706999329
1,20260325_120141,D,J,FALSE,MANUAL,2,50,350,fixed_delta,0.04926863410845236,0.01178079441382163,NA,NA,NA,NA,0.4558086771927952,1641,1959,0,NA,WHITE,NA,NA,0,NA,WHITE,TRUE,CORRECT,3.393566110999018,3393.566110999018
1,20260325_120141,D,J,FALSE,MANUAL,2,51,351,fixed_delta,0.04926863410845236,0.01178079441382163,NA,NA,NA,NA,0.539575608174644,1942,1658,0,NA,BLACK,NA,NA,0,NA,BLACK,TRUE,CORRECT,6.547052141000677,6547.052141000677
1,20260325_120141,D,J,FALSE,MANUAL,2,52,352,fixed_delta,0.04926863410845236,0.01178079441382163,NA,NA,NA,NA,0.5426220613866947,1953,1647,0,NA,BLACK,NA,NA,0,NA,WHITE,FALSE,INCORRECT,5.262807278000764,5262.807278000764
1,20260325_120141,D,J,FALSE,MANUAL,2,53,353,fixed_delta,0.04926863410845236,0.01178079441382163,NA,NA,NA,NA,0.5506615501911136,1982,1618,0,NA,BLACK,NA,NA,0,NA,WHITE,FALSE,INCORRECT,8.238718955000877,8238.718955000877
1,20260325_120141,D,J,FALSE,MANUAL,2,54,354,fixed_delta,0.04926863410845236,0.01178079441382163,NA,NA,NA,NA,0.5452843315620937,1963,1637,0,NA,BLACK,NA,NA,0,NA,WHITE,FALSE,INCORRECT,5.949010360000102,5949.010360000102
1,20260325_120141,D,J,FALSE,MANUAL,2,55,355,fixed_delta,0.04926863410845236,0.01178079441382163,NA,NA,NA,NA,0.5516543799499459,1986,1614,0,NA,BLACK,NA,NA,0,NA,BLACK,TRUE,CORRECT,1.1891634539988445,1189.1634539988445
1,20260325_120141,D,J,FALSE,MANUAL,2,56,356,fixed_delta,0.04926863410845236,0.01178079441382163,NA,NA,NA,NA,0.4349431612676523,1566,2034,0,NA,WHITE,NA,NA,0,NA,WHITE,TRUE,CORRECT,2.291090153999903,2291.090153999903
1,20260325_120141,D,J,FALSE,MANUAL,2,57,357,fixed_delta,0.04926863410845236,0.01178079441382163,NA,NA,NA,NA,0.4618506273766505,1663,1937,0,NA,WHITE,NA,NA,0,NA,WHITE,TRUE,CORRECT,4.9201839359993755,4920.1839359993755
1,20260325_120141,D,J,FALSE,MANUAL,2,58,358,fixed_delta,0.04926863410845236,0.01178079441382163,NA,NA,NA,NA,0.5569452414165269,2005,1595,0,NA,BLACK,NA,NA,0,NA,WHITE,FALSE,INCORRECT,6.445820126000399,6445.820126000399
1,20260325_120141,D,J,FALSE,MANUAL,2,59,359,fixed_delta,0.04926863410845236,0.01178079441382163,NA,NA,NA,NA,0.46784868564092014,1684,1916,0,NA,WHITE,NA,NA,0,NA,WHITE,TRUE,CORRECT,1.3374216180000076,1337.4216180000076
1,20260325_120141,D,J,FALSE,MANUAL,2,60,360,fixed_delta,0.04926863410845236,0.01178079441382163,NA,NA,NA,NA,0.46111864888510007,1660,1940,0,NA,WHITE,NA,NA,0,NA,WHITE,TRUE,CORRECT,5.900319309001134,5900.319309001134
1,20260325_120141,D,J,FALSE,MANUAL,2,61,361,fixed_delta,0.04926863410845236,0.01178079441382163,NA,NA,NA,NA,0.576708344400835,2076,1524,0,NA,BLACK,NA,NA,0,NA,BLACK,TRUE,CORRECT,0.9507386590012176,950.7386590012176
1,20260325_120141,D,J,FALSE,MANUAL,2,62,362,fixed_delta,0.04926863410845236,0.01178079441382163,NA,NA,NA,NA,0.5565878723089479,2004,1596,0,NA,BLACK,NA,NA,0,NA,BLACK,TRUE,CORRECT,1.1392543009988003,1139.2543009988003
1,20260325_120141,D,J,FALSE,MANUAL,2,63,363,fixed_delta,0.04926863410845236,0.01178079441382163,NA,NA,NA,NA,0.4603109666227562,1657,1943,0,NA,WHITE,NA,NA,0,NA,BLACK,FALSE,INCORRECT,6.354094960999646,6354.094960999646
1,20260325_120141,D,J,FALSE,MANUAL,2,64,364,fixed_delta,0.04926863410845236,0.01178079441382163,NA,NA,NA,NA,0.5603034140300145,2017,1583,0,NA,BLACK,NA,NA,0,NA,BLACK,TRUE,CORRECT,0.793642489999911,793.642489999911
1,20260325_120141,D,J,FALSE,MANUAL,2,65,365,fixed_delta,0.04926863410845236,0.01178079441382163,NA,NA,NA,NA,0.5409222891118732,1947,1653,0,NA,BLACK,NA,NA,0,NA,BLACK,TRUE,CORRECT,0.8941140160004579,894.1140160004579
1,20260325_120141,D,J,FALSE,MANUAL,2,66,366,fixed_delta,0.04926863410845236,0.01178079441382163,NA,NA,NA,NA,0.4637661903083865,1670,1930,0,NA,WHITE,NA,NA,0,NA,BLACK,FALSE,INCORRECT,3.641916009000852,3641.9160090008518
1,20260325_120141,D,J,FALSE,MANUAL,2,67,367,fixed_delta,0.04926863410845236,0.01178079441382163,NA,NA,NA,NA,0.5700295400967345,2052,1548,0,NA,BLACK,NA,NA,0,NA,BLACK,TRUE,CORRECT,1.2727666339997086,1272.7666339997086
1,20260325_120141,D,J,FALSE,MANUAL,2,68,368,fixed_delta,0.04926863410845236,0.01178079441382163,NA,NA,NA,NA,0.5514479925580907,1985,1615,0,NA,BLACK,NA,NA,0,NA,BLACK,TRUE,CORRECT,6.441939264999746,6441.939264999746
1,20260325_120141,D,J,FALSE,MANUAL,2,69,369,fixed_delta,0.04926863410845236,0.01178079441382163,NA,NA,NA,NA,0.5409902570726948,1948,1652,0,NA,BLACK,NA,NA,0,NA,BLACK,TRUE,CORRECT,2.0195097720006743,2019.5097720006745
1,20260325_120141,D,J,FALSE,MANUAL,2,70,370,fixed_delta,0.04926863410845236,0.01178079441382163,NA,NA,NA,NA,0.44590632407011627,1605,1995,0,NA,WHITE,NA,NA,0,NA,WHITE,TRUE,CORRECT,1.562148619999789,1562.148619999789
1,20260325_120141,D,J,FALSE,MANUAL,2,71,371,fixed_delta,0.04926863410845236,0.01178079441382163,NA,NA,NA,NA,0.5548716515006304,1998,1602,0,NA,BLACK,NA,NA,0,NA,BLACK,TRUE,CORRECT,8.361466074000418,8361.466074000418
1,20260325_120141,D,J,FALSE,MANUAL,2,72,372,fixed_delta,0.04926863410845236,0.01178079441382163,NA,NA,NA,NA,0.5534232510701911,1992,1608,0,NA,BLACK,NA,NA,0,NA,BLACK,TRUE,CORRECT,2.521866503999263,2521.866503999263
1,20260325_120141,D,J,FALSE,MANUAL,2,73,373,fixed_delta,0.04926863410845236,0.01178079441382163,NA,NA,NA,NA,0.5517045535743654,1986,1614,0,NA,BLACK,NA,NA,0,NA,BLACK,TRUE,CORRECT,3.9538025439997,3953.8025439997
1,20260325_120141,D,J,FALSE,MANUAL,2,74,374,fixed_delta,0.04926863410845236,0.01178079441382163,NA,NA,NA,NA,0.4451520353257342,1603,1997,0,NA,WHITE,NA,NA,0,NA,WHITE,TRUE,CORRECT,2.494411421001132,2494.411421001132
1,20260325_120141,D,J,FALSE,MANUAL,2,75,375,fixed_delta,0.04926863410845236,0.01178079441382163,NA,NA,NA,NA,0.4656859497634524,1676,1924,0,NA,WHITE,NA,NA,0,NA,WHITE,TRUE,CORRECT,5.344609145000504,5344.609145000504
1,20260325_120141,D,J,FALSE,MANUAL,2,76,376,fixed_delta,0.04926863410845236,0.01178079441382163,NA,NA,NA,NA,0.5782419348758389,2082,1518,0,NA,BLACK,NA,NA,0,NA,BLACK,TRUE,CORRECT,1.167098490999706,1167.098490999706
1,20260325_120141,D,J,FALSE,MANUAL,2,77,377,fixed_delta,0.04926863410845236,0.01178079441382163,NA,NA,NA,NA,0.4387594123993152,1580,2020,0,NA,WHITE,NA,NA,0,NA,WHITE,TRUE,CORRECT,5.042624876001355,5042.624876001355
1,20260325_120141,D,J,FALSE,MANUAL,2,78,378,fixed_delta,0.04926863410845236,0.01178079441382163,NA,NA,NA,NA,0.5485113477516128,1975,1625,0,NA,BLACK,NA,NA,0,NA,BLACK,TRUE,CORRECT,3.4322692610003287,3432.2692610003287
1,20260325_120141,D,J,FALSE,MANUAL,2,79,379,fixed_delta,0.04926863410845236,0.01178079441382163,NA,NA,NA,NA,0.547802334779958,1972,1628,0,NA,BLACK,NA,NA,0,NA,BLACK,TRUE,CORRECT,2.553478277999602,2553.478277999602
1,20260325_120141,D,J,FALSE,MANUAL,2,80,380,fixed_delta,0.04926863410845236,0.01178079441382163,NA,NA,NA,NA,0.4523714597475642,1629,1971,0,NA,WHITE,NA,NA,0,NA,WHITE,TRUE,CORRECT,4.394151425000018,4394.151425000018
1,20260325_120141,D,J,FALSE,MANUAL,2,81,381,fixed_delta,0.04926863410845236,0.01178079441382163,NA,NA,NA,NA,0.5405384622855273,1946,1654,0,NA,BLACK,NA,NA,0,NA,BLACK,TRUE,CORRECT,5.867469601000266,5867.469601000266
1,20260325_120141,D,J,FALSE,MANUAL,2,82,382,fixed_delta,0.04926863410845236,0.01178079441382163,NA,NA,NA,NA,0.5364871577470519,1931,1669,0,NA,BLACK,NA,NA,0,NA,BLACK,TRUE,CORRECT,4.968912545000421,4968.912545000421
1,20260325_120141,D,J,FALSE,MANUAL,2,83,383,fixed_delta,0.04926863410845236,0.01178079441382163,NA,NA,NA,NA,0.4388202746042452,1580,2020,0,NA,WHITE,NA,NA,0,NA,WHITE,TRUE,CORRECT,0.9840261499994084,984.0261499994084
1,20260325_120141,D,J,FALSE,MANUAL,2,84,384,fixed_delta,0.04926863410845236,0.01178079441382163,NA,NA,NA,NA,0.5667695156430586,2040,1560,0,NA,BLACK,NA,NA,0,NA,BLACK,TRUE,CORRECT,1.7131560779998836,1713.1560779998836
1,20260325_120141,D,J,FALSE,MANUAL,2,85,385,fixed_delta,0.04926863410845236,0.01178079441382163,NA,NA,NA,NA,0.5348396793041224,1925,1675,0,NA,BLACK,NA,NA,0,NA,BLACK,TRUE,CORRECT,8.395798898000066,8395.798898000066
1,20260325_120141,D,J,FALSE,MANUAL,2,86,386,fixed_delta,0.04926863410845236,0.01178079441382163,NA,NA,NA,NA,0.5474987021194746,1971,1629,0,NA,BLACK,NA,NA,0,NA,BLACK,TRUE,CORRECT,2.1690422269984992,2169.0422269984992
1,20260325_120141,D,J,FALSE,MANUAL,2,87,387,fixed_delta,0.04926863410845236,0.01178079441382163,NA,NA,NA,NA,0.5558834890919747,2001,1599,0,NA,BLACK,NA,NA,0,NA,BLACK,TRUE,CORRECT,1.3075982379996276,1307.5982379996276
1,20260325_120141,D,J,FALSE,MANUAL,2,88,388,fixed_delta,0.04926863410845236,0.01178079441382163,NA,NA,NA,NA,0.4411897666175491,1588,2012,0,NA,WHITE,NA,NA,0,NA,WHITE,TRUE,CORRECT,5.664917234000313,5664.917234000313
1,20260325_120141,D,J,FALSE,MANUAL,2,89,389,fixed_delta,0.04926863410845236,0.01178079441382163,NA,NA,NA,NA,0.44172581100906777,1590,2010,0,NA,WHITE,NA,NA,0,NA,WHITE,TRUE,CORRECT,3.836711459998696,3836.7114599986958
1,20260325_120141,D,J,FALSE,MANUAL,2,90,390,fixed_delta,0.04926863410845236,0.01178079441382163,NA,NA,NA,NA,0.4542948617955075,1635,1965,0,NA,WHITE,NA,NA,0,NA,WHITE,TRUE,CORRECT,5.023677582001255,5023.677582001255
1,20260325_120141,D,J,FALSE,MANUAL,2,91,391,fixed_delta,0.04926863410845236,0.01178079441382163,NA,NA,NA,NA,0.5500664920167159,1980,1620,0,NA,BLACK,NA,NA,0,NA,BLACK,TRUE,CORRECT,1.676570334999269,1676.570334999269
1,20260325_120141,D,J,FALSE,MANUAL,2,92,392,fixed_delta,0.04926863410845236,0.01178079441382163,NA,NA,NA,NA,0.448098555382609,1613,1987,0,NA,WHITE,NA,NA,0,NA,WHITE,TRUE,CORRECT,6.0281491660007305,6028.1491660007305
1,20260325_120141,D,J,FALSE,MANUAL,2,93,393,fixed_delta,0.04926863410845236,0.01178079441382163,NA,NA,NA,NA,0.5381058553662128,1937,1663,0,NA,BLACK,NA,NA,0,NA,BLACK,TRUE,CORRECT,2.595351980000487,2595.351980000487
1,20260325_120141,D,J,FALSE,MANUAL,2,94,394,fixed_delta,0.04926863410845236,0.01178079441382163,NA,NA,NA,NA,0.42789167294067776,1540,2060,0,NA,WHITE,NA,NA,0,NA,WHITE,TRUE,CORRECT,3.937417352000921,3937.417352000921
1,20260325_120141,D,J,FALSE,MANUAL,2,95,395,fixed_delta,0.04926863410845236,0.01178079441382163,NA,NA,NA,NA,0.5500711052515505,1980,1620,0,NA,BLACK,NA,NA,0,NA,BLACK,TRUE,CORRECT,1.1283319419999316,1128.3319419999316
1,20260325_120141,D,J,FALSE,MANUAL,2,96,396,fixed_delta,0.04926863410845236,0.01178079441382163,NA,NA,NA,NA,0.5693117786861162,2050,1550,0,NA,BLACK,NA,NA,0,NA,BLACK,TRUE,CORRECT,2.104713250999339,2104.713250999339
1,20260325_120141,D,J,FALSE,MANUAL,2,97,397,fixed_delta,0.04926863410845236,0.01178079441382163,NA,NA,NA,NA,0.43551865771632225,1568,2032,0,NA,WHITE,NA,NA,0,NA,WHITE,TRUE,CORRECT,2.9225146759999916,2922.5146759999916
1,20260325_120141,D,J,FALSE,MANUAL,2,98,398,fixed_delta,0.04926863410845236,0.01178079441382163,NA,NA,NA,NA,0.5534018430610687,1992,1608,0,NA,BLACK,NA,NA,0,NA,BLACK,TRUE,CORRECT,5.3655858090005495,5365.5858090005495
1,20260325_120141,D,J,FALSE,MANUAL,2,99,399,fixed_delta,0.04926863410845236,0.01178079441382163,NA,NA,NA,NA,0.4675477711780278,1683,1917,0,NA,WHITE,NA,NA,0,NA,WHITE,TRUE,CORRECT,3.281951079999999,3281.951079999999
1,20260325_120141,D,J,FALSE,MANUAL,2,100,400,fixed_delta,0.04926863410845236,0.01178079441382163,NA,NA,NA,NA,0.5514181574587671,1985,1615,0,NA,BLACK,NA,NA,0,NA,BLACK,TRUE,CORRECT,5.127398684000582,5127.398684000582
1,20260325_120141,D,J,FALSE,MANUAL,2,101,401,fixed_delta,0.04926863410845236,0.01178079441382163,NA,NA,NA,NA,0.4595028070035657,1654,1946,0,NA,WHITE,NA,NA,0,NA,WHITE,TRUE,CORRECT,4.347246363999147,4347.246363999147
1,20260325_120141,D,J,FALSE,MANUAL,2,102,402,fixed_delta,0.04926863410845236,0.01178079441382163,NA,NA,NA,NA,0.534338618734498,1924,1676,0,NA,BLACK,NA,NA,0,NA,BLACK,TRUE,CORRECT,4.066033838000294,4066.033838000294
1,20260325_120141,D,J,FALSE,MANUAL,2,103,403,fixed_delta,0.04926863410845236,0.01178079441382163,NA,NA,NA,NA,0.5611332424204956,2020,1580,0,NA,BLACK,NA,NA,0,NA,BLACK,TRUE,CORRECT,8.256063544999051,8256.063544999051
1,20260325_120141,D,J,FALSE,MANUAL,2,104,404,fixed_delta,0.04926863410845236,0.01178079441382163,NA,NA,NA,NA,0.5410643487305342,1948,1652,0,NA,BLACK,NA,NA,0,NA,BLACK,TRUE,CORRECT,2.0400672819996544,2040.0672819996544
1,20260325_120141,D,J,FALSE,MANUAL,2,105,405,fixed_delta,0.04926863410845236,0.01178079441382163,NA,NA,NA,NA,0.45030856292953025,1621,1979,0,NA,WHITE,NA,NA,0,NA,WHITE,TRUE,CORRECT,3.954030599999896,3954.030599999896
1,20260325_120141,D,J,FALSE,MANUAL,2,106,406,fixed_delta,0.04926863410845236,0.01178079441382163,NA,NA,NA,NA,0.556764046978695,2004,1596,0,NA,BLACK,NA,NA,0,NA,BLACK,TRUE,CORRECT,2.1668127450011525,2166.8127450011525
1,20260325_120141,D,J,FALSE,MANUAL,2,107,407,fixed_delta,0.04926863410845236,0.01178079441382163,NA,NA,NA,NA,0.542315053728031,1952,1648,0,NA,BLACK,NA,NA,0,NA,BLACK,TRUE,CORRECT,7.21756591600024,7217.56591600024
1,20260325_120141,D,J,FALSE,MANUAL,2,108,408,fixed_delta,0.04926863410845236,0.01178079441382163,NA,NA,NA,NA,0.5437441853620713,1957,1643,0,NA,BLACK,NA,NA,0,NA,BLACK,TRUE,CORRECT,5.067041612999674,5067.041612999674
1,20260325_120141,D,J,FALSE,MANUAL,2,109,409,fixed_delta,0.04926863410845236,0.01178079441382163,NA,NA,NA,NA,0.5492297779602515,1977,1623,0,NA,BLACK,NA,NA,0,NA,BLACK,TRUE,CORRECT,2.533040055001038,2533.040055001038
1,20260325_120141,D,J,FALSE,MANUAL,2,110,410,fixed_delta,0.04926863410845236,0.01178079441382163,NA,NA,NA,NA,0.4206813155100619,1514,2086,0,NA,WHITE,NA,NA,0,NA,WHITE,TRUE,CORRECT,1.9953105749991664,1995.3105749991664
1,20260325_120141,D,J,FALSE,MANUAL,2,111,411,fixed_delta,0.04926863410845236,0.01178079441382163,NA,NA,NA,NA,0.5519712012980815,1987,1613,0,NA,BLACK,NA,NA,0,NA,BLACK,TRUE,CORRECT,2.424832946000606,2424.832946000606
1,20260325_120141,D,J,FALSE,MANUAL,2,112,412,fixed_delta,0.04926863410845236,0.01178079441382163,NA,NA,NA,NA,0.46273645042844946,1666,1934,0,NA,WHITE,NA,NA,0,NA,BLACK,FALSE,INCORRECT,2.26277272399966,2262.77272399966
1,20260325_120141,D,J,FALSE,MANUAL,2,113,413,fixed_delta,0.04926863410845236,0.01178079441382163,NA,NA,NA,NA,0.5417101574544189,1950,1650,0,NA,BLACK,NA,NA,0,NA,BLACK,TRUE,CORRECT,6.513556122999944,6513.556122999944
1,20260325_120141,D,J,FALSE,MANUAL,2,114,414,fixed_delta,0.04926863410845236,0.01178079441382163,NA,NA,NA,NA,0.4388443633590797,1580,2020,0,NA,WHITE,NA,NA,0,NA,WHITE,TRUE,CORRECT,3.2592292899989843,3259.2292899989843
1,20260325_120141,D,J,FALSE,MANUAL,2,115,415,fixed_delta,0.04926863410845236,0.01178079441382163,NA,NA,NA,NA,0.449826691371376,1619,1981,0,NA,WHITE,NA,NA,0,NA,WHITE,TRUE,CORRECT,3.334520288000931,3334.520288000931
1,20260325_120141,D,J,FALSE,MANUAL,2,116,416,fixed_delta,0.04926863410845236,0.01178079441382163,NA,NA,NA,NA,0.5370035522961595,1933,1667,0,NA,BLACK,NA,NA,0,NA,BLACK,TRUE,CORRECT,4.350013986000704,4350.013986000704
1,20260325_120141,D,J,FALSE,MANUAL,2,117,417,fixed_delta,0.04926863410845236,0.01178079441382163,NA,NA,NA,NA,0.45259424372315304,1629,1971,0,NA,WHITE,NA,NA,0,NA,WHITE,TRUE,CORRECT,3.6132987119999598,3613.29871199996
1,20260325_120141,D,J,FALSE,MANUAL,2,118,418,fixed_delta,0.04926863410845236,0.01178079441382163,NA,NA,NA,NA,0.5510434417687256,1984,1616,0,NA,BLACK,NA,NA,0,NA,BLACK,TRUE,CORRECT,1.7285295900001074,1728.5295900001074
1,20260325_120141,D,J,FALSE,MANUAL,2,119,419,fixed_delta,0.04926863410845236,0.01178079441382163,NA,NA,NA,NA,0.5496027524170347,1979,1621,0,NA,BLACK,NA,NA,0,NA,BLACK,TRUE,CORRECT,1.2099454140006856,1209.9454140006856
1,20260325_120141,D,J,FALSE,MANUAL,2,120,420,fixed_delta,0.04926863410845236,0.01178079441382163,NA,NA,NA,NA,0.43786278525539746,1576,2024,0,NA,WHITE,NA,NA,0,NA,WHITE,TRUE,CORRECT,4.108547239999098,4108.547239999098
1,20260325_120141,D,J,FALSE,MANUAL,2,121,421,fixed_delta,0.04926863410845236,0.01178079441382163,NA,NA,NA,NA,0.5384685719417649,1938,1662,0,NA,BLACK,NA,NA,0,NA,BLACK,TRUE,CORRECT,1.6710191649999615,1671.0191649999615
1,20260325_120141,D,J,FALSE,MANUAL,2,122,422,fixed_delta,0.04926863410845236,0.01178079441382163,NA,NA,NA,NA,0.5374988546467273,1935,1665,0,NA,BLACK,NA,NA,0,NA,TIMEOUT,NA,TOO SLOW,NA,NA
1,20260325_120141,D,J,FALSE,MANUAL,2,123,423,fixed_delta,0.04926863410845236,0.01178079441382163,NA,NA,NA,NA,0.433423956078302,1560,2040,0,NA,WHITE,NA,NA,0,NA,WHITE,TRUE,CORRECT,3.2847132940005395,3284.7132940005395
1,20260325_120141,D,J,FALSE,MANUAL,2,124,424,fixed_delta,0.04926863410845236,0.01178079441382163,NA,NA,NA,NA,0.5688958332271888,2048,1552,0,NA,BLACK,NA,NA,0,NA,BLACK,TRUE,CORRECT,1.1295305139992706,1129.5305139992706
1,20260325_120141,D,J,FALSE,MANUAL,2,125,425,fixed_delta,0.04926863410845236,0.01178079441382163,NA,NA,NA,NA,0.5502034017275466,1981,1619,0,NA,BLACK,NA,NA,0,NA,BLACK,TRUE,CORRECT,2.2573516579996067,2257.3516579996067
1,20260325_120141,D,J,FALSE,MANUAL,2,126,426,fixed_delta,0.04926863410845236,0.01178079441382163,NA,NA,NA,NA,0.5475666938408201,1971,1629,0,NA,BLACK,NA,NA,0,NA,BLACK,TRUE,CORRECT,3.942262419999679,3942.262419999679
1,20260325_120141,D,J,FALSE,MANUAL,2,127,427,fixed_delta,0.04926863410845236,0.01178079441382163,NA,NA,NA,NA,0.4365411400682202,1572,2028,0,NA,WHITE,NA,NA,0,NA,WHITE,TRUE,CORRECT,3.091166592999798,3091.166592999798
1,20260325_120141,D,J,FALSE,MANUAL,2,128,428,fixed_delta,0.04926863410845236,0.01178079441382163,NA,NA,NA,NA,0.4516103122555312,1626,1974,0,NA,WHITE,NA,NA,0,NA,WHITE,TRUE,CORRECT,3.904440845999488,3904.440845999488
1,20260325_120141,D,J,FALSE,MANUAL,2,129,429,fixed_delta,0.04926863410845236,0.01178079441382163,NA,NA,NA,NA,0.5443779340818724,1960,1640,0,NA,BLACK,NA,NA,0,NA,WHITE,FALSE,INCORRECT,3.047366280999995,3047.366280999995
1,20260325_120141,D,J,FALSE,MANUAL,2,130,430,fixed_delta,0.04926863410845236,0.01178079441382163,NA,NA,NA,NA,0.5408614860570632,1947,1653,0,NA,BLACK,NA,NA,0,NA,BLACK,TRUE,CORRECT,1.596526815001198,1596.526815001198
1,20260325_120141,D,J,FALSE,MANUAL,2,131,431,fixed_delta,0.04926863410845236,0.01178079441382163,NA,NA,NA,NA,0.5670470811488586,2041,1559,0,NA,BLACK,NA,NA,0,NA,BLACK,TRUE,CORRECT,0.7570423240013042,757.0423240013042
1,20260325_120141,D,J,FALSE,MANUAL,2,132,432,fixed_delta,0.04926863410845236,0.01178079441382163,NA,NA,NA,NA,0.5566658866455503,2004,1596,0,NA,BLACK,NA,NA,0,NA,BLACK,TRUE,CORRECT,0.915251731999888,915.251731999888
1,20260325_120141,D,J,FALSE,MANUAL,2,133,433,fixed_delta,0.04926863410845236,0.01178079441382163,NA,NA,NA,NA,0.4508633572124481,1623,1977,0,NA,WHITE,NA,NA,0,NA,WHITE,TRUE,CORRECT,3.232363428000099,3232.363428000099
1,20260325_120141,D,J,FALSE,MANUAL,2,134,434,fixed_delta,0.04926863410845236,0.01178079441382163,NA,NA,NA,NA,0.4530688500418339,1631,1969,0,NA,WHITE,NA,NA,0,NA,WHITE,TRUE,CORRECT,1.619595345999187,1619.595345999187
1,20260325_120141,D,J,FALSE,MANUAL,2,135,435,fixed_delta,0.04926863410845236,0.01178079441382163,NA,NA,NA,NA,0.4481837523750311,1613,1987,0,NA,WHITE,NA,NA,0,NA,WHITE,TRUE,CORRECT,2.2001693450001767,2200.1693450001767
1,20260325_120141,D,J,FALSE,MANUAL,2,136,436,fixed_delta,0.04926863410845236,0.01178079441382163,NA,NA,NA,NA,0.5455399994219466,1964,1636,0,NA,BLACK,NA,NA,0,NA,BLACK,TRUE,CORRECT,1.721385332000864,1721.385332000864
1,20260325_120141,D,J,FALSE,MANUAL,2,137,437,fixed_delta,0.04926863410845236,0.01178079441382163,NA,NA,NA,NA,0.46793410712479866,1685,1915,0,NA,WHITE,NA,NA,0,NA,WHITE,TRUE,CORRECT,5.106049138001254,5106.049138001254
1,20260325_120141,D,J,FALSE,MANUAL,2,138,438,fixed_delta,0.04926863410845236,0.01178079441382163,NA,NA,NA,NA,0.43638736894869,1571,2029,0,NA,WHITE,NA,NA,0,NA,WHITE,TRUE,CORRECT,5.989927367998462,5989.927367998462
1,20260325_120141,D,J,FALSE,MANUAL,2,139,439,fixed_delta,0.04926863410845236,0.01178079441382163,NA,NA,NA,NA,0.5599744356891534,2016,1584,0,NA,BLACK,NA,NA,0,NA,BLACK,TRUE,CORRECT,1.162888615999691,1162.888615999691
1,20260325_120141,D,J,FALSE,MANUAL,2,140,440,fixed_delta,0.04926863410845236,0.01178079441382163,NA,NA,NA,NA,0.55515271743849,1999,1601,0,NA,BLACK,NA,NA,0,NA,BLACK,TRUE,CORRECT,3.600803094999719,3600.803094999719
1,20260325_120141,D,J,FALSE,MANUAL,2,141,441,fixed_delta,0.04926863410845236,0.01178079441382163,NA,NA,NA,NA,0.4534936191362864,1633,1967,0,NA,WHITE,NA,NA,0,NA,WHITE,TRUE,CORRECT,2.260761684001409,2260.761684001409
1,20260325_120141,D,J,FALSE,MANUAL,2,142,442,fixed_delta,0.04926863410845236,0.01178079441382163,NA,NA,NA,NA,0.5528224830822492,1990,1610,0,NA,BLACK,NA,NA,0,NA,BLACK,TRUE,CORRECT,3.5526751229990623,3552.6751229990623
1,20260325_120141,D,J,FALSE,MANUAL,2,143,443,fixed_delta,0.04926863410845236,0.01178079441382163,NA,NA,NA,NA,0.5393965314509167,1942,1658,0,NA,BLACK,NA,NA,0,NA,BLACK,TRUE,CORRECT,5.307534238001608,5307.534238001608
1,20260325_120141,D,J,FALSE,MANUAL,2,144,444,fixed_delta,0.04926863410845236,0.01178079441382163,NA,NA,NA,NA,0.5444042270965102,1960,1640,0,NA,BLACK,NA,NA,0,NA,BLACK,TRUE,CORRECT,0.9123380810015078,912.3380810015078
1,20260325_120141,D,J,FALSE,MANUAL,2,145,445,fixed_delta,0.04926863410845236,0.01178079441382163,NA,NA,NA,NA,0.542212910095109,1952,1648,0,NA,BLACK,NA,NA,0,NA,BLACK,TRUE,CORRECT,1.43262321399925,1432.62321399925
