participant_id,block,block_idx,trial,vblack_prop,stimulus,auto_on,aid_accuracy_setting,aid_label,aid_correct,response,rt_s,correct,feedback
1,CALIBRATION,1,1,0.29219771254578053,WHITE,0,NA,NA,NA,WHITE,4.826626206999208,TRUE,CORRECT
1,CALIBRATION,1,2,0.3064613593414903,WHITE,0,NA,NA,NA,WHITE,2.813486084000033,TRUE,CORRECT
1,CALIBRATION,1,3,0.6922425224902788,BLACK,0,NA,NA,NA,BLACK,2.661717837001561,TRUE,CORRECT
1,CALIBRATION,1,4,0.3102214034112538,WHITE,0,NA,NA,NA,WHITE,2.4591753860004246,TRUE,CORRECT
1,CALIBRATION,1,5,0.6659566444447544,BLACK,0,NA,NA,NA,BLACK,1.678057658000398,TRUE,CORRECT
1,CALIBRATION,1,6,0.3544703162497315,WHITE,0,NA,NA,NA,WHITE,2.548675576001187,TRUE,CORRECT
1,CALIBRATION,1,7,0.3551477663252748,WHITE,0,NA,NA,NA,WHITE,2.5402525200006494,TRUE,CORRECT
1,CALIBRATION,1,8,0.369050156295927,WHITE,0,NA,NA,NA,WHITE,2.4574404769991816,TRUE,CORRECT
1,CALIBRATION,1,9,0.6173040373260786,BLACK,0,NA,NA,NA,BLACK,1.7249921650000033,TRUE,CORRECT
1,CALIBRATION,1,10,0.6232267353210514,BLACK,0,NA,NA,NA,BLACK,1.665950247001092,TRUE,CORRECT
1,CALIBRATION,1,11,0.6099668150607681,BLACK,0,NA,NA,NA,BLACK,2.4202796350000426,TRUE,CORRECT
1,CALIBRATION,1,12,0.40124836912193246,WHITE,0,NA,NA,NA,WHITE,2.6641946060008195,TRUE,CORRECT
1,CALIBRATION,1,13,0.6009233836322814,BLACK,0,NA,NA,NA,BLACK,1.1272935190008866,TRUE,CORRECT
1,CALIBRATION,1,14,0.4279326432691884,WHITE,0,NA,NA,NA,WHITE,2.79779107000104,TRUE,CORRECT
1,CALIBRATION,1,15,0.5647684642152943,BLACK,0,NA,NA,NA,BLACK,1.89465245700012,TRUE,CORRECT
1,CALIBRATION,1,16,0.5724909889683315,BLACK,0,NA,NA,NA,BLACK,1.8936149370001656,TRUE,CORRECT
1,CALIBRATION,1,17,0.5588304728961061,BLACK,0,NA,NA,NA,BLACK,2.636415017001127,TRUE,CORRECT
1,CALIBRATION,1,18,0.5661726593820393,BLACK,0,NA,NA,NA,BLACK,2.1663043509997806,TRUE,CORRECT
1,CALIBRATION,1,19,0.5389470771450985,BLACK,0,NA,NA,NA,BLACK,3.3957448140008637,TRUE,CORRECT
1,CALIBRATION,1,20,0.5461863996120997,BLACK,0,NA,NA,NA,BLACK,2.055392717998984,TRUE,CORRECT
1,CALIBRATION,1,21,0.5305091902777831,BLACK,0,NA,NA,NA,WHITE,2.491131497999959,FALSE,INCORRECT
1,CALIBRATION,1,22,0.5563061253481105,BLACK,0,NA,NA,NA,BLACK,2.589695946000574,TRUE,CORRECT
1,CALIBRATION,1,23,0.4388137650963592,WHITE,0,NA,NA,NA,WHITE,1.7603574029999436,TRUE,CORRECT
1,CALIBRATION,1,24,0.5374629045323703,BLACK,0,NA,NA,NA,BLACK,2.8746496149997256,TRUE,CORRECT
1,CALIBRATION,1,25,0.4455075588767399,WHITE,0,NA,NA,NA,WHITE,2.494288529000187,TRUE,CORRECT
1,CALIBRATION,1,26,0.5207781074900565,BLACK,0,NA,NA,NA,WHITE,5.899862895999831,FALSE,INCORRECT
1,CALIBRATION,1,27,0.4241077303130145,WHITE,0,NA,NA,NA,WHITE,1.294616461998885,TRUE,CORRECT
1,CALIBRATION,1,28,0.5622846636088453,BLACK,0,NA,NA,NA,BLACK,1.5693776110001636,TRUE,CORRECT
1,CALIBRATION,1,29,0.4479850614488735,WHITE,0,NA,NA,NA,WHITE,3.380620992000331,TRUE,CORRECT
1,CALIBRATION,1,30,0.45252029634141056,WHITE,0,NA,NA,NA,WHITE,5.546466826001051,TRUE,CORRECT
1,CALIBRATION,1,31,0.4520064869927362,WHITE,0,NA,NA,NA,WHITE,2.2716041180010507,TRUE,CORRECT
1,CALIBRATION,1,32,0.5226161224759266,BLACK,0,NA,NA,NA,WHITE,3.60576804899938,FALSE,INCORRECT
1,CALIBRATION,1,33,0.4402433392839412,WHITE,0,NA,NA,NA,WHITE,2.8327912370004924,TRUE,CORRECT
1,CALIBRATION,1,34,0.5731012929561489,BLACK,0,NA,NA,NA,BLACK,1.2750123410005472,TRUE,CORRECT
1,CALIBRATION,1,35,0.5525401103492099,BLACK,0,NA,NA,NA,BLACK,4.063476543999059,TRUE,CORRECT
1,CALIBRATION,1,36,0.5434802652895852,BLACK,0,NA,NA,NA,BLACK,2.3301271250002173,TRUE,CORRECT
1,CALIBRATION,1,37,0.536960014511877,BLACK,0,NA,NA,NA,BLACK,1.807859796001139,TRUE,CORRECT
1,CALIBRATION,1,38,0.4899488639290488,WHITE,0,NA,NA,NA,BLACK,3.571536483001182,FALSE,INCORRECT
1,CALIBRATION,1,39,0.4494771815315959,WHITE,0,NA,NA,NA,WHITE,2.6095455489994492,TRUE,CORRECT
1,CALIBRATION,1,40,0.5472389386974161,BLACK,0,NA,NA,NA,BLACK,3.0525944469991373,TRUE,CORRECT
1,CALIBRATION,1,41,0.4704500877430263,WHITE,0,NA,NA,NA,BLACK,2.2990688160007267,FALSE,INCORRECT
1,CALIBRATION,1,42,0.5381899352177176,BLACK,0,NA,NA,NA,BLACK,2.7399290960001963,TRUE,CORRECT
1,CALIBRATION,1,43,0.5366670417713834,BLACK,0,NA,NA,NA,WHITE,2.4486787910009298,FALSE,INCORRECT
1,CALIBRATION,1,44,0.4323172908966597,WHITE,0,NA,NA,NA,WHITE,1.7904430930011586,TRUE,CORRECT
1,CALIBRATION,1,45,0.4493947920595247,WHITE,0,NA,NA,NA,BLACK,3.621602780998728,FALSE,INCORRECT
1,CALIBRATION,1,46,0.5491182935090391,BLACK,0,NA,NA,NA,BLACK,1.6176828589996148,TRUE,CORRECT
1,CALIBRATION,1,47,0.5455406202823954,BLACK,0,NA,NA,NA,WHITE,1.940120974999445,FALSE,INCORRECT
1,CALIBRATION,1,48,0.5621557256139377,BLACK,0,NA,NA,NA,BLACK,4.545971653000379,TRUE,CORRECT
1,CALIBRATION,1,49,0.5747781078526943,BLACK,0,NA,NA,NA,BLACK,2.4565177349995793,TRUE,CORRECT
1,CALIBRATION,1,50,0.4336415739395437,WHITE,0,NA,NA,NA,WHITE,1.8398095989996364,TRUE,CORRECT
1,CALIBRATION,1,51,0.5729614924616478,BLACK,0,NA,NA,NA,BLACK,2.2344360659990343,TRUE,CORRECT
1,CALIBRATION,1,52,0.5389557471634301,BLACK,0,NA,NA,NA,BLACK,2.345145783001499,TRUE,CORRECT
1,CALIBRATION,1,53,0.4287166899851456,WHITE,0,NA,NA,NA,WHITE,2.9952916459988046,TRUE,CORRECT
1,CALIBRATION,1,54,0.42823254655283594,WHITE,0,NA,NA,NA,WHITE,4.245368641999448,TRUE,CORRECT
1,CALIBRATION,1,55,0.5625947552555106,BLACK,0,NA,NA,NA,BLACK,4.663295601001664,TRUE,CORRECT
1,CALIBRATION,1,56,0.4378014533946377,WHITE,0,NA,NA,NA,WHITE,1.5910576730002504,TRUE,CORRECT
1,CALIBRATION,1,57,0.4457163471835821,WHITE,0,NA,NA,NA,WHITE,2.8330712740007584,TRUE,CORRECT
1,CALIBRATION,1,58,0.5534905159800136,BLACK,0,NA,NA,NA,BLACK,1.9231303370015669,TRUE,CORRECT
1,CALIBRATION,1,59,0.4602656337086724,WHITE,0,NA,NA,NA,WHITE,2.870389861998774,TRUE,CORRECT
1,CALIBRATION,1,60,0.45104852827131914,WHITE,0,NA,NA,NA,WHITE,2.5392336289987725,TRUE,CORRECT
1,CALIBRATION,1,61,0.548103078833577,BLACK,0,NA,NA,NA,BLACK,4.57754136100084,TRUE,CORRECT
1,CALIBRATION,1,62,0.4539549645744827,WHITE,0,NA,NA,NA,WHITE,3.062035793000178,TRUE,CORRECT
1,CALIBRATION,1,63,0.454815580005482,WHITE,0,NA,NA,NA,WHITE,1.8719838520009944,TRUE,CORRECT
1,CALIBRATION,1,64,0.5458301774853083,BLACK,0,NA,NA,NA,BLACK,1.5693857240003126,TRUE,CORRECT
1,CALIBRATION,1,65,0.5526315823968541,BLACK,0,NA,NA,NA,BLACK,1.4001926610017108,TRUE,CORRECT
1,CALIBRATION,1,66,0.5433090334802064,BLACK,0,NA,NA,NA,BLACK,1.864146409998284,TRUE,CORRECT
1,CALIBRATION,1,67,0.5519884047297281,BLACK,0,NA,NA,NA,BLACK,1.9550879519993032,TRUE,CORRECT
1,CALIBRATION,1,68,0.5493938744076294,BLACK,0,NA,NA,NA,BLACK,1.988293716000044,TRUE,CORRECT
1,CALIBRATION,1,69,0.4587190481065137,WHITE,0,NA,NA,NA,WHITE,1.0320098969987157,TRUE,CORRECT
1,CALIBRATION,1,70,0.4533582040587298,WHITE,0,NA,NA,NA,WHITE,0.8456396050005424,TRUE,CORRECT
1,CALIBRATION,1,71,0.46539588129644927,WHITE,0,NA,NA,NA,WHITE,2.091541279000012,TRUE,CORRECT
1,CALIBRATION,1,72,0.45965158501942976,WHITE,0,NA,NA,NA,WHITE,2.7040176049995353,TRUE,CORRECT
1,CALIBRATION,1,73,0.4719571017549617,WHITE,0,NA,NA,NA,WHITE,2.3002739980001934,TRUE,CORRECT
1,CALIBRATION,1,74,0.5412819618590798,BLACK,0,NA,NA,NA,WHITE,2.0358691239998734,FALSE,INCORRECT
1,CALIBRATION,1,75,0.5493615217634975,BLACK,0,NA,NA,NA,WHITE,2.955811181998797,FALSE,INCORRECT
1,CALIBRATION,1,76,0.4579313593303482,WHITE,0,NA,NA,NA,WHITE,4.111277304000396,TRUE,CORRECT
1,CALIBRATION,1,77,0.4644211161347569,WHITE,0,NA,NA,NA,WHITE,2.848701687000357,TRUE,CORRECT
1,CALIBRATION,1,78,0.4677502246077679,WHITE,0,NA,NA,NA,BLACK,4.314282777999324,FALSE,INCORRECT
1,CALIBRATION,1,79,0.5579053176074307,BLACK,0,NA,NA,NA,BLACK,4.275425486999666,TRUE,CORRECT
1,CALIBRATION,1,80,0.536183490051875,BLACK,0,NA,NA,NA,BLACK,3.0406456839991733,TRUE,CORRECT
1,CALIBRATION,1,81,0.5427049216383883,BLACK,0,NA,NA,NA,WHITE,5.170452029000444,FALSE,INCORRECT
1,CALIBRATION,1,82,0.5561738513446981,BLACK,0,NA,NA,NA,BLACK,6.352387094000733,TRUE,CORRECT
1,CALIBRATION,1,83,0.5519552195452753,BLACK,0,NA,NA,NA,BLACK,3.0370187199987413,TRUE,CORRECT
1,CALIBRATION,1,84,0.5654786946921003,BLACK,0,NA,NA,NA,BLACK,1.5742049510008655,TRUE,CORRECT
1,CALIBRATION,1,85,0.558118205287801,BLACK,0,NA,NA,NA,BLACK,4.521206671999607,TRUE,CORRECT
1,CALIBRATION,1,86,0.5323894882856874,BLACK,0,NA,NA,NA,WHITE,3.2346809480004595,FALSE,INCORRECT
1,CALIBRATION,1,87,0.440842251016252,WHITE,0,NA,NA,NA,WHITE,1.1649925019992224,TRUE,CORRECT
1,CALIBRATION,1,88,0.45439822362100873,WHITE,0,NA,NA,NA,WHITE,1.3609180170005857,TRUE,CORRECT
1,CALIBRATION,1,89,0.5511035468458532,BLACK,0,NA,NA,NA,WHITE,1.7214583450004284,FALSE,INCORRECT
1,CALIBRATION,1,90,0.5258365073046624,BLACK,0,NA,NA,NA,WHITE,4.0557454690006125,FALSE,INCORRECT
1,CALIBRATION,1,91,0.4447087409508886,WHITE,0,NA,NA,NA,WHITE,3.150499364999632,TRUE,CORRECT
1,CALIBRATION,1,92,0.44416608836324767,WHITE,0,NA,NA,NA,WHITE,2.0642992289995163,TRUE,CORRECT
1,CALIBRATION,1,93,0.5537050940720211,BLACK,0,NA,NA,NA,BLACK,4.043494133000422,TRUE,CORRECT
1,CALIBRATION,1,94,0.4609946724113156,WHITE,0,NA,NA,NA,WHITE,3.0872412620010437,TRUE,CORRECT
1,CALIBRATION,1,95,0.4469952490830907,WHITE,0,NA,NA,NA,WHITE,2.8095304050002596,TRUE,CORRECT
1,CALIBRATION,1,96,0.5362741465764913,BLACK,0,NA,NA,NA,BLACK,3.711297976000424,TRUE,CORRECT
1,CALIBRATION,1,97,0.43932331503174094,WHITE,0,NA,NA,NA,WHITE,2.6309134240000276,TRUE,CORRECT
1,CALIBRATION,1,98,0.5433565325358436,BLACK,0,NA,NA,NA,BLACK,2.9901701460003096,TRUE,CORRECT
1,CALIBRATION,1,99,0.4461540728497541,WHITE,0,NA,NA,NA,WHITE,2.154204752001533,TRUE,CORRECT
1,CALIBRATION,1,100,0.5530810665647176,BLACK,0,NA,NA,NA,BLACK,2.637771634999808,TRUE,CORRECT
1,CALIBRATION,1,101,0.5412555959599513,BLACK,0,NA,NA,NA,BLACK,1.9819294760000048,TRUE,CORRECT
1,CALIBRATION,1,102,0.4603868389301648,WHITE,0,NA,NA,NA,WHITE,3.053322183999626,TRUE,CORRECT
1,CALIBRATION,1,103,0.5502813711617824,BLACK,0,NA,NA,NA,BLACK,1.39589354599957,TRUE,CORRECT
1,CALIBRATION,1,104,0.4308062612841233,WHITE,0,NA,NA,NA,WHITE,2.5606015029989067,TRUE,CORRECT
1,CALIBRATION,1,105,0.4504122238150338,WHITE,0,NA,NA,NA,WHITE,2.118073618999915,TRUE,CORRECT
1,CALIBRATION,1,106,0.5504563857185887,BLACK,0,NA,NA,NA,BLACK,2.1048893259994657,TRUE,CORRECT
1,CALIBRATION,1,107,0.46301585853587734,WHITE,0,NA,NA,NA,WHITE,3.120524848000059,TRUE,CORRECT
1,CALIBRATION,1,108,0.45585773498291365,WHITE,0,NA,NA,NA,WHITE,4.182216003000576,TRUE,CORRECT
1,CALIBRATION,1,109,0.5278472550468295,BLACK,0,NA,NA,NA,BLACK,2.889922469999874,TRUE,CORRECT
1,CALIBRATION,1,110,0.454390709693876,WHITE,0,NA,NA,NA,WHITE,5.895475744000578,TRUE,CORRECT
1,CALIBRATION,1,111,0.45864597320199085,WHITE,0,NA,NA,NA,BLACK,3.759388087999469,FALSE,INCORRECT
1,CALIBRATION,1,112,0.5175469154914483,BLACK,0,NA,NA,NA,BLACK,2.9995928640000784,TRUE,CORRECT
1,CALIBRATION,1,113,0.5363559712386944,BLACK,0,NA,NA,NA,WHITE,3.997822499000904,FALSE,INCORRECT
1,CALIBRATION,1,114,0.4629869423946677,WHITE,0,NA,NA,NA,WHITE,4.303932211001666,TRUE,CORRECT
1,CALIBRATION,1,115,0.5427460226443912,BLACK,0,NA,NA,NA,BLACK,1.682890406000297,TRUE,CORRECT
1,CALIBRATION,1,116,0.45844081165946593,WHITE,0,NA,NA,NA,WHITE,6.78520350999861,TRUE,CORRECT
1,CALIBRATION,1,117,0.5370376645956246,BLACK,0,NA,NA,NA,WHITE,3.612594411000828,FALSE,INCORRECT
1,CALIBRATION,1,118,0.5466477777158332,BLACK,0,NA,NA,NA,WHITE,5.027114651000375,FALSE,INCORRECT
1,CALIBRATION,1,119,0.4621990107317058,WHITE,0,NA,NA,NA,BLACK,0.9938211489989044,FALSE,INCORRECT
1,CALIBRATION,1,120,0.4265342845596289,WHITE,0,NA,NA,NA,BLACK,3.7349554270003864,FALSE,INCORRECT
1,CALIBRATION,1,121,0.5615681209464752,BLACK,0,NA,NA,NA,BLACK,3.150896585000737,TRUE,CORRECT
1,CALIBRATION,1,122,0.4412757560721144,WHITE,0,NA,NA,NA,BLACK,4.081639612000799,FALSE,INCORRECT
1,CALIBRATION,1,123,0.5610165871216299,BLACK,0,NA,NA,NA,BLACK,1.942572203000964,TRUE,CORRECT
1,CALIBRATION,1,124,0.5612776278399292,BLACK,0,NA,NA,NA,BLACK,4.387342489999355,TRUE,CORRECT
1,CALIBRATION,1,125,0.4368630185528361,WHITE,0,NA,NA,NA,WHITE,5.144229171999541,TRUE,CORRECT
1,CALIBRATION,1,126,0.43142671851673464,WHITE,0,NA,NA,NA,WHITE,7.204731068999536,TRUE,CORRECT
1,CALIBRATION,1,127,0.4570034061163163,WHITE,0,NA,NA,NA,BLACK,5.701854525999806,FALSE,INCORRECT
1,CALIBRATION,1,128,0.4379271804164614,WHITE,0,NA,NA,NA,WHITE,4.2571251040008065,TRUE,CORRECT
1,CALIBRATION,1,129,0.4434600853093454,WHITE,0,NA,NA,NA,WHITE,3.6028099289997044,TRUE,CORRECT
1,CALIBRATION,1,130,0.4399634333140079,WHITE,0,NA,NA,NA,WHITE,5.907624618999762,TRUE,CORRECT
1,CALIBRATION,1,131,0.5434134197751582,BLACK,0,NA,NA,NA,BLACK,2.9376111550009227,TRUE,CORRECT
1,CALIBRATION,1,132,0.4498723876204276,WHITE,0,NA,NA,NA,WHITE,5.122022386998651,TRUE,CORRECT
1,CALIBRATION,1,133,0.4535709629062784,WHITE,0,NA,NA,NA,BLACK,2.771747291999418,FALSE,INCORRECT
1,CALIBRATION,1,134,0.440108485015858,WHITE,0,NA,NA,NA,WHITE,2.7224069269996107,TRUE,CORRECT
1,CALIBRATION,1,135,0.5672307757146011,BLACK,0,NA,NA,NA,BLACK,1.3666104090007138,TRUE,CORRECT
1,CALIBRATION,1,136,0.4590207721004213,WHITE,0,NA,NA,NA,WHITE,3.465909803999238,TRUE,CORRECT
1,CALIBRATION,1,137,0.5658429530498649,BLACK,0,NA,NA,NA,BLACK,3.898191384998426,TRUE,CORRECT
1,CALIBRATION,1,138,0.4516345441214921,WHITE,0,NA,NA,NA,WHITE,3.6476609820001618,TRUE,CORRECT
1,CALIBRATION,1,139,0.5535224552212318,BLACK,0,NA,NA,NA,BLACK,2.332087687998865,TRUE,CORRECT
1,CALIBRATION,1,140,0.4458633967889718,WHITE,0,NA,NA,NA,WHITE,1.9515454190004675,TRUE,CORRECT
1,CALIBRATION,1,141,0.4344380014229858,WHITE,0,NA,NA,NA,WHITE,1.898716906000118,TRUE,CORRECT
1,CALIBRATION,1,142,0.46140418455453713,WHITE,0,NA,NA,NA,BLACK,4.015779145998749,FALSE,INCORRECT
1,CALIBRATION,1,143,0.5644145096655493,BLACK,0,NA,NA,NA,WHITE,3.5686841280003136,FALSE,INCORRECT
1,CALIBRATION,1,144,0.4541571471271279,WHITE,0,NA,NA,NA,WHITE,5.53715167700102,TRUE,CORRECT
1,CALIBRATION,1,145,0.5662713750092363,BLACK,0,NA,NA,NA,BLACK,5.130742908000684,TRUE,CORRECT
1,CALIBRATION,1,146,0.42556787275814817,WHITE,0,NA,NA,NA,WHITE,2.8950641009996616,TRUE,CORRECT
1,CALIBRATION,1,147,0.4407478136294069,WHITE,0,NA,NA,NA,WHITE,2.2237667019999208,TRUE,CORRECT
1,CALIBRATION,1,148,0.44735655404527336,WHITE,0,NA,NA,NA,WHITE,3.0386484650007333,TRUE,CORRECT
1,CALIBRATION,1,149,0.45758062388182097,WHITE,0,NA,NA,NA,WHITE,4.811484958001529,TRUE,CORRECT
1,CALIBRATION,1,150,0.5483976500869441,BLACK,0,NA,NA,NA,BLACK,2.6722195399997872,TRUE,CORRECT
1,CALIBRATION,1,151,0.45459029254592703,WHITE,0,NA,NA,NA,WHITE,7.009134568001173,TRUE,CORRECT
1,CALIBRATION,1,152,0.5495961336036504,BLACK,0,NA,NA,NA,BLACK,2.7015615689997503,TRUE,CORRECT
1,CALIBRATION,1,153,0.4429759960635368,WHITE,0,NA,NA,NA,WHITE,2.386953381999774,TRUE,CORRECT
1,CALIBRATION,1,154,0.4505992807108642,WHITE,0,NA,NA,NA,WHITE,3.637292687999434,TRUE,CORRECT
1,CALIBRATION,1,155,0.4419783301467457,WHITE,0,NA,NA,NA,WHITE,3.3246700020008575,TRUE,CORRECT
1,CALIBRATION,1,156,0.4656433777449128,WHITE,0,NA,NA,NA,WHITE,3.0924808449999546,TRUE,CORRECT
1,CALIBRATION,1,157,0.5284657456609829,BLACK,0,NA,NA,NA,BLACK,7.464323326999875,TRUE,CORRECT
1,CALIBRATION,1,158,0.46861194343495294,WHITE,0,NA,NA,NA,WHITE,4.367360981001184,TRUE,CORRECT
1,CALIBRATION,1,159,0.5526463719636909,BLACK,0,NA,NA,NA,BLACK,1.4273235370001205,TRUE,CORRECT
1,CALIBRATION,1,160,0.4449366918030475,WHITE,0,NA,NA,NA,WHITE,3.67546851500083,TRUE,CORRECT
1,CALIBRATION,1,161,0.539240396607475,BLACK,0,NA,NA,NA,BLACK,3.816521725999337,TRUE,CORRECT
1,CALIBRATION,1,162,0.5289298191737581,BLACK,0,NA,NA,NA,WHITE,4.234795726999437,FALSE,INCORRECT
1,CALIBRATION,1,163,0.4598178742003098,WHITE,0,NA,NA,NA,BLACK,5.684785466000903,FALSE,INCORRECT
1,CALIBRATION,1,164,0.542939297598147,BLACK,0,NA,NA,NA,BLACK,2.7624624899999617,TRUE,CORRECT
1,CALIBRATION,1,165,0.4525403765397338,WHITE,0,NA,NA,NA,WHITE,2.082941546999791,TRUE,CORRECT
1,CALIBRATION,1,166,0.5629409240249745,BLACK,0,NA,NA,NA,BLACK,2.4264038000001165,TRUE,CORRECT
1,CALIBRATION,1,167,0.4298689771215636,WHITE,0,NA,NA,NA,BLACK,3.947310303999984,FALSE,INCORRECT
1,CALIBRATION,1,168,0.5537872271557678,BLACK,0,NA,NA,NA,BLACK,4.00010366099923,TRUE,CORRECT
1,CALIBRATION,1,169,0.4505990228203154,WHITE,0,NA,NA,NA,BLACK,5.3200574980000965,FALSE,INCORRECT
1,CALIBRATION,1,170,0.43194755521395306,WHITE,0,NA,NA,NA,WHITE,5.0258415620010055,TRUE,CORRECT
1,CALIBRATION,1,171,0.5388844717170186,BLACK,0,NA,NA,NA,WHITE,5.225743789000262,FALSE,INCORRECT
1,CALIBRATION,1,172,0.5421159204220131,BLACK,0,NA,NA,NA,BLACK,7.285588860999269,TRUE,CORRECT
1,CALIBRATION,1,173,0.5492084158728208,BLACK,0,NA,NA,NA,BLACK,5.333781433000695,TRUE,CORRECT
1,CALIBRATION,1,174,0.5412717225984781,BLACK,0,NA,NA,NA,WHITE,3.7941866400014983,FALSE,INCORRECT
1,CALIBRATION,1,175,0.5459204398785658,BLACK,0,NA,NA,NA,WHITE,4.3745824599991465,FALSE,INCORRECT
1,CALIBRATION,1,176,0.4279243716789371,WHITE,0,NA,NA,NA,WHITE,2.274243440999271,TRUE,CORRECT
1,CALIBRATION,1,177,0.4528391712544968,WHITE,0,NA,NA,NA,WHITE,2.799783481999839,TRUE,CORRECT
1,CALIBRATION,1,178,0.42947910433894465,WHITE,0,NA,NA,NA,WHITE,3.0968340460003674,TRUE,CORRECT
1,CALIBRATION,1,179,0.43442592716929385,WHITE,0,NA,NA,NA,WHITE,3.737725753000632,TRUE,CORRECT
1,CALIBRATION,1,180,0.5649437558446938,BLACK,0,NA,NA,NA,BLACK,6.023780643001373,TRUE,CORRECT
1,CALIBRATION,1,181,0.4436586770191674,WHITE,0,NA,NA,NA,WHITE,4.004917480999211,TRUE,CORRECT
1,CALIBRATION,1,182,0.42899489592550566,WHITE,0,NA,NA,NA,WHITE,3.328819183001542,TRUE,CORRECT
1,CALIBRATION,1,183,0.5501452269743294,BLACK,0,NA,NA,NA,BLACK,5.88743248100036,TRUE,CORRECT
1,CALIBRATION,1,184,0.5526876205367622,BLACK,0,NA,NA,NA,BLACK,8.520065790000444,TRUE,CORRECT
1,CALIBRATION,1,185,0.4373368334656485,WHITE,0,NA,NA,NA,WHITE,3.684012960000473,TRUE,CORRECT
1,CALIBRATION,1,186,0.4655696045905497,WHITE,0,NA,NA,NA,WHITE,5.3807874510002875,TRUE,CORRECT
1,CALIBRATION,1,187,0.4417030069458079,WHITE,0,NA,NA,NA,WHITE,5.686590985998919,TRUE,CORRECT
1,CALIBRATION,1,188,0.5533418679666633,BLACK,0,NA,NA,NA,BLACK,5.024609037000118,TRUE,CORRECT
1,CALIBRATION,1,189,0.5593314520496756,BLACK,0,NA,NA,NA,BLACK,4.558137654999882,TRUE,CORRECT
1,CALIBRATION,1,190,0.4482739619069399,WHITE,0,NA,NA,NA,WHITE,3.087691063999955,TRUE,CORRECT
1,CALIBRATION,1,191,0.5455309512160461,BLACK,0,NA,NA,NA,BLACK,3.7799726390003343,TRUE,CORRECT
1,CALIBRATION,1,192,0.464204186977784,WHITE,0,NA,NA,NA,WHITE,4.417533345000265,TRUE,CORRECT
1,CALIBRATION,1,193,0.5275941242571613,BLACK,0,NA,NA,NA,WHITE,5.392170430999613,FALSE,INCORRECT
1,CALIBRATION,1,194,0.4421350241690537,WHITE,0,NA,NA,NA,WHITE,2.843432055999074,TRUE,CORRECT
1,CALIBRATION,1,195,0.4449645262933217,WHITE,0,NA,NA,NA,WHITE,6.950083634999828,TRUE,CORRECT
1,CALIBRATION,1,196,0.5524867627548875,BLACK,0,NA,NA,NA,BLACK,2.753934571001082,TRUE,CORRECT
1,CALIBRATION,1,197,0.4482091684421219,WHITE,0,NA,NA,NA,WHITE,4.237379162001162,TRUE,CORRECT
1,CALIBRATION,1,198,0.46756693569536945,WHITE,0,NA,NA,NA,WHITE,4.989541265000298,TRUE,CORRECT
1,CALIBRATION,1,199,0.4667224336077329,WHITE,0,NA,NA,NA,WHITE,5.9737023249999766,TRUE,CORRECT
1,CALIBRATION,1,200,0.4683527144490372,WHITE,0,NA,NA,NA,BLACK,8.02299611700073,FALSE,INCORRECT
1,CALIBRATION,1,201,0.4379634919043015,WHITE,0,NA,NA,NA,WHITE,5.410685349999767,TRUE,CORRECT
1,CALIBRATION,1,202,0.5415946208247725,BLACK,0,NA,NA,NA,BLACK,5.300091613000404,TRUE,CORRECT
1,CALIBRATION,1,203,0.4389226429912788,WHITE,0,NA,NA,NA,WHITE,2.987242373999834,TRUE,CORRECT
1,CALIBRATION,1,204,0.5367919591026422,BLACK,0,NA,NA,NA,BLACK,6.567079021000609,TRUE,CORRECT
1,CALIBRATION,1,205,0.4592441092919244,WHITE,0,NA,NA,NA,WHITE,4.0500768149995565,TRUE,CORRECT
1,CALIBRATION,1,206,0.5503281321725124,BLACK,0,NA,NA,NA,WHITE,6.894089078001343,FALSE,INCORRECT
1,CALIBRATION,1,207,0.5376943069061586,BLACK,0,NA,NA,NA,WHITE,4.461728173000665,FALSE,INCORRECT
1,CALIBRATION,1,208,0.4572587548282727,WHITE,0,NA,NA,NA,BLACK,5.1226557760001015,FALSE,INCORRECT
1,CALIBRATION,1,209,0.4470939034664372,WHITE,0,NA,NA,NA,WHITE,4.5158505069994135,TRUE,CORRECT
1,CALIBRATION,1,210,0.4429135122911281,WHITE,0,NA,NA,NA,WHITE,2.6746758770004817,TRUE,CORRECT
1,CALIBRATION,1,211,0.5425950776145219,BLACK,0,NA,NA,NA,WHITE,4.796339202999661,FALSE,INCORRECT
1,CALIBRATION,1,212,0.5622968840393278,BLACK,0,NA,NA,NA,BLACK,5.649299441000039,TRUE,CORRECT
1,CALIBRATION,1,213,0.5701835109128572,BLACK,0,NA,NA,NA,BLACK,7.25500619399827,TRUE,CORRECT
1,CALIBRATION,1,214,0.53324291816372,BLACK,0,NA,NA,NA,BLACK,3.8365687360001175,TRUE,CORRECT
1,CALIBRATION,1,215,0.4380724960703497,WHITE,0,NA,NA,NA,WHITE,2.661307697000666,TRUE,CORRECT
1,CALIBRATION,1,216,0.45214765188573625,WHITE,0,NA,NA,NA,BLACK,8.114843875000588,FALSE,INCORRECT
1,CALIBRATION,1,217,0.5442781685066858,BLACK,0,NA,NA,NA,BLACK,5.938587380000172,TRUE,CORRECT
1,CALIBRATION,1,218,0.4383246663286011,WHITE,0,NA,NA,NA,WHITE,3.7989520830014953,TRUE,CORRECT
1,CALIBRATION,1,219,0.4389801259721011,WHITE,0,NA,NA,NA,WHITE,1.320507900998564,TRUE,CORRECT
1,CALIBRATION,1,220,0.552491144843043,BLACK,0,NA,NA,NA,WHITE,3.4220578120002756,FALSE,INCORRECT
1,CALIBRATION,1,221,0.4482117749971259,WHITE,0,NA,NA,NA,WHITE,2.857881023999653,TRUE,CORRECT
1,CALIBRATION,1,222,0.44436650897856694,WHITE,0,NA,NA,NA,WHITE,3.9890031239992823,TRUE,CORRECT
1,CALIBRATION,1,223,0.4389393438373434,WHITE,0,NA,NA,NA,WHITE,3.3427925069991034,TRUE,CORRECT
1,CALIBRATION,1,224,0.44231670969550563,WHITE,0,NA,NA,NA,WHITE,3.328113380999639,TRUE,CORRECT
1,CALIBRATION,1,225,0.4361225418680156,WHITE,0,NA,NA,NA,WHITE,1.603379017999032,TRUE,CORRECT
1,CALIBRATION,1,226,0.4468125927041478,WHITE,0,NA,NA,NA,WHITE,3.053287629998522,TRUE,CORRECT
1,CALIBRATION,1,227,0.4426270847466881,WHITE,0,NA,NA,NA,WHITE,2.6205454299997655,TRUE,CORRECT
1,CALIBRATION,1,228,0.5470481715020818,BLACK,0,NA,NA,NA,BLACK,5.758721648000574,TRUE,CORRECT
1,CALIBRATION,1,229,0.5444329221356881,BLACK,0,NA,NA,NA,BLACK,8.444208109000101,TRUE,CORRECT
1,CALIBRATION,1,230,0.5574200415293149,BLACK,0,NA,NA,NA,WHITE,5.221376768000482,FALSE,INCORRECT
1,CALIBRATION,1,231,0.5492704795957224,BLACK,0,NA,NA,NA,WHITE,7.489323875000991,FALSE,INCORRECT
1,CALIBRATION,1,232,0.436961677993671,WHITE,0,NA,NA,NA,WHITE,1.019970391000243,TRUE,CORRECT
1,CALIBRATION,1,233,0.4517505852124042,WHITE,0,NA,NA,NA,WHITE,3.6337017789992383,TRUE,CORRECT
1,CALIBRATION,1,234,0.5746327948056705,BLACK,0,NA,NA,NA,BLACK,1.3752930700011348,TRUE,CORRECT
1,CALIBRATION,1,235,0.4521386552584619,WHITE,0,NA,NA,NA,WHITE,4.639381850000063,TRUE,CORRECT
1,CALIBRATION,1,236,0.4489575469360778,WHITE,0,NA,NA,NA,WHITE,2.391288553999402,TRUE,CORRECT
1,CALIBRATION,1,237,0.5556604892167933,BLACK,0,NA,NA,NA,BLACK,3.969528506999268,TRUE,CORRECT
1,CALIBRATION,1,238,0.5341142272649719,BLACK,0,NA,NA,NA,BLACK,6.747893635001674,TRUE,CORRECT
1,CALIBRATION,1,239,0.5500375982806237,BLACK,0,NA,NA,NA,BLACK,2.3383089039998595,TRUE,CORRECT
1,CALIBRATION,1,240,0.46707572842271144,WHITE,0,NA,NA,NA,WHITE,3.793906903998504,TRUE,CORRECT
1,CALIBRATION,1,241,0.43958429000967875,WHITE,0,NA,NA,NA,WHITE,3.973256429000685,TRUE,CORRECT
1,CALIBRATION,1,242,0.5491205277647487,BLACK,0,NA,NA,NA,BLACK,2.473402907999116,TRUE,CORRECT
1,CALIBRATION,1,243,0.556163952085283,BLACK,0,NA,NA,NA,WHITE,6.184780809000586,FALSE,INCORRECT
1,CALIBRATION,1,244,0.4306277377326499,WHITE,0,NA,NA,NA,WHITE,1.856327898998643,TRUE,CORRECT
1,CALIBRATION,1,245,0.5561762761308993,BLACK,0,NA,NA,NA,BLACK,2.5651623269986885,TRUE,CORRECT
1,CALIBRATION,1,246,0.5469218763225316,BLACK,0,NA,NA,NA,BLACK,5.022982296000919,TRUE,CORRECT
1,CALIBRATION,1,247,0.44538355634787313,WHITE,0,NA,NA,NA,WHITE,3.889266244999817,TRUE,CORRECT
1,CALIBRATION,1,248,0.5503922189873254,BLACK,0,NA,NA,NA,WHITE,2.815776261000792,FALSE,INCORRECT
1,CALIBRATION,1,249,0.46169965494173193,WHITE,0,NA,NA,NA,WHITE,6.78487239199967,TRUE,CORRECT
1,CALIBRATION,1,250,0.4732059516386636,WHITE,0,NA,NA,NA,WHITE,5.810655362000034,TRUE,CORRECT
1,CALIBRATION,1,251,0.5487961089670972,BLACK,0,NA,NA,NA,BLACK,2.2251143060002505,TRUE,CORRECT
1,CALIBRATION,1,252,0.5464401588209788,BLACK,0,NA,NA,NA,WHITE,6.94120837400078,FALSE,INCORRECT
1,CALIBRATION,1,253,0.4409038354459951,WHITE,0,NA,NA,NA,BLACK,4.033711753998432,FALSE,INCORRECT
1,CALIBRATION,1,254,0.5633805851096789,BLACK,0,NA,NA,NA,BLACK,4.41765112900066,TRUE,CORRECT
1,CALIBRATION,1,255,0.5525325421834417,BLACK,0,NA,NA,NA,BLACK,4.334019404999708,TRUE,CORRECT
1,CALIBRATION,1,256,0.4466374955029371,WHITE,0,NA,NA,NA,WHITE,2.3482003539993457,TRUE,CORRECT
1,CALIBRATION,1,257,0.41316682199776367,WHITE,0,NA,NA,NA,WHITE,2.7413584280002397,TRUE,CORRECT
1,CALIBRATION,1,258,0.4628702393053558,WHITE,0,NA,NA,NA,WHITE,3.2391152740001417,TRUE,CORRECT
1,CALIBRATION,1,259,0.4623853802099782,WHITE,0,NA,NA,NA,WHITE,4.18867579200014,TRUE,CORRECT
1,CALIBRATION,1,260,0.4688315646153368,WHITE,0,NA,NA,NA,WHITE,8.446592934000364,TRUE,CORRECT
1,CALIBRATION,1,261,0.5435666920488116,BLACK,0,NA,NA,NA,BLACK,1.375565594998989,TRUE,CORRECT
1,CALIBRATION,1,262,0.4453488642764304,WHITE,0,NA,NA,NA,WHITE,3.3212689899992256,TRUE,CORRECT
1,CALIBRATION,1,263,0.4556651150578538,WHITE,0,NA,NA,NA,BLACK,6.432643645999633,FALSE,INCORRECT
1,CALIBRATION,1,264,0.45518539839542527,WHITE,0,NA,NA,NA,WHITE,3.021339330000046,TRUE,CORRECT
1,CALIBRATION,1,265,0.4560540132647838,WHITE,0,NA,NA,NA,WHITE,1.894637433999378,TRUE,CORRECT
1,CALIBRATION,1,266,0.45134124132146586,WHITE,0,NA,NA,NA,WHITE,2.245691045000058,TRUE,CORRECT
1,CALIBRATION,1,267,0.4505893655136966,WHITE,0,NA,NA,NA,WHITE,9.115897319999933,TRUE,CORRECT
1,CALIBRATION,1,268,0.458814395778925,WHITE,0,NA,NA,NA,WHITE,5.392193867999595,TRUE,CORRECT
1,CALIBRATION,1,269,0.4639546818366806,WHITE,0,NA,NA,NA,WHITE,3.8714721520009334,TRUE,CORRECT
1,CALIBRATION,1,270,0.4553495267878632,WHITE,0,NA,NA,NA,WHITE,6.057781447998423,TRUE,CORRECT
1,CALIBRATION,1,271,0.44454526253948384,WHITE,0,NA,NA,NA,WHITE,6.073270040000352,TRUE,CORRECT
1,CALIBRATION,1,272,0.5308759257446874,BLACK,0,NA,NA,NA,WHITE,3.7173082640001662,FALSE,INCORRECT
1,CALIBRATION,1,273,0.47797885956438585,WHITE,0,NA,NA,NA,WHITE,6.956009190998884,TRUE,CORRECT
1,CALIBRATION,1,274,0.5472863906934112,BLACK,0,NA,NA,NA,WHITE,6.382333065999774,FALSE,INCORRECT
1,CALIBRATION,1,275,0.5560305042099439,BLACK,0,NA,NA,NA,BLACK,1.2974357650000456,TRUE,CORRECT
1,CALIBRATION,1,276,0.4463521943646024,WHITE,0,NA,NA,NA,WHITE,3.4041675690004922,TRUE,CORRECT
1,CALIBRATION,1,277,0.4471527808471399,WHITE,0,NA,NA,NA,WHITE,4.565406608000558,TRUE,CORRECT
1,CALIBRATION,1,278,0.5478790191946766,BLACK,0,NA,NA,NA,BLACK,3.86731576100101,TRUE,CORRECT
1,CALIBRATION,1,279,0.4633180497494296,WHITE,0,NA,NA,NA,WHITE,7.049556402000235,TRUE,CORRECT
1,CALIBRATION,1,280,0.5438057731493359,BLACK,0,NA,NA,NA,BLACK,2.2328105269989464,TRUE,CORRECT
1,CALIBRATION,1,281,0.5517176992719494,BLACK,0,NA,NA,NA,BLACK,3.3178027760004625,TRUE,CORRECT
1,CALIBRATION,1,282,0.4371820573694248,WHITE,0,NA,NA,NA,WHITE,9.314546589999736,TRUE,CORRECT
1,CALIBRATION,1,283,0.4743913670035886,WHITE,0,NA,NA,NA,WHITE,5.841830554998523,TRUE,CORRECT
1,CALIBRATION,1,284,0.5372223945453074,BLACK,0,NA,NA,NA,BLACK,5.847677387999283,TRUE,CORRECT
1,CALIBRATION,1,285,0.46317842463432385,WHITE,0,NA,NA,NA,WHITE,6.074849607000942,TRUE,CORRECT
1,CALIBRATION,1,286,0.458613778923074,WHITE,0,NA,NA,NA,WHITE,8.489374053000574,TRUE,CORRECT
1,CALIBRATION,1,287,0.46768653339120064,WHITE,0,NA,NA,NA,BLACK,5.06739165900035,FALSE,INCORRECT
1,CALIBRATION,1,288,0.5520272523616523,BLACK,0,NA,NA,NA,BLACK,3.646548344000621,TRUE,CORRECT
1,CALIBRATION,1,289,0.473700608245185,WHITE,0,NA,NA,NA,BLACK,6.658239604999835,FALSE,INCORRECT
1,CALIBRATION,1,290,0.45509553306121187,WHITE,0,NA,NA,NA,WHITE,5.27345741300087,TRUE,CORRECT
1,CALIBRATION,1,291,0.45537157940304906,WHITE,0,NA,NA,NA,BLACK,3.508740802999455,FALSE,INCORRECT
1,CALIBRATION,1,292,0.5584629725365142,BLACK,0,NA,NA,NA,BLACK,4.169736010999259,TRUE,CORRECT
1,CALIBRATION,1,293,0.41712269600299046,WHITE,0,NA,NA,NA,WHITE,6.643154544000936,TRUE,CORRECT
1,CALIBRATION,1,294,0.555023690624166,BLACK,0,NA,NA,NA,BLACK,8.00979439799994,TRUE,CORRECT
1,CALIBRATION,1,295,0.4611135165028384,WHITE,0,NA,NA,NA,WHITE,8.475790737000352,TRUE,CORRECT
1,CALIBRATION,1,296,0.5319944966037514,BLACK,0,NA,NA,NA,WHITE,6.1625364660012565,FALSE,INCORRECT
1,CALIBRATION,1,297,0.5442584063213414,BLACK,0,NA,NA,NA,BLACK,3.802488307001113,TRUE,CORRECT
1,CALIBRATION,1,298,0.553688456717842,BLACK,0,NA,NA,NA,BLACK,3.7602925010014583,TRUE,CORRECT
1,CALIBRATION,1,299,0.4515387788199235,WHITE,0,NA,NA,NA,WHITE,1.67178566199982,TRUE,CORRECT
1,CALIBRATION,1,300,0.4539773810628248,WHITE,0,NA,NA,NA,WHITE,4.515388385001643,TRUE,CORRECT
1,MANUAL,2,1,0.44301871200453263,WHITE,0,NA,NA,NA,WHITE,3.2445838149997144,TRUE,CORRECT
1,MANUAL,2,2,0.5406745526145269,BLACK,0,NA,NA,NA,BLACK,3.1142294149994996,TRUE,CORRECT
1,MANUAL,2,3,0.45318653177744966,WHITE,0,NA,NA,NA,WHITE,1.8612378680008987,TRUE,CORRECT
1,MANUAL,2,4,0.5694771998575086,BLACK,0,NA,NA,NA,BLACK,2.757839769999918,TRUE,CORRECT
1,MANUAL,2,5,0.5383624179418949,BLACK,0,NA,NA,NA,WHITE,8.373364658000355,FALSE,INCORRECT
1,MANUAL,2,6,0.560992591922753,BLACK,0,NA,NA,NA,BLACK,1.5018765810000332,TRUE,CORRECT
1,MANUAL,2,7,0.4462500265516552,WHITE,0,NA,NA,NA,BLACK,4.232654283001466,FALSE,INCORRECT
1,MANUAL,2,8,0.5644961109268627,BLACK,0,NA,NA,NA,BLACK,6.290679110999918,TRUE,CORRECT
1,MANUAL,2,9,0.45118718124000856,WHITE,0,NA,NA,NA,WHITE,3.189560373999484,TRUE,CORRECT
1,MANUAL,2,10,0.4332253064007313,WHITE,0,NA,NA,NA,WHITE,7.393407162000585,TRUE,CORRECT
1,MANUAL,2,11,0.5398875405812812,BLACK,0,NA,NA,NA,BLACK,2.152785636000772,TRUE,CORRECT
1,MANUAL,2,12,0.5428305011611941,BLACK,0,NA,NA,NA,BLACK,6.689486007999221,TRUE,CORRECT
1,MANUAL,2,13,0.5484049545201927,BLACK,0,NA,NA,NA,BLACK,4.624923266999758,TRUE,CORRECT
1,MANUAL,2,14,0.5455199392905705,BLACK,0,NA,NA,NA,BLACK,3.1351625099996454,TRUE,CORRECT
1,MANUAL,2,15,0.5577504336131893,BLACK,0,NA,NA,NA,BLACK,4.608944609999526,TRUE,CORRECT
1,MANUAL,2,16,0.5481473340169231,BLACK,0,NA,NA,NA,BLACK,3.572573702998852,TRUE,CORRECT
1,MANUAL,2,17,0.5468990716577338,BLACK,0,NA,NA,NA,BLACK,4.19520228699912,TRUE,CORRECT
1,MANUAL,2,18,0.5516400051462785,BLACK,0,NA,NA,NA,BLACK,6.04742697599977,TRUE,CORRECT
1,MANUAL,2,19,0.4470503313786454,WHITE,0,NA,NA,NA,WHITE,4.026225862000501,TRUE,CORRECT
1,MANUAL,2,20,0.4549554836495632,WHITE,0,NA,NA,NA,WHITE,3.7447663500006456,TRUE,CORRECT
1,MANUAL,2,21,0.5618161670461226,BLACK,0,NA,NA,NA,BLACK,4.303628437999578,TRUE,CORRECT
1,MANUAL,2,22,0.4368480846309024,WHITE,0,NA,NA,NA,WHITE,1.5853709909988538,TRUE,CORRECT
1,MANUAL,2,23,0.46616825483531743,WHITE,0,NA,NA,NA,WHITE,2.3617854730000545,TRUE,CORRECT
1,MANUAL,2,24,0.4615354603349639,WHITE,0,NA,NA,NA,WHITE,2.280255831999966,TRUE,CORRECT
1,MANUAL,2,25,0.4446692222761837,WHITE,0,NA,NA,NA,WHITE,2.1955343049994553,TRUE,CORRECT
1,MANUAL,2,26,0.5601917889468206,BLACK,0,NA,NA,NA,BLACK,1.161082795000766,TRUE,CORRECT
1,MANUAL,2,27,0.4441595697739056,WHITE,0,NA,NA,NA,WHITE,1.0333436800010531,TRUE,CORRECT
1,MANUAL,2,28,0.4431017231374912,WHITE,0,NA,NA,NA,WHITE,0.9828951840008812,TRUE,CORRECT
1,MANUAL,2,29,0.4573746098186851,WHITE,0,NA,NA,NA,WHITE,1.5333777830001054,TRUE,CORRECT
1,MANUAL,2,30,0.4371017113795195,WHITE,0,NA,NA,NA,WHITE,1.8773931999985507,TRUE,CORRECT
1,MANUAL,2,31,0.4492165601459399,WHITE,0,NA,NA,NA,WHITE,1.8494219120002529,TRUE,CORRECT
1,MANUAL,2,32,0.4328710598008564,WHITE,0,NA,NA,NA,WHITE,1.8549929129985685,TRUE,CORRECT
1,MANUAL,2,33,0.44610445868682463,WHITE,0,NA,NA,NA,WHITE,2.122050931000558,TRUE,CORRECT
1,MANUAL,2,34,0.4353927266366664,WHITE,0,NA,NA,NA,WHITE,2.3274607610001112,TRUE,CORRECT
1,MANUAL,2,35,0.44210982262179166,WHITE,0,NA,NA,NA,WHITE,2.2776168100008363,TRUE,CORRECT
1,MANUAL,2,36,0.4516635499168372,WHITE,0,NA,NA,NA,WHITE,2.652360621999833,TRUE,CORRECT
1,MANUAL,2,37,0.45383459616533034,WHITE,0,NA,NA,NA,WHITE,2.360096534999684,TRUE,CORRECT
1,MANUAL,2,38,0.5728732900936868,BLACK,0,NA,NA,NA,WHITE,2.3646856020004634,FALSE,INCORRECT
1,MANUAL,2,39,0.5373686545795024,BLACK,0,NA,NA,NA,BLACK,1.230182622999564,TRUE,CORRECT
1,MANUAL,2,40,0.438984135875259,WHITE,0,NA,NA,NA,WHITE,1.7140157210014877,TRUE,CORRECT
1,MANUAL,2,41,0.4671268440306523,WHITE,0,NA,NA,NA,WHITE,3.515278713999578,TRUE,CORRECT
1,MANUAL,2,42,0.5513595064151748,BLACK,0,NA,NA,NA,BLACK,1.024143009000909,TRUE,CORRECT
1,MANUAL,2,43,0.454064136576848,WHITE,0,NA,NA,NA,WHITE,5.060518423999383,TRUE,CORRECT
1,MANUAL,2,44,0.4433509980811033,WHITE,0,NA,NA,NA,WHITE,2.1808317409995652,TRUE,CORRECT
1,MANUAL,2,45,0.5553615396079117,BLACK,0,NA,NA,NA,BLACK,2.5131180389998917,TRUE,CORRECT
1,MANUAL,2,46,0.4631072537394492,WHITE,0,NA,NA,NA,WHITE,2.9726987579997513,TRUE,CORRECT
1,MANUAL,2,47,0.4712313774463811,WHITE,0,NA,NA,NA,WHITE,3.394265904000349,TRUE,CORRECT
1,MANUAL,2,48,0.5725939553833763,BLACK,0,NA,NA,NA,BLACK,3.2217505520002305,TRUE,CORRECT
1,MANUAL,2,49,0.461099774456373,WHITE,0,NA,NA,NA,WHITE,2.049943706999329,TRUE,CORRECT
1,MANUAL,2,50,0.4558086771927952,WHITE,0,NA,NA,NA,WHITE,3.393566110999018,TRUE,CORRECT
1,MANUAL,2,51,0.539575608174644,BLACK,0,NA,NA,NA,BLACK,6.547052141000677,TRUE,CORRECT
1,MANUAL,2,52,0.5426220613866947,BLACK,0,NA,NA,NA,WHITE,5.262807278000764,FALSE,INCORRECT
1,MANUAL,2,53,0.5506615501911136,BLACK,0,NA,NA,NA,WHITE,8.238718955000877,FALSE,INCORRECT
1,MANUAL,2,54,0.5452843315620937,BLACK,0,NA,NA,NA,WHITE,5.949010360000102,FALSE,INCORRECT
1,MANUAL,2,55,0.5516543799499459,BLACK,0,NA,NA,NA,BLACK,1.1891634539988445,TRUE,CORRECT
1,MANUAL,2,56,0.4349431612676523,WHITE,0,NA,NA,NA,WHITE,2.291090153999903,TRUE,CORRECT
1,MANUAL,2,57,0.4618506273766505,WHITE,0,NA,NA,NA,WHITE,4.9201839359993755,TRUE,CORRECT
1,MANUAL,2,58,0.5569452414165269,BLACK,0,NA,NA,NA,WHITE,6.445820126000399,FALSE,INCORRECT
1,MANUAL,2,59,0.46784868564092014,WHITE,0,NA,NA,NA,WHITE,1.3374216180000076,TRUE,CORRECT
1,MANUAL,2,60,0.46111864888510007,WHITE,0,NA,NA,NA,WHITE,5.900319309001134,TRUE,CORRECT
1,MANUAL,2,61,0.576708344400835,BLACK,0,NA,NA,NA,BLACK,0.9507386590012176,TRUE,CORRECT
1,MANUAL,2,62,0.5565878723089479,BLACK,0,NA,NA,NA,BLACK,1.1392543009988003,TRUE,CORRECT
1,MANUAL,2,63,0.4603109666227562,WHITE,0,NA,NA,NA,BLACK,6.354094960999646,FALSE,INCORRECT
1,MANUAL,2,64,0.5603034140300145,BLACK,0,NA,NA,NA,BLACK,0.793642489999911,TRUE,CORRECT
1,MANUAL,2,65,0.5409222891118732,BLACK,0,NA,NA,NA,BLACK,0.8941140160004579,TRUE,CORRECT
1,MANUAL,2,66,0.4637661903083865,WHITE,0,NA,NA,NA,BLACK,3.641916009000852,FALSE,INCORRECT
1,MANUAL,2,67,0.5700295400967345,BLACK,0,NA,NA,NA,BLACK,1.2727666339997086,TRUE,CORRECT
1,MANUAL,2,68,0.5514479925580907,BLACK,0,NA,NA,NA,BLACK,6.441939264999746,TRUE,CORRECT
1,MANUAL,2,69,0.5409902570726948,BLACK,0,NA,NA,NA,BLACK,2.0195097720006743,TRUE,CORRECT
1,MANUAL,2,70,0.44590632407011627,WHITE,0,NA,NA,NA,WHITE,1.562148619999789,TRUE,CORRECT
1,MANUAL,2,71,0.5548716515006304,BLACK,0,NA,NA,NA,BLACK,8.361466074000418,TRUE,CORRECT
1,MANUAL,2,72,0.5534232510701911,BLACK,0,NA,NA,NA,BLACK,2.521866503999263,TRUE,CORRECT
1,MANUAL,2,73,0.5517045535743654,BLACK,0,NA,NA,NA,BLACK,3.9538025439997,TRUE,CORRECT
1,MANUAL,2,74,0.4451520353257342,WHITE,0,NA,NA,NA,WHITE,2.494411421001132,TRUE,CORRECT
1,MANUAL,2,75,0.4656859497634524,WHITE,0,NA,NA,NA,WHITE,5.344609145000504,TRUE,CORRECT
1,MANUAL,2,76,0.5782419348758389,BLACK,0,NA,NA,NA,BLACK,1.167098490999706,TRUE,CORRECT
1,MANUAL,2,77,0.4387594123993152,WHITE,0,NA,NA,NA,WHITE,5.042624876001355,TRUE,CORRECT
1,MANUAL,2,78,0.5485113477516128,BLACK,0,NA,NA,NA,BLACK,3.4322692610003287,TRUE,CORRECT
1,MANUAL,2,79,0.547802334779958,BLACK,0,NA,NA,NA,BLACK,2.553478277999602,TRUE,CORRECT
1,MANUAL,2,80,0.4523714597475642,WHITE,0,NA,NA,NA,WHITE,4.394151425000018,TRUE,CORRECT
1,MANUAL,2,81,0.5405384622855273,BLACK,0,NA,NA,NA,BLACK,5.867469601000266,TRUE,CORRECT
1,MANUAL,2,82,0.5364871577470519,BLACK,0,NA,NA,NA,BLACK,4.968912545000421,TRUE,CORRECT
1,MANUAL,2,83,0.4388202746042452,WHITE,0,NA,NA,NA,WHITE,0.9840261499994084,TRUE,CORRECT
1,MANUAL,2,84,0.5667695156430586,BLACK,0,NA,NA,NA,BLACK,1.7131560779998836,TRUE,CORRECT
1,MANUAL,2,85,0.5348396793041224,BLACK,0,NA,NA,NA,BLACK,8.395798898000066,TRUE,CORRECT
1,MANUAL,2,86,0.5474987021194746,BLACK,0,NA,NA,NA,BLACK,2.1690422269984992,TRUE,CORRECT
1,MANUAL,2,87,0.5558834890919747,BLACK,0,NA,NA,NA,BLACK,1.3075982379996276,TRUE,CORRECT
1,MANUAL,2,88,0.4411897666175491,WHITE,0,NA,NA,NA,WHITE,5.664917234000313,TRUE,CORRECT
1,MANUAL,2,89,0.44172581100906777,WHITE,0,NA,NA,NA,WHITE,3.836711459998696,TRUE,CORRECT
1,MANUAL,2,90,0.4542948617955075,WHITE,0,NA,NA,NA,WHITE,5.023677582001255,TRUE,CORRECT
1,MANUAL,2,91,0.5500664920167159,BLACK,0,NA,NA,NA,BLACK,1.676570334999269,TRUE,CORRECT
1,MANUAL,2,92,0.448098555382609,WHITE,0,NA,NA,NA,WHITE,6.0281491660007305,TRUE,CORRECT
1,MANUAL,2,93,0.5381058553662128,BLACK,0,NA,NA,NA,BLACK,2.595351980000487,TRUE,CORRECT
1,MANUAL,2,94,0.42789167294067776,WHITE,0,NA,NA,NA,WHITE,3.937417352000921,TRUE,CORRECT
1,MANUAL,2,95,0.5500711052515505,BLACK,0,NA,NA,NA,BLACK,1.1283319419999316,TRUE,CORRECT
1,MANUAL,2,96,0.5693117786861162,BLACK,0,NA,NA,NA,BLACK,2.104713250999339,TRUE,CORRECT
1,MANUAL,2,97,0.43551865771632225,WHITE,0,NA,NA,NA,WHITE,2.9225146759999916,TRUE,CORRECT
1,MANUAL,2,98,0.5534018430610687,BLACK,0,NA,NA,NA,BLACK,5.3655858090005495,TRUE,CORRECT
1,MANUAL,2,99,0.4675477711780278,WHITE,0,NA,NA,NA,WHITE,3.281951079999999,TRUE,CORRECT
1,MANUAL,2,100,0.5514181574587671,BLACK,0,NA,NA,NA,BLACK,5.127398684000582,TRUE,CORRECT
1,MANUAL,2,101,0.4595028070035657,WHITE,0,NA,NA,NA,WHITE,4.347246363999147,TRUE,CORRECT
1,MANUAL,2,102,0.534338618734498,BLACK,0,NA,NA,NA,BLACK,4.066033838000294,TRUE,CORRECT
1,MANUAL,2,103,0.5611332424204956,BLACK,0,NA,NA,NA,BLACK,8.256063544999051,TRUE,CORRECT
1,MANUAL,2,104,0.5410643487305342,BLACK,0,NA,NA,NA,BLACK,2.0400672819996544,TRUE,CORRECT
1,MANUAL,2,105,0.45030856292953025,WHITE,0,NA,NA,NA,WHITE,3.954030599999896,TRUE,CORRECT
1,MANUAL,2,106,0.556764046978695,BLACK,0,NA,NA,NA,BLACK,2.1668127450011525,TRUE,CORRECT
1,MANUAL,2,107,0.542315053728031,BLACK,0,NA,NA,NA,BLACK,7.21756591600024,TRUE,CORRECT
1,MANUAL,2,108,0.5437441853620713,BLACK,0,NA,NA,NA,BLACK,5.067041612999674,TRUE,CORRECT
1,MANUAL,2,109,0.5492297779602515,BLACK,0,NA,NA,NA,BLACK,2.533040055001038,TRUE,CORRECT
1,MANUAL,2,110,0.4206813155100619,WHITE,0,NA,NA,NA,WHITE,1.9953105749991664,TRUE,CORRECT
1,MANUAL,2,111,0.5519712012980815,BLACK,0,NA,NA,NA,BLACK,2.424832946000606,TRUE,CORRECT
1,MANUAL,2,112,0.46273645042844946,WHITE,0,NA,NA,NA,BLACK,2.26277272399966,FALSE,INCORRECT
1,MANUAL,2,113,0.5417101574544189,BLACK,0,NA,NA,NA,BLACK,6.513556122999944,TRUE,CORRECT
1,MANUAL,2,114,0.4388443633590797,WHITE,0,NA,NA,NA,WHITE,3.2592292899989843,TRUE,CORRECT
1,MANUAL,2,115,0.449826691371376,WHITE,0,NA,NA,NA,WHITE,3.334520288000931,TRUE,CORRECT
1,MANUAL,2,116,0.5370035522961595,BLACK,0,NA,NA,NA,BLACK,4.350013986000704,TRUE,CORRECT
1,MANUAL,2,117,0.45259424372315304,WHITE,0,NA,NA,NA,WHITE,3.6132987119999598,TRUE,CORRECT
1,MANUAL,2,118,0.5510434417687256,BLACK,0,NA,NA,NA,BLACK,1.7285295900001074,TRUE,CORRECT
1,MANUAL,2,119,0.5496027524170347,BLACK,0,NA,NA,NA,BLACK,1.2099454140006856,TRUE,CORRECT
1,MANUAL,2,120,0.43786278525539746,WHITE,0,NA,NA,NA,WHITE,4.108547239999098,TRUE,CORRECT
1,MANUAL,2,121,0.5384685719417649,BLACK,0,NA,NA,NA,BLACK,1.6710191649999615,TRUE,CORRECT
1,MANUAL,2,122,0.5374988546467273,BLACK,0,NA,NA,NA,TIMEOUT,NA,NA,TOO SLOW
1,MANUAL,2,123,0.433423956078302,WHITE,0,NA,NA,NA,WHITE,3.2847132940005395,TRUE,CORRECT
1,MANUAL,2,124,0.5688958332271888,BLACK,0,NA,NA,NA,BLACK,1.1295305139992706,TRUE,CORRECT
1,MANUAL,2,125,0.5502034017275466,BLACK,0,NA,NA,NA,BLACK,2.2573516579996067,TRUE,CORRECT
1,MANUAL,2,126,0.5475666938408201,BLACK,0,NA,NA,NA,BLACK,3.942262419999679,TRUE,CORRECT
1,MANUAL,2,127,0.4365411400682202,WHITE,0,NA,NA,NA,WHITE,3.091166592999798,TRUE,CORRECT
1,MANUAL,2,128,0.4516103122555312,WHITE,0,NA,NA,NA,WHITE,3.904440845999488,TRUE,CORRECT
1,MANUAL,2,129,0.5443779340818724,BLACK,0,NA,NA,NA,WHITE,3.047366280999995,FALSE,INCORRECT
1,MANUAL,2,130,0.5408614860570632,BLACK,0,NA,NA,NA,BLACK,1.596526815001198,TRUE,CORRECT
1,MANUAL,2,131,0.5670470811488586,BLACK,0,NA,NA,NA,BLACK,0.7570423240013042,TRUE,CORRECT
1,MANUAL,2,132,0.5566658866455503,BLACK,0,NA,NA,NA,BLACK,0.915251731999888,TRUE,CORRECT
1,MANUAL,2,133,0.4508633572124481,WHITE,0,NA,NA,NA,WHITE,3.232363428000099,TRUE,CORRECT
1,MANUAL,2,134,0.4530688500418339,WHITE,0,NA,NA,NA,WHITE,1.619595345999187,TRUE,CORRECT
1,MANUAL,2,135,0.4481837523750311,WHITE,0,NA,NA,NA,WHITE,2.2001693450001767,TRUE,CORRECT
1,MANUAL,2,136,0.5455399994219466,BLACK,0,NA,NA,NA,BLACK,1.721385332000864,TRUE,CORRECT
1,MANUAL,2,137,0.46793410712479866,WHITE,0,NA,NA,NA,WHITE,5.106049138001254,TRUE,CORRECT
1,MANUAL,2,138,0.43638736894869,WHITE,0,NA,NA,NA,WHITE,5.989927367998462,TRUE,CORRECT
1,MANUAL,2,139,0.5599744356891534,BLACK,0,NA,NA,NA,BLACK,1.162888615999691,TRUE,CORRECT
1,MANUAL,2,140,0.55515271743849,BLACK,0,NA,NA,NA,BLACK,3.600803094999719,TRUE,CORRECT
1,MANUAL,2,141,0.4534936191362864,WHITE,0,NA,NA,NA,WHITE,2.260761684001409,TRUE,CORRECT
1,MANUAL,2,142,0.5528224830822492,BLACK,0,NA,NA,NA,BLACK,3.5526751229990623,TRUE,CORRECT
1,MANUAL,2,143,0.5393965314509167,BLACK,0,NA,NA,NA,BLACK,5.307534238001608,TRUE,CORRECT
1,MANUAL,2,144,0.5444042270965102,BLACK,0,NA,NA,NA,BLACK,0.9123380810015078,TRUE,CORRECT
1,MANUAL,2,145,0.542212910095109,BLACK,0,NA,NA,NA,BLACK,1.43262321399925,TRUE,CORRECT
1,MANUAL,2,146,0.4691546815995479,WHITE,0,NA,NA,NA,WHITE,5.816902120001032,TRUE,CORRECT
1,MANUAL,2,147,0.46040303026003826,WHITE,0,NA,NA,NA,WHITE,1.436376976998872,TRUE,CORRECT
1,MANUAL,2,148,0.45735353827232256,WHITE,0,NA,NA,NA,WHITE,3.5499805150011525,TRUE,CORRECT
1,MANUAL,2,149,0.5577929656751007,BLACK,0,NA,NA,NA,BLACK,1.156812526000067,TRUE,CORRECT
1,MANUAL,2,150,0.443230302375776,WHITE,0,NA,NA,NA,WHITE,4.629802288000064,TRUE,CORRECT
1,MANUAL,2,151,0.5523638606761078,BLACK,0,NA,NA,NA,BLACK,2.5095562759997847,TRUE,CORRECT
1,MANUAL,2,152,0.43258732502999414,WHITE,0,NA,NA,NA,WHITE,3.297795427000892,TRUE,CORRECT
1,MANUAL,2,153,0.547238688139327,BLACK,0,NA,NA,NA,BLACK,6.384255167999072,TRUE,CORRECT
1,MANUAL,2,154,0.4554163504943072,WHITE,0,NA,NA,NA,WHITE,1.606522527999914,TRUE,CORRECT
1,MANUAL,2,155,0.5447457690991657,BLACK,0,NA,NA,NA,BLACK,3.4677706109996507,TRUE,CORRECT
1,MANUAL,2,156,0.4637671283326979,WHITE,0,NA,NA,NA,WHITE,3.36096128600002,TRUE,CORRECT
1,MANUAL,2,157,0.5310901813233634,BLACK,0,NA,NA,NA,BLACK,2.498297991000072,TRUE,CORRECT
1,MANUAL,2,158,0.44871053450071213,WHITE,0,NA,NA,NA,BLACK,2.170828217000235,FALSE,INCORRECT
1,MANUAL,2,159,0.5512672406609551,BLACK,0,NA,NA,NA,BLACK,4.581902072000958,TRUE,CORRECT
1,MANUAL,2,160,0.4374663909958424,WHITE,0,NA,NA,NA,WHITE,3.872773484999925,TRUE,CORRECT
1,MANUAL,2,161,0.5633016650745817,BLACK,0,NA,NA,NA,BLACK,1.142823276000854,TRUE,CORRECT
1,MANUAL,2,162,0.45243114274310126,WHITE,0,NA,NA,NA,WHITE,2.202487766000558,TRUE,CORRECT
1,MANUAL,2,163,0.46080095992407194,WHITE,0,NA,NA,NA,WHITE,5.807874218999132,TRUE,CORRECT
1,MANUAL,2,164,0.5623331140097277,BLACK,0,NA,NA,NA,BLACK,2.4931395349995,TRUE,CORRECT
1,MANUAL,2,165,0.5633895447665477,BLACK,0,NA,NA,NA,BLACK,4.13018493600066,TRUE,CORRECT
1,MANUAL,2,166,0.544012059416513,BLACK,0,NA,NA,NA,WHITE,4.343717351999658,FALSE,INCORRECT
1,MANUAL,2,167,0.4167961811127336,WHITE,0,NA,NA,NA,WHITE,0.8234745850004401,TRUE,CORRECT
1,MANUAL,2,168,0.4550207854447612,WHITE,0,NA,NA,NA,WHITE,1.6829450919994997,TRUE,CORRECT
1,MANUAL,2,169,0.5286639081759035,BLACK,0,NA,NA,NA,BLACK,6.071059186999264,TRUE,CORRECT
1,MANUAL,2,170,0.45336415415602555,WHITE,0,NA,NA,NA,WHITE,4.15562356800001,TRUE,CORRECT
1,MANUAL,2,171,0.4446640225754376,WHITE,0,NA,NA,NA,WHITE,2.6862084889999096,TRUE,CORRECT
1,MANUAL,2,172,0.453177221102199,WHITE,0,NA,NA,NA,WHITE,3.256317442999716,TRUE,CORRECT
1,MANUAL,2,173,0.4484309110296627,WHITE,0,NA,NA,NA,WHITE,2.407828788000188,TRUE,CORRECT
1,MANUAL,2,174,0.4599517415560298,WHITE,0,NA,NA,NA,WHITE,5.156276488000003,TRUE,CORRECT
1,MANUAL,2,175,0.4464130638863791,WHITE,0,NA,NA,NA,WHITE,6.007567919999929,TRUE,CORRECT
1,MANUAL,2,176,0.4585930673485278,WHITE,0,NA,NA,NA,WHITE,3.903689972999928,TRUE,CORRECT
1,MANUAL,2,177,0.45892493522728833,WHITE,0,NA,NA,NA,BLACK,1.4884224670004187,FALSE,INCORRECT
1,MANUAL,2,178,0.454708905135145,WHITE,0,NA,NA,NA,BLACK,2.970405275998928,FALSE,INCORRECT
1,MANUAL,2,179,0.5387235564414498,BLACK,0,NA,NA,NA,BLACK,0.829466544000752,TRUE,CORRECT
1,MANUAL,2,180,0.4549163842704893,WHITE,0,NA,NA,NA,WHITE,2.466630028999134,TRUE,CORRECT
1,MANUAL,2,181,0.4227238559385574,WHITE,0,NA,NA,NA,WHITE,2.10872421699969,TRUE,CORRECT
1,MANUAL,2,182,0.5530742440095434,BLACK,0,NA,NA,NA,BLACK,3.9438678279984742,TRUE,CORRECT
1,MANUAL,2,183,0.5516646859905382,BLACK,0,NA,NA,NA,BLACK,3.543212743999902,TRUE,CORRECT
1,MANUAL,2,184,0.4468697562162949,WHITE,0,NA,NA,NA,WHITE,3.774369487000513,TRUE,CORRECT
1,MANUAL,2,185,0.5418431930256711,BLACK,0,NA,NA,NA,WHITE,6.990852812999947,FALSE,INCORRECT
1,MANUAL,2,186,0.5559201642379947,BLACK,0,NA,NA,NA,BLACK,4.798011314000178,TRUE,CORRECT
1,MANUAL,2,187,0.5553543436327979,BLACK,0,NA,NA,NA,BLACK,1.7941391660006047,TRUE,CORRECT
1,MANUAL,2,188,0.5662665071932691,BLACK,0,NA,NA,NA,BLACK,1.8506048599992937,TRUE,CORRECT
1,MANUAL,2,189,0.540866843586906,BLACK,0,NA,NA,NA,BLACK,2.126788129999113,TRUE,CORRECT
1,MANUAL,2,190,0.43643885669486826,WHITE,0,NA,NA,NA,WHITE,1.2395957249991625,TRUE,CORRECT
1,MANUAL,2,191,0.5650181270362721,BLACK,0,NA,NA,NA,BLACK,5.348502025999551,TRUE,CORRECT
1,MANUAL,2,192,0.5338795790768587,BLACK,0,NA,NA,NA,BLACK,5.817595902999528,TRUE,CORRECT
1,MANUAL,2,193,0.46359512196869646,WHITE,0,NA,NA,NA,WHITE,4.525099852999119,TRUE,CORRECT
1,MANUAL,2,194,0.46590669679981006,WHITE,0,NA,NA,NA,WHITE,3.410426644999461,TRUE,CORRECT
1,MANUAL,2,195,0.5634155777603245,BLACK,0,NA,NA,NA,BLACK,6.192039246001514,TRUE,CORRECT
1,MANUAL,2,196,0.5629761114667321,BLACK,0,NA,NA,NA,BLACK,5.929551667000851,TRUE,CORRECT
1,MANUAL,2,197,0.5492358374483044,BLACK,0,NA,NA,NA,BLACK,3.5854650379988016,TRUE,CORRECT
1,MANUAL,2,198,0.4463012150362098,WHITE,0,NA,NA,NA,WHITE,3.318575283001337,TRUE,CORRECT
1,MANUAL,2,199,0.549786458769747,BLACK,0,NA,NA,NA,WHITE,5.584041113999774,FALSE,INCORRECT
1,MANUAL,2,200,0.4698473378165152,WHITE,0,NA,NA,NA,WHITE,7.511981663999904,TRUE,CORRECT
1,MANUAL,2,201,0.5429909417537067,BLACK,0,NA,NA,NA,BLACK,2.5575033639997855,TRUE,CORRECT
1,MANUAL,2,202,0.4526132386391522,WHITE,0,NA,NA,NA,WHITE,4.731648762000987,TRUE,CORRECT
1,MANUAL,2,203,0.452914241758009,WHITE,0,NA,NA,NA,WHITE,6.044782245000533,TRUE,CORRECT
1,MANUAL,2,204,0.46240560683988075,WHITE,0,NA,NA,NA,WHITE,7.05778054700022,TRUE,CORRECT
1,MANUAL,2,205,0.4397690556331696,WHITE,0,NA,NA,NA,WHITE,2.783061463000194,TRUE,CORRECT
1,MANUAL,2,206,0.4521034377200897,WHITE,0,NA,NA,NA,WHITE,3.654524902000048,TRUE,CORRECT
1,MANUAL,2,207,0.4599998664204574,WHITE,0,NA,NA,NA,WHITE,4.776019364999229,TRUE,CORRECT
1,MANUAL,2,208,0.5402074351945755,BLACK,0,NA,NA,NA,BLACK,8.536286627000663,TRUE,CORRECT
1,MANUAL,2,209,0.5409315700917583,BLACK,0,NA,NA,NA,BLACK,3.4348587050008064,TRUE,CORRECT
1,MANUAL,2,210,0.5301827080774788,BLACK,0,NA,NA,NA,BLACK,1.5551609060003102,TRUE,CORRECT
1,MANUAL,2,211,0.5406309405134802,BLACK,0,NA,NA,NA,BLACK,6.622873165999408,TRUE,CORRECT
1,MANUAL,2,212,0.5406254179456144,BLACK,0,NA,NA,NA,WHITE,7.490413677000106,FALSE,INCORRECT
1,MANUAL,2,213,0.4444404568140685,WHITE,0,NA,NA,NA,WHITE,6.0194427679998626,TRUE,CORRECT
1,MANUAL,2,214,0.4619174306072708,WHITE,0,NA,NA,NA,WHITE,4.666055110999878,TRUE,CORRECT
1,MANUAL,2,215,0.562491544712943,BLACK,0,NA,NA,NA,BLACK,9.544337700999677,TRUE,CORRECT
1,MANUAL,2,216,0.44889546870906577,WHITE,0,NA,NA,NA,WHITE,4.725806135998937,TRUE,CORRECT
1,MANUAL,2,217,0.54212049406484,BLACK,0,NA,NA,NA,BLACK,4.328336929000216,TRUE,CORRECT
1,MANUAL,2,218,0.4504711901554684,WHITE,0,NA,NA,NA,WHITE,1.4155027739998332,TRUE,CORRECT
1,MANUAL,2,219,0.537820868588054,BLACK,0,NA,NA,NA,BLACK,2.618491121000261,TRUE,CORRECT
1,MANUAL,2,220,0.4614493868400782,WHITE,0,NA,NA,NA,WHITE,2.889008443000421,TRUE,CORRECT
1,MANUAL,2,221,0.5494217287911798,BLACK,0,NA,NA,NA,BLACK,2.9017026700003044,TRUE,CORRECT
1,MANUAL,2,222,0.479142379150118,WHITE,0,NA,NA,NA,WHITE,3.9692021970004134,TRUE,CORRECT
1,MANUAL,2,223,0.5440012396900955,BLACK,0,NA,NA,NA,WHITE,2.9236005719994864,FALSE,INCORRECT
1,MANUAL,2,224,0.5594005852168815,BLACK,0,NA,NA,NA,WHITE,7.735427164001521,FALSE,INCORRECT
1,MANUAL,2,225,0.4618139729904251,WHITE,0,NA,NA,NA,WHITE,4.21368745899963,TRUE,CORRECT
1,MANUAL,2,226,0.4416808106906805,WHITE,0,NA,NA,NA,WHITE,5.132254869000462,TRUE,CORRECT
1,MANUAL,2,227,0.475378975958154,WHITE,0,NA,NA,NA,WHITE,4.640753191999465,TRUE,CORRECT
1,MANUAL,2,228,0.450113158519319,WHITE,0,NA,NA,NA,WHITE,4.36123140699965,TRUE,CORRECT
1,MANUAL,2,229,0.4726861196467295,WHITE,0,NA,NA,NA,WHITE,5.029473033999238,TRUE,CORRECT
1,MANUAL,2,230,0.42646942871595206,WHITE,0,NA,NA,NA,WHITE,4.492135667000184,TRUE,CORRECT
1,MANUAL,2,231,0.4278937546710956,WHITE,0,NA,NA,NA,WHITE,2.5651439989997016,TRUE,CORRECT
1,MANUAL,2,232,0.4552151841292535,WHITE,0,NA,NA,NA,WHITE,5.1096006850002595,TRUE,CORRECT
1,MANUAL,2,233,0.451473565897163,WHITE,0,NA,NA,NA,WHITE,2.742036587000257,TRUE,CORRECT
1,MANUAL,2,234,0.4484681640463266,WHITE,0,NA,NA,NA,WHITE,2.129549744000542,TRUE,CORRECT
1,MANUAL,2,235,0.5433928916183589,BLACK,0,NA,NA,NA,WHITE,9.368293036999605,FALSE,INCORRECT
1,MANUAL,2,236,0.5242245907486077,BLACK,0,NA,NA,NA,BLACK,1.303824643000553,TRUE,CORRECT
1,MANUAL,2,237,0.5350849813501156,BLACK,0,NA,NA,NA,WHITE,7.643011820000538,FALSE,INCORRECT
1,MANUAL,2,238,0.5341665315066473,BLACK,0,NA,NA,NA,BLACK,3.09397357799935,TRUE,CORRECT
1,MANUAL,2,239,0.45775065033592943,WHITE,0,NA,NA,NA,WHITE,1.0877748950006207,TRUE,CORRECT
1,MANUAL,2,240,0.44596512345747313,WHITE,0,NA,NA,NA,WHITE,4.22490908600048,TRUE,CORRECT
1,MANUAL,2,241,0.4611804676558178,WHITE,0,NA,NA,NA,WHITE,3.8296900929999538,TRUE,CORRECT
1,MANUAL,2,242,0.5418931550407647,BLACK,0,NA,NA,NA,WHITE,7.715462781001406,FALSE,INCORRECT
1,MANUAL,2,243,0.4419575181914449,WHITE,0,NA,NA,NA,WHITE,6.602874529999099,TRUE,CORRECT
1,MANUAL,2,244,0.466427638076362,WHITE,0,NA,NA,NA,WHITE,7.011842396999782,TRUE,CORRECT
1,MANUAL,2,245,0.5588693848746511,BLACK,0,NA,NA,NA,BLACK,1.5512944669990247,TRUE,CORRECT
1,MANUAL,2,246,0.45846248780608534,WHITE,0,NA,NA,NA,BLACK,1.174676927999826,FALSE,INCORRECT
1,MANUAL,2,247,0.5460282155002429,BLACK,0,NA,NA,NA,BLACK,4.721408466999492,TRUE,CORRECT
1,MANUAL,2,248,0.45027674661713835,WHITE,0,NA,NA,NA,WHITE,4.139356461000716,TRUE,CORRECT
1,MANUAL,2,249,0.5484609602604319,BLACK,0,NA,NA,NA,BLACK,5.427564512998288,TRUE,CORRECT
1,MANUAL,2,250,0.5374703183009183,BLACK,0,NA,NA,NA,BLACK,6.325122808999367,TRUE,CORRECT
1,MANUAL,2,251,0.52219357781998,BLACK,0,NA,NA,NA,BLACK,5.358779276999485,TRUE,CORRECT
1,MANUAL,2,252,0.5359980942900459,BLACK,0,NA,NA,NA,BLACK,1.454578205000871,TRUE,CORRECT
1,MANUAL,2,253,0.5619554459118749,BLACK,0,NA,NA,NA,BLACK,3.666278960999989,TRUE,CORRECT
1,MANUAL,2,254,0.5417598958751105,BLACK,0,NA,NA,NA,BLACK,3.987731237000844,TRUE,CORRECT
1,MANUAL,2,255,0.5498413041102524,BLACK,0,NA,NA,NA,BLACK,2.6112708439995913,TRUE,CORRECT
1,MANUAL,2,256,0.4545340004588203,WHITE,0,NA,NA,NA,WHITE,1.9350586679993285,TRUE,CORRECT
1,MANUAL,2,257,0.42758260637757994,WHITE,0,NA,NA,NA,WHITE,2.7385700729992095,TRUE,CORRECT
1,MANUAL,2,258,0.5642909690559968,BLACK,0,NA,NA,NA,BLACK,3.2567798649997712,TRUE,CORRECT
1,MANUAL,2,259,0.561215226109691,BLACK,0,NA,NA,NA,BLACK,3.4216524789990217,TRUE,CORRECT
1,MANUAL,2,260,0.5446133083266821,BLACK,0,NA,NA,NA,BLACK,2.463011177000226,TRUE,CORRECT
1,MANUAL,2,261,0.5411958785775978,BLACK,0,NA,NA,NA,BLACK,5.257083337999575,TRUE,CORRECT
1,MANUAL,2,262,0.5502588489970486,BLACK,0,NA,NA,NA,BLACK,5.245241241998883,TRUE,CORRECT
1,MANUAL,2,263,0.5579684669420224,BLACK,0,NA,NA,NA,WHITE,7.206157997999981,FALSE,INCORRECT
1,MANUAL,2,264,0.5686742721662633,BLACK,0,NA,NA,NA,BLACK,1.0635513610013732,TRUE,CORRECT
1,MANUAL,2,265,0.5456579740158938,BLACK,0,NA,NA,NA,WHITE,7.477382924998892,FALSE,INCORRECT
1,MANUAL,2,266,0.45393274955696106,WHITE,0,NA,NA,NA,WHITE,3.0047320909998234,TRUE,CORRECT
1,MANUAL,2,267,0.4486258230675867,WHITE,0,NA,NA,NA,WHITE,2.3903024130013364,TRUE,CORRECT
1,MANUAL,2,268,0.4629108708448752,WHITE,0,NA,NA,NA,WHITE,3.3275506010013487,TRUE,CORRECT
1,MANUAL,2,269,0.44120432469884585,WHITE,0,NA,NA,NA,WHITE,1.8099757010004396,TRUE,CORRECT
1,MANUAL,2,270,0.4487094034974518,WHITE,0,NA,NA,NA,WHITE,1.5684581749992503,TRUE,CORRECT
1,MANUAL,2,271,0.4566804516463599,WHITE,0,NA,NA,NA,WHITE,6.46389275400179,TRUE,CORRECT
1,MANUAL,2,272,0.5438579504334335,BLACK,0,NA,NA,NA,BLACK,3.1911726919988723,TRUE,CORRECT
1,MANUAL,2,273,0.5596166821360962,BLACK,0,NA,NA,NA,BLACK,1.0714200509992224,TRUE,CORRECT
1,MANUAL,2,274,0.5263560621943871,BLACK,0,NA,NA,NA,BLACK,6.147783423000874,TRUE,CORRECT
1,MANUAL,2,275,0.45627452048631056,WHITE,0,NA,NA,NA,WHITE,1.9038269869997748,TRUE,CORRECT
1,MANUAL,2,276,0.5380824607726158,BLACK,0,NA,NA,NA,WHITE,2.4067233610003314,FALSE,INCORRECT
1,MANUAL,2,277,0.5693365909331671,BLACK,0,NA,NA,NA,BLACK,6.604926433999935,TRUE,CORRECT
1,MANUAL,2,278,0.5502181459874808,BLACK,0,NA,NA,NA,BLACK,4.31185048000043,TRUE,CORRECT
1,MANUAL,2,279,0.4596113297167167,WHITE,0,NA,NA,NA,WHITE,4.906304357000408,TRUE,CORRECT
1,MANUAL,2,280,0.5533975516943895,BLACK,0,NA,NA,NA,BLACK,1.7675284030010516,TRUE,CORRECT
1,MANUAL,2,281,0.4585544552576632,WHITE,0,NA,NA,NA,WHITE,1.4332869509999,TRUE,CORRECT
1,MANUAL,2,282,0.5465206227270791,BLACK,0,NA,NA,NA,WHITE,3.681732697999905,FALSE,INCORRECT
1,MANUAL,2,283,0.5642691533598614,BLACK,0,NA,NA,NA,BLACK,1.802464869999312,TRUE,CORRECT
1,MANUAL,2,284,0.4640053238200361,WHITE,0,NA,NA,NA,WHITE,0.9667834190004214,TRUE,CORRECT
1,MANUAL,2,285,0.4535775173791402,WHITE,0,NA,NA,NA,WHITE,2.5740123499999754,TRUE,CORRECT
1,MANUAL,2,286,0.5576167647100468,BLACK,0,NA,NA,NA,BLACK,3.64431405400137,TRUE,CORRECT
1,MANUAL,2,287,0.5503864356164572,BLACK,0,NA,NA,NA,BLACK,5.607135184998697,TRUE,CORRECT
1,MANUAL,2,288,0.4576608667192469,WHITE,0,NA,NA,NA,WHITE,5.556064116999551,TRUE,CORRECT
1,MANUAL,2,289,0.5519545484806555,BLACK,0,NA,NA,NA,BLACK,8.391311990000759,TRUE,CORRECT
1,MANUAL,2,290,0.4473920312078414,WHITE,0,NA,NA,NA,WHITE,4.01067657600106,TRUE,CORRECT
1,MANUAL,2,291,0.5391380550381564,BLACK,0,NA,NA,NA,BLACK,6.954062150000027,TRUE,CORRECT
1,MANUAL,2,292,0.5408975750806015,BLACK,0,NA,NA,NA,BLACK,3.620871139000883,TRUE,CORRECT
1,MANUAL,2,293,0.46547373426340527,WHITE,0,NA,NA,NA,WHITE,2.858514715000638,TRUE,CORRECT
1,MANUAL,2,294,0.4570265880840133,WHITE,0,NA,NA,NA,WHITE,4.406426797999302,TRUE,CORRECT
1,MANUAL,2,295,0.5464805300121159,BLACK,0,NA,NA,NA,WHITE,4.486175557000024,FALSE,INCORRECT
1,MANUAL,2,296,0.55324060521905,BLACK,0,NA,NA,NA,BLACK,4.843222028999662,TRUE,CORRECT
1,MANUAL,2,297,0.44659068222075055,WHITE,0,NA,NA,NA,WHITE,4.093466083999374,TRUE,CORRECT
1,MANUAL,2,298,0.5482954651864218,BLACK,0,NA,NA,NA,WHITE,5.7011733620001905,FALSE,INCORRECT
1,MANUAL,2,299,0.4642661692170688,WHITE,0,NA,NA,NA,WHITE,6.884537459000057,TRUE,CORRECT
1,MANUAL,2,300,0.5522393618996406,BLACK,0,NA,NA,NA,BLACK,8.353554115999941,TRUE,CORRECT
1,MANUAL,2,301,0.4379149172530464,WHITE,0,NA,NA,NA,WHITE,6.407277125999826,TRUE,CORRECT
1,MANUAL,2,302,0.4548494400331821,WHITE,0,NA,NA,NA,WHITE,4.2399577899996075,TRUE,CORRECT
1,MANUAL,2,303,0.45615891667032105,WHITE,0,NA,NA,NA,WHITE,5.30987399300102,TRUE,CORRECT
1,MANUAL,2,304,0.5388764654204685,BLACK,0,NA,NA,NA,BLACK,3.9421497430012096,TRUE,CORRECT
1,MANUAL,2,305,0.5466132462187271,BLACK,0,NA,NA,NA,BLACK,5.570257986000797,TRUE,CORRECT
1,MANUAL,2,306,0.4642572920563579,WHITE,0,NA,NA,NA,WHITE,4.392011181998896,TRUE,CORRECT
1,MANUAL,2,307,0.557464751359525,BLACK,0,NA,NA,NA,BLACK,3.66587422900011,TRUE,CORRECT
1,MANUAL,2,308,0.5631880729938942,BLACK,0,NA,NA,NA,BLACK,3.933944829001121,TRUE,CORRECT
1,MANUAL,2,309,0.5690766650792162,BLACK,0,NA,NA,NA,BLACK,2.850473555001372,TRUE,CORRECT
1,MANUAL,2,310,0.45509491035479827,WHITE,0,NA,NA,NA,WHITE,3.894682805001139,TRUE,CORRECT
1,MANUAL,2,311,0.4609263376940841,WHITE,0,NA,NA,NA,WHITE,5.627760899998975,TRUE,CORRECT
1,MANUAL,2,312,0.4384542847516453,WHITE,0,NA,NA,NA,WHITE,3.25844536600016,TRUE,CORRECT
1,MANUAL,2,313,0.461419774855578,WHITE,0,NA,NA,NA,WHITE,4.503931790999559,TRUE,CORRECT
1,MANUAL,2,314,0.5552262576026015,BLACK,0,NA,NA,NA,BLACK,5.865821526000218,TRUE,CORRECT
1,MANUAL,2,315,0.555031719788239,BLACK,0,NA,NA,NA,BLACK,5.071284239000306,TRUE,CORRECT
1,MANUAL,2,316,0.5240572317392913,BLACK,0,NA,NA,NA,WHITE,9.67436729399924,FALSE,INCORRECT
1,MANUAL,2,317,0.42932489597790713,WHITE,0,NA,NA,NA,WHITE,2.799670805999994,TRUE,CORRECT
1,MANUAL,2,318,0.4606803774606216,WHITE,0,NA,NA,NA,WHITE,3.624311512001441,TRUE,CORRECT
1,MANUAL,2,319,0.5246580436963028,BLACK,0,NA,NA,NA,WHITE,4.621362406000117,FALSE,INCORRECT
1,MANUAL,2,320,0.5374523910435328,BLACK,0,NA,NA,NA,BLACK,5.463272585000595,TRUE,CORRECT
1,MANUAL,2,321,0.4428589446012873,WHITE,0,NA,NA,NA,WHITE,3.964866424999854,TRUE,CORRECT
1,MANUAL,2,322,0.4359827292802711,WHITE,0,NA,NA,NA,WHITE,3.3039400239995302,TRUE,CORRECT
1,MANUAL,2,323,0.5419245433010029,BLACK,0,NA,NA,NA,BLACK,1.7099596859989106,TRUE,CORRECT
1,MANUAL,2,324,0.444264355457534,WHITE,0,NA,NA,NA,WHITE,4.482709343999886,TRUE,CORRECT
1,MANUAL,2,325,0.5456318523261802,BLACK,0,NA,NA,NA,BLACK,2.126560074000736,TRUE,CORRECT
1,MANUAL,2,326,0.5470884858052073,BLACK,0,NA,NA,NA,BLACK,4.4886856789999,TRUE,CORRECT
1,MANUAL,2,327,0.4372875092295787,WHITE,0,NA,NA,NA,WHITE,2.7600037489992246,TRUE,CORRECT
1,MANUAL,2,328,0.5460914299817106,BLACK,0,NA,NA,NA,WHITE,6.091534967999905,FALSE,INCORRECT
1,MANUAL,2,329,0.5587726400873335,BLACK,0,NA,NA,NA,BLACK,1.162191225999777,TRUE,CORRECT
1,MANUAL,2,330,0.5513121396991522,BLACK,0,NA,NA,NA,BLACK,6.39208449599937,TRUE,CORRECT
1,MANUAL,2,331,0.5336993023832225,BLACK,0,NA,NA,NA,BLACK,8.137142002000473,TRUE,CORRECT
1,MANUAL,2,332,0.44548257813859626,WHITE,0,NA,NA,NA,WHITE,1.9471832049985096,TRUE,CORRECT
1,MANUAL,2,333,0.45563652071297095,WHITE,0,NA,NA,NA,WHITE,4.099657856000704,TRUE,CORRECT
1,MANUAL,2,334,0.5705130031412915,BLACK,0,NA,NA,NA,WHITE,7.597119039999598,FALSE,INCORRECT
1,MANUAL,2,335,0.5353545734846719,BLACK,0,NA,NA,NA,BLACK,1.2255109259986057,TRUE,CORRECT
1,MANUAL,2,336,0.4557085814396746,WHITE,0,NA,NA,NA,WHITE,7.090354424999532,TRUE,CORRECT
1,MANUAL,2,337,0.4488168653387341,WHITE,0,NA,NA,NA,WHITE,8.29475978499977,TRUE,CORRECT
1,MANUAL,2,338,0.554392191347333,BLACK,0,NA,NA,NA,WHITE,6.879512109999268,FALSE,INCORRECT
1,MANUAL,2,339,0.4391323711509083,WHITE,0,NA,NA,NA,WHITE,3.489367743999537,TRUE,CORRECT
1,MANUAL,2,340,0.5460090598964372,BLACK,0,NA,NA,NA,BLACK,4.197962097001437,TRUE,CORRECT
1,MANUAL,2,341,0.45839026991048487,WHITE,0,NA,NA,NA,WHITE,7.54380376699919,TRUE,CORRECT
1,MANUAL,2,342,0.4538256459611379,WHITE,0,NA,NA,NA,WHITE,4.132689046999076,TRUE,CORRECT
1,MANUAL,2,343,0.4434223502655008,WHITE,0,NA,NA,NA,WHITE,3.3870029599984264,TRUE,CORRECT
1,MANUAL,2,344,0.4485740303785744,WHITE,0,NA,NA,NA,WHITE,3.8911754260007,TRUE,CORRECT
1,MANUAL,2,345,0.4429323090480251,WHITE,0,NA,NA,NA,WHITE,2.499117972000022,TRUE,CORRECT
1,MANUAL,2,346,0.5355952987610407,BLACK,0,NA,NA,NA,BLACK,4.87506816899986,TRUE,CORRECT
1,MANUAL,2,347,0.4566108734149905,WHITE,0,NA,NA,NA,WHITE,2.122214686998632,TRUE,CORRECT
1,MANUAL,2,348,0.4643551335986816,WHITE,0,NA,NA,NA,WHITE,2.9013258810009575,TRUE,CORRECT
1,MANUAL,2,349,0.42077390957887567,WHITE,0,NA,NA,NA,WHITE,1.586242952998873,TRUE,CORRECT
1,MANUAL,2,350,0.4536994346836419,WHITE,0,NA,NA,NA,WHITE,2.561830123000618,TRUE,CORRECT
1,MANUAL,2,351,0.546502400765354,BLACK,0,NA,NA,NA,BLACK,1.72615317799864,TRUE,CORRECT
1,MANUAL,2,352,0.5380522925284134,BLACK,0,NA,NA,NA,BLACK,7.373611343999073,TRUE,CORRECT
1,MANUAL,2,353,0.450505332343316,WHITE,0,NA,NA,NA,WHITE,1.778644264999457,TRUE,CORRECT
1,MANUAL,2,354,0.5490879684239692,BLACK,0,NA,NA,NA,BLACK,4.295356818000073,TRUE,CORRECT
1,MANUAL,2,355,0.43703793609889013,WHITE,0,NA,NA,NA,WHITE,3.1340555810002115,TRUE,CORRECT
1,MANUAL,2,356,0.5594457677285708,BLACK,0,NA,NA,NA,BLACK,4.632092465000824,TRUE,CORRECT
1,MANUAL,2,357,0.4580094742540042,WHITE,0,NA,NA,NA,WHITE,0.9894994999995106,TRUE,CORRECT
1,MANUAL,2,358,0.45501136666362174,WHITE,0,NA,NA,NA,WHITE,2.5224223710010847,TRUE,CORRECT
1,MANUAL,2,359,0.4540235897083551,WHITE,0,NA,NA,NA,WHITE,4.612590504999389,TRUE,CORRECT
1,MANUAL,2,360,0.4599268677670027,WHITE,0,NA,NA,NA,WHITE,3.817437855999742,TRUE,CORRECT
1,MANUAL,2,361,0.567413101865227,BLACK,0,NA,NA,NA,BLACK,1.8296573420011557,TRUE,CORRECT
1,MANUAL,2,362,0.5698723369660493,BLACK,0,NA,NA,NA,BLACK,5.3974917420000565,TRUE,CORRECT
1,MANUAL,2,363,0.44425298403389774,WHITE,0,NA,NA,NA,WHITE,1.0929405630013207,TRUE,CORRECT
1,MANUAL,2,364,0.5559417692369462,BLACK,0,NA,NA,NA,BLACK,2.9322114210008294,TRUE,CORRECT
1,MANUAL,2,365,0.5513680032337782,BLACK,0,NA,NA,NA,BLACK,3.4434665509998013,TRUE,CORRECT
1,MANUAL,2,366,0.454662292871319,WHITE,0,NA,NA,NA,WHITE,2.7268238259985083,TRUE,CORRECT
1,MANUAL,2,367,0.5532394401995039,BLACK,0,NA,NA,NA,WHITE,7.316509256001154,FALSE,INCORRECT
1,MANUAL,2,368,0.5530134467375369,BLACK,0,NA,NA,NA,BLACK,2.103543224000532,TRUE,CORRECT
1,MANUAL,2,369,0.5385438744526013,BLACK,0,NA,NA,NA,WHITE,7.584594578998804,FALSE,INCORRECT
1,MANUAL,2,370,0.5460418585562252,BLACK,0,NA,NA,NA,WHITE,1.9426340999998504,FALSE,INCORRECT
1,MANUAL,2,371,0.5375237597842148,BLACK,0,NA,NA,NA,BLACK,5.860885417001555,TRUE,CORRECT
1,MANUAL,2,372,0.5456418538855938,BLACK,0,NA,NA,NA,WHITE,6.796901681000236,FALSE,INCORRECT
1,MANUAL,2,373,0.5409244194645519,BLACK,0,NA,NA,NA,WHITE,6.726294098998551,FALSE,INCORRECT
1,MANUAL,2,374,0.5284553438898096,BLACK,0,NA,NA,NA,WHITE,4.28132369999912,FALSE,INCORRECT
1,MANUAL,2,375,0.5417944704890173,BLACK,0,NA,NA,NA,WHITE,7.093176731999847,FALSE,INCORRECT
1,MANUAL,2,376,0.4289292466440068,WHITE,0,NA,NA,NA,WHITE,0.9071504779985844,TRUE,CORRECT
1,MANUAL,2,377,0.5376299109806619,BLACK,0,NA,NA,NA,WHITE,5.835740943000928,FALSE,INCORRECT
1,MANUAL,2,378,0.5468169643205835,BLACK,0,NA,NA,NA,TIMEOUT,NA,NA,TOO SLOW
1,MANUAL,2,379,0.4443128101955066,WHITE,0,NA,NA,NA,WHITE,1.3297605529987775,TRUE,CORRECT
1,MANUAL,2,380,0.4547923928974723,WHITE,0,NA,NA,NA,WHITE,3.9011768479995226,TRUE,CORRECT
1,MANUAL,2,381,0.462583065782562,WHITE,0,NA,NA,NA,WHITE,4.379419114000484,TRUE,CORRECT
1,MANUAL,2,382,0.5440807862659068,BLACK,0,NA,NA,NA,BLACK,1.4522432579997258,TRUE,CORRECT
1,MANUAL,2,383,0.5178469986146444,BLACK,0,NA,NA,NA,BLACK,4.555056343000615,TRUE,CORRECT
1,MANUAL,2,384,0.4613386540745586,WHITE,0,NA,NA,NA,WHITE,6.113382391999039,TRUE,CORRECT
1,MANUAL,2,385,0.4654977819925165,WHITE,0,NA,NA,NA,BLACK,1.2649057559992798,FALSE,INCORRECT
1,MANUAL,2,386,0.5464367828655706,BLACK,0,NA,NA,NA,BLACK,2.229443768001147,TRUE,CORRECT
1,MANUAL,2,387,0.460973483873411,WHITE,0,NA,NA,NA,WHITE,8.333899516999736,TRUE,CORRECT
1,MANUAL,2,388,0.4601368711542193,WHITE,0,NA,NA,NA,WHITE,4.595244413001637,TRUE,CORRECT
1,MANUAL,2,389,0.4742010791008321,WHITE,0,NA,NA,NA,WHITE,4.125977162999334,TRUE,CORRECT
1,MANUAL,2,390,0.5576831115986588,BLACK,0,NA,NA,NA,BLACK,5.219842571999834,TRUE,CORRECT
1,MANUAL,2,391,0.5150882897313992,BLACK,0,NA,NA,NA,BLACK,4.963694594000117,TRUE,CORRECT
1,MANUAL,2,392,0.4541488243534154,WHITE,0,NA,NA,NA,WHITE,2.1223459920001915,TRUE,CORRECT
1,MANUAL,2,393,0.451469290203271,WHITE,0,NA,NA,NA,WHITE,6.776519344999542,TRUE,CORRECT
1,MANUAL,2,394,0.5417869084733908,BLACK,0,NA,NA,NA,WHITE,5.389508272999592,FALSE,INCORRECT
1,MANUAL,2,395,0.5537574103187799,BLACK,0,NA,NA,NA,BLACK,1.0370169159996294,TRUE,CORRECT
1,MANUAL,2,396,0.4660167122727321,WHITE,0,NA,NA,NA,WHITE,4.277291400998365,TRUE,CORRECT
1,MANUAL,2,397,0.5670677168207617,BLACK,0,NA,NA,NA,BLACK,2.300073585000064,TRUE,CORRECT
1,MANUAL,2,398,0.464039430131262,WHITE,0,NA,NA,NA,WHITE,5.251899340999444,TRUE,CORRECT
1,MANUAL,2,399,0.4559367117244678,WHITE,0,NA,NA,NA,WHITE,3.075944817999698,TRUE,CORRECT
1,MANUAL,2,400,0.43521783709390505,WHITE,0,NA,NA,NA,WHITE,4.009801910000533,TRUE,CORRECT
1,MANUAL,2,401,0.4438509952336268,WHITE,0,NA,NA,NA,WHITE,2.6718247230001,TRUE,CORRECT
1,MANUAL,2,402,0.5529663634274566,BLACK,0,NA,NA,NA,BLACK,3.350603208000394,TRUE,CORRECT
1,MANUAL,2,403,0.4565610887538286,WHITE,0,NA,NA,NA,WHITE,7.786073969000427,TRUE,CORRECT
1,MANUAL,2,404,0.5363592519448043,BLACK,0,NA,NA,NA,BLACK,2.7217681290003384,TRUE,CORRECT
1,MANUAL,2,405,0.5247181087361071,BLACK,0,NA,NA,NA,BLACK,2.2716855449998548,TRUE,CORRECT
1,MANUAL,2,406,0.4714811641150781,WHITE,0,NA,NA,NA,WHITE,2.3445896140001423,TRUE,CORRECT
1,MANUAL,2,407,0.4451475498118609,WHITE,0,NA,NA,NA,WHITE,2.9541994640003395,TRUE,CORRECT
1,MANUAL,2,408,0.4589197198970623,WHITE,0,NA,NA,NA,WHITE,2.888997926000229,TRUE,CORRECT
1,MANUAL,2,409,0.4419140633722418,WHITE,0,NA,NA,NA,WHITE,2.6356971959994553,TRUE,CORRECT
1,MANUAL,2,410,0.5329419729819163,BLACK,0,NA,NA,NA,WHITE,4.708058616999551,FALSE,INCORRECT
1,MANUAL,2,411,0.5427117680234734,BLACK,0,NA,NA,NA,BLACK,1.6915956039993034,TRUE,CORRECT
1,MANUAL,2,412,0.5454484519644738,BLACK,0,NA,NA,NA,BLACK,5.209195142000681,TRUE,CORRECT
1,MANUAL,2,413,0.42839030482104967,WHITE,0,NA,NA,NA,WHITE,1.1793594419996225,TRUE,CORRECT
1,MANUAL,2,414,0.5302195837241608,BLACK,0,NA,NA,NA,BLACK,3.763978358001623,TRUE,CORRECT
1,MANUAL,2,415,0.4319114873719117,WHITE,0,NA,NA,NA,WHITE,3.678631855000276,TRUE,CORRECT
1,MANUAL,2,416,0.4513409654595852,WHITE,0,NA,NA,NA,WHITE,4.508037404000788,TRUE,CORRECT
1,MANUAL,2,417,0.4374734830885292,WHITE,0,NA,NA,NA,WHITE,3.602343900998676,TRUE,CORRECT
1,MANUAL,2,418,0.4355328461120537,WHITE,0,NA,NA,NA,WHITE,1.641283820999888,TRUE,CORRECT
1,MANUAL,2,419,0.4631048589730473,WHITE,0,NA,NA,NA,WHITE,6.7240492930013716,TRUE,CORRECT
1,MANUAL,2,420,0.5615829949633004,BLACK,0,NA,NA,NA,BLACK,2.3723154189992783,TRUE,CORRECT
1,MANUAL,2,421,0.5468776758629029,BLACK,0,NA,NA,NA,BLACK,4.004367621999336,TRUE,CORRECT
1,MANUAL,2,422,0.4399678352715695,WHITE,0,NA,NA,NA,WHITE,3.5659486550011934,TRUE,CORRECT
1,MANUAL,2,423,0.4263756552664681,WHITE,0,NA,NA,NA,WHITE,1.7730456200006302,TRUE,CORRECT
1,MANUAL,2,424,0.44648089166331795,WHITE,0,NA,NA,NA,WHITE,2.47393083300085,TRUE,CORRECT
1,MANUAL,2,425,0.456904144681181,WHITE,0,NA,NA,NA,WHITE,4.491940361000161,TRUE,CORRECT
1,MANUAL,2,426,0.4539444035226977,WHITE,0,NA,NA,NA,WHITE,7.733705173999624,TRUE,CORRECT
1,MANUAL,2,427,0.44045546574635186,WHITE,0,NA,NA,NA,WHITE,0.8951211900002818,TRUE,CORRECT
1,MANUAL,2,428,0.5424082722377924,BLACK,0,NA,NA,NA,BLACK,1.7289553560003696,TRUE,CORRECT
1,MANUAL,2,429,0.5458002727254421,BLACK,0,NA,NA,NA,BLACK,0.8858736460006185,TRUE,CORRECT
1,MANUAL,2,430,0.4360614053980096,WHITE,0,NA,NA,NA,WHITE,2.632468351999705,TRUE,CORRECT
1,MANUAL,2,431,0.44207140897499486,WHITE,0,NA,NA,NA,WHITE,3.955414862999533,TRUE,CORRECT
1,MANUAL,2,432,0.5447687806307583,BLACK,0,NA,NA,NA,BLACK,4.151023984000858,TRUE,CORRECT
1,MANUAL,2,433,0.5411636072904396,BLACK,0,NA,NA,NA,BLACK,2.5570241159985017,TRUE,CORRECT
1,MANUAL,2,434,0.5493225115373417,BLACK,0,NA,NA,NA,BLACK,2.459930164999605,TRUE,CORRECT
1,MANUAL,2,435,0.4236218233651442,WHITE,0,NA,NA,NA,WHITE,1.6087375870010874,TRUE,CORRECT
1,MANUAL,2,436,0.4762464426379314,WHITE,0,NA,NA,NA,BLACK,3.78936200499993,FALSE,INCORRECT
1,MANUAL,2,437,0.5457870304276458,BLACK,0,NA,NA,NA,WHITE,3.7773261050006113,FALSE,INCORRECT
1,MANUAL,2,438,0.4622275672780906,WHITE,0,NA,NA,NA,WHITE,5.183899532999931,TRUE,CORRECT
1,MANUAL,2,439,0.43058876855383466,WHITE,0,NA,NA,NA,WHITE,1.3357492059985816,TRUE,CORRECT
1,MANUAL,2,440,0.5661615009648528,BLACK,0,NA,NA,NA,BLACK,1.4361879819989554,TRUE,CORRECT
1,MANUAL,2,441,0.5472552200208796,BLACK,0,NA,NA,NA,BLACK,3.8331548050009583,TRUE,CORRECT
1,MANUAL,2,442,0.5379581878400819,BLACK,0,NA,NA,NA,BLACK,5.139999164999608,TRUE,CORRECT
1,MANUAL,2,443,0.4322259632173715,WHITE,0,NA,NA,NA,WHITE,2.4899725880004553,TRUE,CORRECT
1,MANUAL,2,444,0.4588873335677614,WHITE,0,NA,NA,NA,WHITE,4.603846547001012,TRUE,CORRECT
1,MANUAL,2,445,0.5425841136963299,BLACK,0,NA,NA,NA,BLACK,3.0718328950006253,TRUE,CORRECT
1,MANUAL,2,446,0.5409425005029459,BLACK,0,NA,NA,NA,BLACK,1.9856150320010784,TRUE,CORRECT
1,MANUAL,2,447,0.4687765193164368,WHITE,0,NA,NA,NA,WHITE,3.842705222001314,TRUE,CORRECT
1,MANUAL,2,448,0.5363123093033451,BLACK,0,NA,NA,NA,BLACK,5.422435501999644,TRUE,CORRECT
1,MANUAL,2,449,0.5491435631001059,BLACK,0,NA,NA,NA,BLACK,3.743995647000702,TRUE,CORRECT
1,MANUAL,2,450,0.4333827314705197,WHITE,0,NA,NA,NA,WHITE,1.6236306489990966,TRUE,CORRECT
1,MANUAL,2,451,0.5497623574969849,BLACK,0,NA,NA,NA,BLACK,4.6573850700006005,TRUE,CORRECT
1,MANUAL,2,452,0.5425399992299509,BLACK,0,NA,NA,NA,BLACK,3.6483226149994152,TRUE,CORRECT
1,MANUAL,2,453,0.5438517416554353,BLACK,0,NA,NA,NA,BLACK,6.34686506899925,TRUE,CORRECT
1,MANUAL,2,454,0.4622065994166217,WHITE,0,NA,NA,NA,WHITE,1.8311699040004896,TRUE,CORRECT
1,MANUAL,2,455,0.535604893220297,BLACK,0,NA,NA,NA,BLACK,4.891655275998346,TRUE,CORRECT
1,MANUAL,2,456,0.4405489218373622,WHITE,0,NA,NA,NA,WHITE,3.0902531659994565,TRUE,CORRECT
1,MANUAL,2,457,0.4506006308585466,WHITE,0,NA,NA,NA,WHITE,1.703849943000023,TRUE,CORRECT
1,MANUAL,2,458,0.5539995716121431,BLACK,0,NA,NA,NA,BLACK,2.924928345999433,TRUE,CORRECT
1,MANUAL,2,459,0.5652224132369386,BLACK,0,NA,NA,NA,BLACK,6.690547866999623,TRUE,CORRECT
1,MANUAL,2,460,0.44405886569510583,WHITE,0,NA,NA,NA,WHITE,2.319976370999939,TRUE,CORRECT
1,MANUAL,2,461,0.4566473972557021,WHITE,0,NA,NA,NA,BLACK,2.950600442998621,FALSE,INCORRECT
1,MANUAL,2,462,0.5337104602097141,BLACK,0,NA,NA,NA,BLACK,5.789048313999956,TRUE,CORRECT
1,MANUAL,2,463,0.44760828425850674,WHITE,0,NA,NA,NA,WHITE,1.080185041000732,TRUE,CORRECT
1,MANUAL,2,464,0.43764993731848223,WHITE,0,NA,NA,NA,WHITE,6.618628435999199,TRUE,CORRECT
1,MANUAL,2,465,0.4544854104475208,WHITE,0,NA,NA,NA,WHITE,5.570903695001107,TRUE,CORRECT
1,MANUAL,2,466,0.4426537881925923,WHITE,0,NA,NA,NA,WHITE,3.047171578000416,TRUE,CORRECT
1,MANUAL,2,467,0.5368008628094836,BLACK,0,NA,NA,NA,BLACK,3.7359187319998455,TRUE,CORRECT
1,MANUAL,2,468,0.5691669769667608,BLACK,0,NA,NA,NA,BLACK,4.2754212799991365,TRUE,CORRECT
1,MANUAL,2,469,0.559258572008704,BLACK,0,NA,NA,NA,BLACK,6.51802500300073,TRUE,CORRECT
1,MANUAL,2,470,0.4638030322027693,WHITE,0,NA,NA,NA,WHITE,3.783829762998721,TRUE,CORRECT
1,MANUAL,2,471,0.44664394455624135,WHITE,0,NA,NA,NA,WHITE,3.449080218000745,TRUE,CORRECT
1,MANUAL,2,472,0.5534710404617917,BLACK,0,NA,NA,NA,WHITE,3.7276558260000456,FALSE,INCORRECT
1,MANUAL,2,473,0.5655621216487533,BLACK,0,NA,NA,NA,BLACK,1.1211507249990973,TRUE,CORRECT
1,MANUAL,2,474,0.5654337506489553,BLACK,0,NA,NA,NA,BLACK,1.571847469000204,TRUE,CORRECT
1,MANUAL,2,475,0.5512651210385671,BLACK,0,NA,NA,NA,WHITE,5.4883999319990835,FALSE,INCORRECT
1,MANUAL,2,476,0.4513930744690166,WHITE,0,NA,NA,NA,WHITE,4.564969425000527,TRUE,CORRECT
1,MANUAL,2,477,0.5422229770490459,BLACK,0,NA,NA,NA,BLACK,4.789216577000843,TRUE,CORRECT
1,MANUAL,2,478,0.5511260271746935,BLACK,0,NA,NA,NA,WHITE,5.622097352999845,FALSE,INCORRECT
1,MANUAL,2,479,0.566255541196103,BLACK,0,NA,NA,NA,BLACK,3.884392631998708,TRUE,CORRECT
1,MANUAL,2,480,0.4291811930284374,WHITE,0,NA,NA,NA,WHITE,0.99930591500015,TRUE,CORRECT
1,MANUAL,2,481,0.448247579968593,WHITE,0,NA,NA,NA,WHITE,3.1106267880004452,TRUE,CORRECT
1,MANUAL,2,482,0.4464232087950872,WHITE,0,NA,NA,NA,WHITE,1.5536582589993486,TRUE,CORRECT
1,MANUAL,2,483,0.46795869992557815,WHITE,0,NA,NA,NA,WHITE,3.473733725000784,TRUE,CORRECT
1,MANUAL,2,484,0.5415321470683863,BLACK,0,NA,NA,NA,BLACK,2.982075504000022,TRUE,CORRECT
1,MANUAL,2,485,0.562403268900456,BLACK,0,NA,NA,NA,BLACK,2.3608651350004948,TRUE,CORRECT
1,MANUAL,2,486,0.455045310828442,WHITE,0,NA,NA,NA,WHITE,1.613987086000634,TRUE,CORRECT
1,MANUAL,2,487,0.4514316179383135,WHITE,0,NA,NA,NA,WHITE,2.863178298001003,TRUE,CORRECT
1,MANUAL,2,488,0.5441249601158988,BLACK,0,NA,NA,NA,BLACK,3.3922930219996488,TRUE,CORRECT
1,MANUAL,2,489,0.45211696769975135,WHITE,0,NA,NA,NA,WHITE,2.784702928000115,TRUE,CORRECT
1,MANUAL,2,490,0.5375763109156765,BLACK,0,NA,NA,NA,WHITE,7.743151028000284,FALSE,INCORRECT
1,MANUAL,2,491,0.4564516062639017,WHITE,0,NA,NA,NA,WHITE,2.625045859000238,TRUE,CORRECT
1,MANUAL,2,492,0.5435864403350157,BLACK,0,NA,NA,NA,BLACK,3.3825193570010015,TRUE,CORRECT
1,MANUAL,2,493,0.5458697399761487,BLACK,0,NA,NA,NA,BLACK,4.839306613001099,TRUE,CORRECT
1,MANUAL,2,494,0.559272389840044,BLACK,0,NA,NA,NA,BLACK,3.898992735999854,TRUE,CORRECT
1,MANUAL,2,495,0.5417696743486577,BLACK,0,NA,NA,NA,BLACK,2.372568114000387,TRUE,CORRECT
1,MANUAL,2,496,0.4520144228964542,WHITE,0,NA,NA,NA,WHITE,3.0604709499984892,TRUE,CORRECT
1,MANUAL,2,497,0.5530357621396391,BLACK,0,NA,NA,NA,WHITE,2.7324573250007234,FALSE,INCORRECT
1,MANUAL,2,498,0.4345480165274622,WHITE,0,NA,NA,NA,WHITE,2.8323982229994726,TRUE,CORRECT
1,MANUAL,2,499,0.5533775663265602,BLACK,0,NA,NA,NA,BLACK,2.1371245749996888,TRUE,CORRECT
1,MANUAL,2,500,0.44839090922824343,WHITE,0,NA,NA,NA,WHITE,2.326279015000182,TRUE,CORRECT
1,AUTOMATION1,3,1,0.5648264279400229,BLACK,1,0.95,BLACK,TRUE,BLACK,2.740996661999816,TRUE,CORRECT
1,AUTOMATION1,3,2,0.5421391802598208,BLACK,1,0.95,BLACK,TRUE,WHITE,6.1581090510007925,FALSE,INCORRECT
1,AUTOMATION1,3,3,0.5637531425597174,BLACK,1,0.95,BLACK,TRUE,BLACK,2.07025392900141,TRUE,CORRECT
1,AUTOMATION1,3,4,0.5659809471678681,BLACK,1,0.95,BLACK,TRUE,BLACK,1.8904813429999192,TRUE,CORRECT
1,AUTOMATION1,3,5,0.5345867007938252,BLACK,1,0.95,BLACK,TRUE,BLACK,3.7596681260001783,TRUE,CORRECT
1,AUTOMATION1,3,6,0.4583873227393568,WHITE,1,0.95,WHITE,TRUE,WHITE,3.756588615999135,TRUE,CORRECT
1,AUTOMATION1,3,7,0.4448723875174341,WHITE,1,0.95,WHITE,TRUE,WHITE,2.8549854020002385,TRUE,CORRECT
1,AUTOMATION1,3,8,0.5642416410580209,BLACK,1,0.95,BLACK,TRUE,BLACK,6.744855889999599,TRUE,CORRECT
1,AUTOMATION1,3,9,0.4620378844269175,WHITE,1,0.95,WHITE,TRUE,WHITE,1.5379395069994644,TRUE,CORRECT
1,AUTOMATION1,3,10,0.5370401640557273,BLACK,1,0.95,BLACK,TRUE,BLACK,1.1918304200007697,TRUE,CORRECT
1,AUTOMATION1,3,11,0.5363424279679356,BLACK,1,0.95,BLACK,TRUE,BLACK,1.076921043000766,TRUE,CORRECT
1,AUTOMATION1,3,12,0.4627682871836652,WHITE,1,0.95,WHITE,TRUE,WHITE,3.840928244999304,TRUE,CORRECT
1,AUTOMATION1,3,13,0.55434001952872,BLACK,1,0.95,BLACK,TRUE,BLACK,1.096775453999726,TRUE,CORRECT
1,AUTOMATION1,3,14,0.4574812543947788,WHITE,1,0.95,WHITE,TRUE,WHITE,2.6949257050000597,TRUE,CORRECT
1,AUTOMATION1,3,15,0.5494399526775513,BLACK,1,0.95,BLACK,TRUE,BLACK,2.8439810140007467,TRUE,CORRECT
1,AUTOMATION1,3,16,0.4435108858927565,WHITE,1,0.95,BLACK,FALSE,WHITE,3.5494105249999848,TRUE,CORRECT
1,AUTOMATION1,3,17,0.5713650838615872,BLACK,1,0.95,WHITE,FALSE,BLACK,5.749082891999933,TRUE,CORRECT
1,AUTOMATION1,3,18,0.45037107574519175,WHITE,1,0.95,WHITE,TRUE,WHITE,1.915389646999756,TRUE,CORRECT
1,AUTOMATION1,3,19,0.45879217236444697,WHITE,1,0.95,WHITE,TRUE,WHITE,1.5964754350006842,TRUE,CORRECT
1,AUTOMATION1,3,20,0.45971933172377966,WHITE,1,0.95,WHITE,TRUE,WHITE,1.5042373689993838,TRUE,CORRECT
1,AUTOMATION1,3,21,0.5508643348259421,BLACK,1,0.95,BLACK,TRUE,BLACK,1.9730433959994116,TRUE,CORRECT
1,AUTOMATION1,3,22,0.4308791951286966,WHITE,1,0.95,WHITE,TRUE,WHITE,1.172649961999923,TRUE,CORRECT
1,AUTOMATION1,3,23,0.559553725826117,BLACK,1,0.95,BLACK,TRUE,BLACK,5.366340586999286,TRUE,CORRECT
1,AUTOMATION1,3,24,0.5224415979221805,BLACK,1,0.95,BLACK,TRUE,WHITE,1.8435077750000344,FALSE,INCORRECT
1,AUTOMATION1,3,25,0.4638281224539288,WHITE,1,0.95,WHITE,TRUE,WHITE,3.020146767001279,TRUE,CORRECT
1,AUTOMATION1,3,26,0.43051844590906385,WHITE,1,0.95,WHITE,TRUE,WHITE,3.478247373999693,TRUE,CORRECT
1,AUTOMATION1,3,27,0.5415564819055957,BLACK,1,0.95,BLACK,TRUE,BLACK,1.8075659369987989,TRUE,CORRECT
1,AUTOMATION1,3,28,0.5289555461342427,BLACK,1,0.95,BLACK,TRUE,BLACK,2.014048441998966,TRUE,CORRECT
1,AUTOMATION1,3,29,0.42811607834250154,WHITE,1,0.95,WHITE,TRUE,WHITE,0.9798228849995212,TRUE,CORRECT
1,AUTOMATION1,3,30,0.5490579555854911,BLACK,1,0.95,BLACK,TRUE,BLACK,0.9617887179992975,TRUE,CORRECT
1,AUTOMATION1,3,31,0.5416570254496451,BLACK,1,0.95,WHITE,FALSE,WHITE,2.363731611998446,FALSE,INCORRECT
1,AUTOMATION1,3,32,0.4467102854809726,WHITE,1,0.95,WHITE,TRUE,WHITE,1.001574158999574,TRUE,CORRECT
1,AUTOMATION1,3,33,0.4630118616911448,WHITE,1,0.95,WHITE,TRUE,WHITE,4.495476885000244,TRUE,CORRECT
1,AUTOMATION1,3,34,0.4477116269103415,WHITE,1,0.95,WHITE,TRUE,WHITE,1.2605119939998986,TRUE,CORRECT
1,AUTOMATION1,3,35,0.44223528756854874,WHITE,1,0.95,WHITE,TRUE,WHITE,1.5716470549996302,TRUE,CORRECT
1,AUTOMATION1,3,36,0.5458315541624004,BLACK,1,0.95,BLACK,TRUE,WHITE,8.82572990799963,FALSE,INCORRECT
1,AUTOMATION1,3,37,0.5517132094758588,BLACK,1,0.95,BLACK,TRUE,WHITE,1.1260997549998135,FALSE,INCORRECT
1,AUTOMATION1,3,38,0.5550331839579937,BLACK,1,0.95,BLACK,TRUE,BLACK,1.3658108599993284,TRUE,CORRECT
1,AUTOMATION1,3,39,0.4446185042576552,WHITE,1,0.95,WHITE,TRUE,WHITE,1.1070650250003382,TRUE,CORRECT
1,AUTOMATION1,3,40,0.5673528229420683,BLACK,1,0.95,WHITE,FALSE,WHITE,5.571774153999286,FALSE,INCORRECT
1,AUTOMATION1,3,41,0.563120555959979,BLACK,1,0.95,BLACK,TRUE,BLACK,1.2847499509989575,TRUE,CORRECT
1,AUTOMATION1,3,42,0.5350624719882687,BLACK,1,0.95,BLACK,TRUE,BLACK,3.6987795229997578,TRUE,CORRECT
1,AUTOMATION1,3,43,0.4512808902739977,WHITE,1,0.95,WHITE,TRUE,WHITE,1.7290172519988118,TRUE,CORRECT
1,AUTOMATION1,3,44,0.5655512035428014,BLACK,1,0.95,WHITE,FALSE,BLACK,7.959414107999692,TRUE,CORRECT
1,AUTOMATION1,3,45,0.5341614847197105,BLACK,1,0.95,BLACK,TRUE,WHITE,7.6890028529996925,FALSE,INCORRECT
1,AUTOMATION1,3,46,0.5479274931630689,BLACK,1,0.95,BLACK,TRUE,WHITE,8.60999054399872,FALSE,INCORRECT
1,AUTOMATION1,3,47,0.4271365576569164,WHITE,1,0.95,WHITE,TRUE,WHITE,0.999364807999882,TRUE,CORRECT
1,AUTOMATION1,3,48,0.5593917379535106,BLACK,1,0.95,BLACK,TRUE,BLACK,2.057837936999931,TRUE,CORRECT
1,AUTOMATION1,3,49,0.5662275394832306,BLACK,1,0.95,BLACK,TRUE,WHITE,9.271610427998894,FALSE,INCORRECT
1,AUTOMATION1,3,50,0.5497834839693232,BLACK,1,0.95,BLACK,TRUE,BLACK,2.0831783169996925,TRUE,CORRECT
1,AUTOMATION1,3,51,0.5529826533474816,BLACK,1,0.95,BLACK,TRUE,BLACK,1.9319085480001377,TRUE,CORRECT
1,AUTOMATION1,3,52,0.4482717189774656,WHITE,1,0.95,WHITE,TRUE,WHITE,0.8065623700003925,TRUE,CORRECT
1,AUTOMATION1,3,53,0.5376773128567478,BLACK,1,0.95,BLACK,TRUE,BLACK,1.3489037530016503,TRUE,CORRECT
1,AUTOMATION1,3,54,0.5272241545879495,BLACK,1,0.95,BLACK,TRUE,BLACK,1.0483358959991165,TRUE,CORRECT
1,AUTOMATION1,3,55,0.43198725668693344,WHITE,1,0.95,WHITE,TRUE,WHITE,0.8974215830003232,TRUE,CORRECT
1,AUTOMATION1,3,56,0.560447509391305,BLACK,1,0.95,BLACK,TRUE,BLACK,2.974270513001102,TRUE,CORRECT
1,AUTOMATION1,3,57,0.5416137195731715,BLACK,1,0.95,BLACK,TRUE,BLACK,0.8223129699999845,TRUE,CORRECT
1,AUTOMATION1,3,58,0.43494215719650525,WHITE,1,0.95,WHITE,TRUE,WHITE,0.8622513509999408,TRUE,CORRECT
1,AUTOMATION1,3,59,0.5516409893166732,BLACK,1,0.95,BLACK,TRUE,BLACK,3.301401659000476,TRUE,CORRECT
1,AUTOMATION1,3,60,0.5513032463525603,BLACK,1,0.95,BLACK,TRUE,BLACK,2.0984151149987156,TRUE,CORRECT
1,AUTOMATION1,3,61,0.42725903690254896,WHITE,1,0.95,WHITE,TRUE,WHITE,0.9061580279994814,TRUE,CORRECT
1,AUTOMATION1,3,62,0.5691753465859877,BLACK,1,0.95,WHITE,FALSE,BLACK,2.006629253999563,TRUE,CORRECT
1,AUTOMATION1,3,63,0.5368590670895287,BLACK,1,0.95,BLACK,TRUE,BLACK,1.8183819309997489,TRUE,CORRECT
1,AUTOMATION1,3,64,0.5290445822950693,BLACK,1,0.95,BLACK,TRUE,BLACK,1.6175593660009326,TRUE,CORRECT
1,AUTOMATION1,3,65,0.5566764855997143,BLACK,1,0.95,BLACK,TRUE,BLACK,1.7568620429992734,TRUE,CORRECT
1,AUTOMATION1,3,66,0.4464404521758204,WHITE,1,0.95,WHITE,TRUE,WHITE,1.0303891650000878,TRUE,CORRECT
1,AUTOMATION1,3,67,0.45655752748199085,WHITE,1,0.95,WHITE,TRUE,WHITE,1.1385175509985856,TRUE,CORRECT
1,AUTOMATION1,3,68,0.5634038022744151,BLACK,1,0.95,BLACK,TRUE,BLACK,3.816634400998737,TRUE,CORRECT
1,AUTOMATION1,3,69,0.442833713633345,WHITE,1,0.95,WHITE,TRUE,WHITE,0.8617669939994812,TRUE,CORRECT
1,AUTOMATION1,3,70,0.540418283541848,BLACK,1,0.95,WHITE,FALSE,WHITE,3.412227659000564,FALSE,INCORRECT
1,AUTOMATION1,3,71,0.5201217167984131,BLACK,1,0.95,BLACK,TRUE,WHITE,6.440566420998948,FALSE,INCORRECT
1,AUTOMATION1,3,72,0.4566274159978172,WHITE,1,0.95,WHITE,TRUE,WHITE,0.8424864790013089,TRUE,CORRECT
1,AUTOMATION1,3,73,0.5540906123201099,BLACK,1,0.95,BLACK,TRUE,BLACK,0.9513756540000032,TRUE,CORRECT
1,AUTOMATION1,3,74,0.4349235115087921,WHITE,1,0.95,WHITE,TRUE,WHITE,0.8463511160007329,TRUE,CORRECT
1,AUTOMATION1,3,75,0.4535993840528018,WHITE,1,0.95,WHITE,TRUE,WHITE,1.234374769999704,TRUE,CORRECT
1,AUTOMATION1,3,76,0.4628942494802744,WHITE,1,0.95,WHITE,TRUE,WHITE,2.189624675000232,TRUE,CORRECT
1,AUTOMATION1,3,77,0.532693090285351,BLACK,1,0.95,BLACK,TRUE,BLACK,2.023974445000931,TRUE,CORRECT
1,AUTOMATION1,3,78,0.5306115827777995,BLACK,1,0.95,BLACK,TRUE,BLACK,7.220983454000816,TRUE,CORRECT
1,AUTOMATION1,3,79,0.4539850686185752,WHITE,1,0.95,WHITE,TRUE,WHITE,0.8608096990010381,TRUE,CORRECT
1,AUTOMATION1,3,80,0.5426239999284943,BLACK,1,0.95,WHITE,FALSE,WHITE,8.437045822000073,FALSE,INCORRECT
1,AUTOMATION1,3,81,0.5382634194677969,BLACK,1,0.95,BLACK,TRUE,BLACK,1.897504212000058,TRUE,CORRECT
1,AUTOMATION1,3,82,0.4602289047680058,WHITE,1,0.95,WHITE,TRUE,WHITE,1.6833897859996796,TRUE,CORRECT
1,AUTOMATION1,3,83,0.5458636718610822,BLACK,1,0.95,BLACK,TRUE,BLACK,1.995272415999352,TRUE,CORRECT
1,AUTOMATION1,3,84,0.457795744014646,WHITE,1,0.95,WHITE,TRUE,WHITE,2.4390911160007818,TRUE,CORRECT
1,AUTOMATION1,3,85,0.43481434800327873,WHITE,1,0.95,WHITE,TRUE,WHITE,1.2604720309991535,TRUE,CORRECT
1,AUTOMATION1,3,86,0.5548744779265069,BLACK,1,0.95,BLACK,TRUE,BLACK,1.9806488760004868,TRUE,CORRECT
1,AUTOMATION1,3,87,0.4541346241766424,WHITE,1,0.95,WHITE,TRUE,WHITE,1.0140403299992613,TRUE,CORRECT
1,AUTOMATION1,3,88,0.5476473001579486,BLACK,1,0.95,WHITE,FALSE,BLACK,3.6760024489994976,TRUE,CORRECT
1,AUTOMATION1,3,89,0.4362882237346156,WHITE,1,0.95,WHITE,TRUE,WHITE,0.9977621039997756,TRUE,CORRECT
1,AUTOMATION1,3,90,0.4559977847817557,WHITE,1,0.95,WHITE,TRUE,WHITE,1.4045608839987835,TRUE,CORRECT
1,AUTOMATION1,3,91,0.45105247249831304,WHITE,1,0.95,WHITE,TRUE,WHITE,1.6597383450007328,TRUE,CORRECT
1,AUTOMATION1,3,92,0.5574405317829954,BLACK,1,0.95,BLACK,TRUE,BLACK,4.0521707859988965,TRUE,CORRECT
1,AUTOMATION1,3,93,0.4411671525666484,WHITE,1,0.95,WHITE,TRUE,WHITE,1.1395797090008273,TRUE,CORRECT
1,AUTOMATION1,3,94,0.5440861146647353,BLACK,1,0.95,BLACK,TRUE,BLACK,9.37284094000097,TRUE,CORRECT
1,AUTOMATION1,3,95,0.44035153286916856,WHITE,1,0.95,WHITE,TRUE,WHITE,0.8182142690002365,TRUE,CORRECT
1,AUTOMATION1,3,96,0.4381784321089491,WHITE,1,0.95,WHITE,TRUE,WHITE,2.5467760089995863,TRUE,CORRECT
1,AUTOMATION1,3,97,0.5502115869587572,BLACK,1,0.95,BLACK,TRUE,BLACK,7.986845453000569,TRUE,CORRECT
1,AUTOMATION1,3,98,0.5386332678745721,BLACK,1,0.95,BLACK,TRUE,BLACK,3.904933916999653,TRUE,CORRECT
1,AUTOMATION1,3,99,0.4576726645883026,WHITE,1,0.95,WHITE,TRUE,WHITE,0.7195386469993537,TRUE,CORRECT
1,AUTOMATION1,3,100,0.42533161543413783,WHITE,1,0.95,WHITE,TRUE,WHITE,2.35188621099951,TRUE,CORRECT
1,AUTOMATION1,3,101,0.5417583200403109,BLACK,1,0.95,BLACK,TRUE,BLACK,5.211446858998897,TRUE,CORRECT
1,AUTOMATION1,3,102,0.44952185119904975,WHITE,1,0.95,WHITE,TRUE,WHITE,0.8293340370000806,TRUE,CORRECT
1,AUTOMATION1,3,103,0.4291895258808001,WHITE,1,0.95,WHITE,TRUE,WHITE,1.5353852190000907,TRUE,CORRECT
1,AUTOMATION1,3,104,0.45058195757475106,WHITE,1,0.95,WHITE,TRUE,WHITE,2.856096235998848,TRUE,CORRECT
1,AUTOMATION1,3,105,0.45945527593134194,WHITE,1,0.95,WHITE,TRUE,WHITE,2.473487641000247,TRUE,CORRECT
1,AUTOMATION1,3,106,0.5484257220940844,BLACK,1,0.95,WHITE,FALSE,WHITE,3.459718635000172,FALSE,INCORRECT
1,AUTOMATION1,3,107,0.5393704824242852,BLACK,1,0.95,BLACK,TRUE,BLACK,1.3579983569998149,TRUE,CORRECT
1,AUTOMATION1,3,108,0.5328366475661699,BLACK,1,0.95,BLACK,TRUE,BLACK,9.56995030500002,TRUE,CORRECT
1,AUTOMATION1,3,109,0.4490561563223192,WHITE,1,0.95,WHITE,TRUE,WHITE,2.35636801200053,TRUE,CORRECT
1,AUTOMATION1,3,110,0.5439328883356439,BLACK,1,0.95,BLACK,TRUE,BLACK,1.649369149999984,TRUE,CORRECT
1,AUTOMATION1,3,111,0.575979288630177,BLACK,1,0.95,BLACK,TRUE,BLACK,1.32961031800005,TRUE,CORRECT
1,AUTOMATION1,3,112,0.439069461233546,WHITE,1,0.95,WHITE,TRUE,WHITE,0.7378753879984288,TRUE,CORRECT
1,AUTOMATION1,3,113,0.5533626034446989,BLACK,1,0.95,BLACK,TRUE,BLACK,1.569496897998761,TRUE,CORRECT
1,AUTOMATION1,3,114,0.4525796674772355,WHITE,1,0.95,BLACK,FALSE,WHITE,0.7249374800012447,TRUE,CORRECT
1,AUTOMATION1,3,115,0.5235292713292705,BLACK,1,0.95,BLACK,TRUE,WHITE,3.9159130640000512,FALSE,INCORRECT
1,AUTOMATION1,3,116,0.4534358781694096,WHITE,1,0.95,WHITE,TRUE,WHITE,7.204265643000326,TRUE,CORRECT
1,AUTOMATION1,3,117,0.452133954517436,WHITE,1,0.95,WHITE,TRUE,WHITE,1.5629439620006451,TRUE,CORRECT
1,AUTOMATION1,3,118,0.5341340933617882,BLACK,1,0.95,BLACK,TRUE,BLACK,3.4084107970011246,TRUE,CORRECT
1,AUTOMATION1,3,119,0.5439900523606767,BLACK,1,0.95,BLACK,TRUE,BLACK,0.7305496459994174,TRUE,CORRECT
1,AUTOMATION1,3,120,0.4439935330669097,WHITE,1,0.95,WHITE,TRUE,WHITE,5.682313204999446,TRUE,CORRECT
1,AUTOMATION1,3,121,0.4456782497371152,WHITE,1,0.95,WHITE,TRUE,WHITE,1.2670571159997053,TRUE,CORRECT
1,AUTOMATION1,3,122,0.4636626081726875,WHITE,1,0.95,WHITE,TRUE,WHITE,0.8032286629986629,TRUE,CORRECT
1,AUTOMATION1,3,123,0.45320656089648265,WHITE,1,0.95,WHITE,TRUE,WHITE,1.3101717570007168,TRUE,CORRECT
1,AUTOMATION1,3,124,0.45082915296754905,WHITE,1,0.95,WHITE,TRUE,WHITE,1.530368281999472,TRUE,CORRECT
1,AUTOMATION1,3,125,0.4658793420392406,WHITE,1,0.95,WHITE,TRUE,WHITE,2.850479863998771,TRUE,CORRECT
1,AUTOMATION1,3,126,0.4499552281889897,WHITE,1,0.95,WHITE,TRUE,WHITE,1.3576795589997346,TRUE,CORRECT
1,AUTOMATION1,3,127,0.4706454378992743,WHITE,1,0.95,WHITE,TRUE,WHITE,4.123627192999265,TRUE,CORRECT
1,AUTOMATION1,3,128,0.4563454410651891,WHITE,1,0.95,WHITE,TRUE,WHITE,3.6337919200013857,TRUE,CORRECT
1,AUTOMATION1,3,129,0.45971895189961337,WHITE,1,0.95,WHITE,TRUE,WHITE,1.8175018559995808,TRUE,CORRECT
1,AUTOMATION1,3,130,0.4262998827113437,WHITE,1,0.95,WHITE,TRUE,WHITE,2.000942571999986,TRUE,CORRECT
1,AUTOMATION1,3,131,0.46527906275539,WHITE,1,0.95,WHITE,TRUE,WHITE,8.557832677999613,TRUE,CORRECT
1,AUTOMATION1,3,132,0.5534607952717234,BLACK,1,0.95,BLACK,TRUE,BLACK,2.5576638149996143,TRUE,CORRECT
1,AUTOMATION1,3,133,0.4609236069198671,WHITE,1,0.95,WHITE,TRUE,WHITE,7.125181520999831,TRUE,CORRECT
1,AUTOMATION1,3,134,0.5307599386531494,BLACK,1,0.95,BLACK,TRUE,WHITE,6.961469920001036,FALSE,INCORRECT
1,AUTOMATION1,3,135,0.46355384852522846,WHITE,1,0.95,WHITE,TRUE,WHITE,2.012935803999426,TRUE,CORRECT
1,AUTOMATION1,3,136,0.4564338480503417,WHITE,1,0.95,WHITE,TRUE,WHITE,0.9751668139997492,TRUE,CORRECT
1,AUTOMATION1,3,137,0.4545255157788041,WHITE,1,0.95,WHITE,TRUE,WHITE,1.9592569630003709,TRUE,CORRECT
1,AUTOMATION1,3,138,0.4479929067923094,WHITE,1,0.95,WHITE,TRUE,WHITE,0.8084457109998766,TRUE,CORRECT
1,AUTOMATION1,3,139,0.4461014050944546,WHITE,1,0.95,WHITE,TRUE,WHITE,1.8971142030004555,TRUE,CORRECT
1,AUTOMATION1,3,140,0.4487009139649309,WHITE,1,0.95,WHITE,TRUE,WHITE,0.7470814669995889,TRUE,CORRECT
1,AUTOMATION1,3,141,0.4672418765653557,WHITE,1,0.95,WHITE,TRUE,WHITE,3.6032128579990967,TRUE,CORRECT
1,AUTOMATION1,3,142,0.4665144662394516,WHITE,1,0.95,BLACK,FALSE,WHITE,2.6685087440000643,TRUE,CORRECT
1,AUTOMATION1,3,143,0.5523479548433925,BLACK,1,0.95,BLACK,TRUE,BLACK,3.1997081239987892,TRUE,CORRECT
1,AUTOMATION1,3,144,0.4351676219274328,WHITE,1,0.95,WHITE,TRUE,WHITE,1.321403600000849,TRUE,CORRECT
1,AUTOMATION1,3,145,0.45875212679412536,WHITE,1,0.95,WHITE,TRUE,WHITE,2.7018884799999796,TRUE,CORRECT
1,AUTOMATION1,3,146,0.5430194437456349,BLACK,1,0.95,BLACK,TRUE,BLACK,5.8003195189994585,TRUE,CORRECT
1,AUTOMATION1,3,147,0.5633856500303296,BLACK,1,0.95,BLACK,TRUE,BLACK,4.751133596000727,TRUE,CORRECT
1,AUTOMATION1,3,148,0.5417368053094471,BLACK,1,0.95,BLACK,TRUE,BLACK,1.139386206999916,TRUE,CORRECT
1,AUTOMATION1,3,149,0.5305056235267377,BLACK,1,0.95,WHITE,FALSE,BLACK,4.468818045999797,TRUE,CORRECT
1,AUTOMATION1,3,150,0.567599578811583,BLACK,1,0.95,BLACK,TRUE,BLACK,1.7700195939996777,TRUE,CORRECT
1,AUTOMATION1,3,151,0.4616968939116084,WHITE,1,0.95,WHITE,TRUE,WHITE,1.2683722699985085,TRUE,CORRECT
1,AUTOMATION1,3,152,0.5610221021810634,BLACK,1,0.95,BLACK,TRUE,BLACK,3.367131122000501,TRUE,CORRECT
1,AUTOMATION1,3,153,0.45996335877815864,WHITE,1,0.95,WHITE,TRUE,WHITE,1.8953255090000312,TRUE,CORRECT
1,AUTOMATION1,3,154,0.4641366857878284,WHITE,1,0.95,WHITE,TRUE,WHITE,1.0824349550002808,TRUE,CORRECT
1,AUTOMATION1,3,155,0.4692965442298918,WHITE,1,0.95,WHITE,TRUE,WHITE,2.6283191719994647,TRUE,CORRECT
1,AUTOMATION1,3,156,0.5438331610064872,BLACK,1,0.95,BLACK,TRUE,BLACK,4.397903385000973,TRUE,CORRECT
1,AUTOMATION1,3,157,0.46839263220211186,WHITE,1,0.95,WHITE,TRUE,WHITE,0.8759713800009195,TRUE,CORRECT
1,AUTOMATION1,3,158,0.5537762279987894,BLACK,1,0.95,BLACK,TRUE,BLACK,1.18816649800101,TRUE,CORRECT
1,AUTOMATION1,3,159,0.5741742069179819,BLACK,1,0.95,BLACK,TRUE,BLACK,0.7940928939988225,TRUE,CORRECT
1,AUTOMATION1,3,160,0.5597069859452265,BLACK,1,0.95,BLACK,TRUE,BLACK,1.390002543999799,TRUE,CORRECT
1,AUTOMATION1,3,161,0.5371873637535323,BLACK,1,0.95,BLACK,TRUE,BLACK,1.0853834610006745,TRUE,CORRECT
1,AUTOMATION1,3,162,0.4522923249904451,WHITE,1,0.95,WHITE,TRUE,WHITE,1.5417885189999652,TRUE,CORRECT
1,AUTOMATION1,3,163,0.5503932679058751,BLACK,1,0.95,WHITE,FALSE,BLACK,3.531138385000304,TRUE,CORRECT
1,AUTOMATION1,3,164,0.5476549496616296,BLACK,1,0.95,BLACK,TRUE,BLACK,2.2673548820002907,TRUE,CORRECT
1,AUTOMATION1,3,165,0.5719660751771106,BLACK,1,0.95,BLACK,TRUE,BLACK,2.152436491000117,TRUE,CORRECT
1,AUTOMATION1,3,166,0.5515551931385801,BLACK,1,0.95,BLACK,TRUE,WHITE,0.7768826130013622,FALSE,INCORRECT
1,AUTOMATION1,3,167,0.4601623215479377,WHITE,1,0.95,WHITE,TRUE,WHITE,0.7802172219999193,TRUE,CORRECT
1,AUTOMATION1,3,168,0.4293738497295141,WHITE,1,0.95,WHITE,TRUE,WHITE,1.1389805729995717,TRUE,CORRECT
1,AUTOMATION1,3,169,0.5594152138905266,BLACK,1,0.95,BLACK,TRUE,BLACK,0.9156705860004876,TRUE,CORRECT
1,AUTOMATION1,3,170,0.44362096302724335,WHITE,1,0.95,WHITE,TRUE,WHITE,0.8143069660000037,TRUE,CORRECT
1,AUTOMATION1,3,171,0.4621964323596569,WHITE,1,0.95,WHITE,TRUE,WHITE,0.8751015210000332,TRUE,CORRECT
1,AUTOMATION1,3,172,0.540786858234826,BLACK,1,0.95,BLACK,TRUE,WHITE,2.030507849998685,FALSE,INCORRECT
1,AUTOMATION1,3,173,0.4680434464779215,WHITE,1,0.95,WHITE,TRUE,WHITE,1.4611575819999416,TRUE,CORRECT
1,AUTOMATION1,3,174,0.5451110558678273,BLACK,1,0.95,BLACK,TRUE,BLACK,3.3897125919993414,TRUE,CORRECT
1,AUTOMATION1,3,175,0.4531231241403683,WHITE,1,0.95,WHITE,TRUE,WHITE,2.0639542900007655,TRUE,CORRECT
1,AUTOMATION1,3,176,0.5640850593552813,BLACK,1,0.95,BLACK,TRUE,BLACK,2.261737308001102,TRUE,CORRECT
1,AUTOMATION1,3,177,0.5594425852414296,BLACK,1,0.95,BLACK,TRUE,BLACK,0.7739106709996122,TRUE,CORRECT
1,AUTOMATION1,3,178,0.4468424425990631,WHITE,1,0.95,BLACK,FALSE,WHITE,6.255983319999359,TRUE,CORRECT
1,AUTOMATION1,3,179,0.5603522668301175,BLACK,1,0.95,BLACK,TRUE,BLACK,1.382749516998956,TRUE,CORRECT
1,AUTOMATION1,3,180,0.56159980852821,BLACK,1,0.95,BLACK,TRUE,BLACK,1.431285824999577,TRUE,CORRECT
1,AUTOMATION1,3,181,0.567210310399871,BLACK,1,0.95,BLACK,TRUE,BLACK,0.9028558710015204,TRUE,CORRECT
1,AUTOMATION1,3,182,0.45485691505251086,WHITE,1,0.95,WHITE,TRUE,WHITE,1.8778796599999623,TRUE,CORRECT
1,AUTOMATION1,3,183,0.5643679445807297,BLACK,1,0.95,BLACK,TRUE,BLACK,9.66699467899889,TRUE,CORRECT
1,AUTOMATION1,3,184,0.449836439141901,WHITE,1,0.95,WHITE,TRUE,WHITE,0.8183954520009138,TRUE,CORRECT
1,AUTOMATION1,3,185,0.5614051099531017,BLACK,1,0.95,BLACK,TRUE,BLACK,4.908265218999077,TRUE,CORRECT
1,AUTOMATION1,3,186,0.4230817294051178,WHITE,1,0.95,WHITE,TRUE,WHITE,0.6843500870018033,TRUE,CORRECT
1,AUTOMATION1,3,187,0.5561073052016992,BLACK,1,0.95,BLACK,TRUE,BLACK,3.950494979002542,TRUE,CORRECT
1,AUTOMATION1,3,188,0.5362736647587835,BLACK,1,0.95,BLACK,TRUE,BLACK,2.2414892819979286,TRUE,CORRECT
1,AUTOMATION1,3,189,0.5338450718670334,BLACK,1,0.95,BLACK,TRUE,BLACK,0.7610857400031819,TRUE,CORRECT
1,AUTOMATION1,3,190,0.5438024397783544,BLACK,1,0.95,BLACK,TRUE,BLACK,2.701956085002166,TRUE,CORRECT
1,AUTOMATION1,3,191,0.450126424755359,WHITE,1,0.95,BLACK,FALSE,WHITE,1.5936197749979328,TRUE,CORRECT
1,AUTOMATION1,3,192,0.461023034203296,WHITE,1,0.95,WHITE,TRUE,WHITE,0.7295698159978201,TRUE,CORRECT
1,AUTOMATION1,3,193,0.46313076063013064,WHITE,1,0.95,WHITE,TRUE,WHITE,0.7115152149999631,TRUE,CORRECT
1,AUTOMATION1,3,194,0.5527481006433874,BLACK,1,0.95,BLACK,TRUE,WHITE,4.198853890000464,FALSE,INCORRECT
1,AUTOMATION1,3,195,0.5447500748635957,BLACK,1,0.95,BLACK,TRUE,BLACK,1.8846681630020612,TRUE,CORRECT
1,AUTOMATION1,3,196,0.5484883836268782,BLACK,1,0.95,BLACK,TRUE,BLACK,0.6874969019991113,TRUE,CORRECT
1,AUTOMATION1,3,197,0.5517333489172119,BLACK,1,0.95,BLACK,TRUE,BLACK,3.5175643840011617,TRUE,CORRECT
1,AUTOMATION1,3,198,0.43363728016765446,WHITE,1,0.95,WHITE,TRUE,WHITE,1.0380421180016128,TRUE,CORRECT
1,AUTOMATION1,3,199,0.4589740053856098,WHITE,1,0.95,WHITE,TRUE,WHITE,0.5827166449998913,TRUE,CORRECT
1,AUTOMATION1,3,200,0.4497841281596951,WHITE,1,0.95,WHITE,TRUE,WHITE,1.0269328659996972,TRUE,CORRECT
1,AUTOMATION1,3,201,0.555563068123337,BLACK,1,0.95,WHITE,FALSE,WHITE,7.264599277001253,FALSE,INCORRECT
1,AUTOMATION1,3,202,0.45919978619644497,WHITE,1,0.95,WHITE,TRUE,WHITE,1.2273356759978924,TRUE,CORRECT
1,AUTOMATION1,3,203,0.4572703808872575,WHITE,1,0.95,WHITE,TRUE,WHITE,1.6967219100006332,TRUE,CORRECT
1,AUTOMATION1,3,204,0.5435355785280617,BLACK,1,0.95,BLACK,TRUE,BLACK,2.412145629998122,TRUE,CORRECT
1,AUTOMATION1,3,205,0.43315783988824424,WHITE,1,0.95,WHITE,TRUE,WHITE,1.232584574001521,TRUE,CORRECT
1,AUTOMATION1,3,206,0.5355706641619321,BLACK,1,0.95,BLACK,TRUE,BLACK,1.492793695000728,TRUE,CORRECT
1,AUTOMATION1,3,207,0.47158537846357235,WHITE,1,0.95,WHITE,TRUE,WHITE,6.235680008001509,TRUE,CORRECT
1,AUTOMATION1,3,208,0.45394206068803744,WHITE,1,0.95,WHITE,TRUE,WHITE,1.841346800003521,TRUE,CORRECT
1,AUTOMATION1,3,209,0.43848897351468374,WHITE,1,0.95,WHITE,TRUE,WHITE,0.6727988439997716,TRUE,CORRECT
1,AUTOMATION1,3,210,0.5532406552872984,BLACK,1,0.95,BLACK,TRUE,BLACK,3.2688842700008536,TRUE,CORRECT
1,AUTOMATION1,3,211,0.5592024703239937,BLACK,1,0.95,BLACK,TRUE,BLACK,0.7356606280009146,TRUE,CORRECT
1,AUTOMATION1,3,212,0.5579298465078528,BLACK,1,0.95,BLACK,TRUE,BLACK,0.7201924689979933,TRUE,CORRECT
1,AUTOMATION1,3,213,0.4298316796208802,WHITE,1,0.95,WHITE,TRUE,WHITE,0.8205462109981454,TRUE,CORRECT
1,AUTOMATION1,3,214,0.54152548974984,BLACK,1,0.95,BLACK,TRUE,BLACK,1.4701464220015623,TRUE,CORRECT
1,AUTOMATION1,3,215,0.4559510159835166,WHITE,1,0.95,WHITE,TRUE,WHITE,3.1670840690021578,TRUE,CORRECT
1,AUTOMATION1,3,216,0.4349320316940016,WHITE,1,0.95,WHITE,TRUE,WHITE,0.90333001199906,TRUE,CORRECT
1,AUTOMATION1,3,217,0.5503956869081851,BLACK,1,0.95,BLACK,TRUE,BLACK,1.0050229459993716,TRUE,CORRECT
1,AUTOMATION1,3,218,0.5317972313792277,BLACK,1,0.95,BLACK,TRUE,WHITE,4.795787240000209,FALSE,INCORRECT
1,AUTOMATION1,3,219,0.4340508642305768,WHITE,1,0.95,WHITE,TRUE,WHITE,2.0533191789982084,TRUE,CORRECT
1,AUTOMATION1,3,220,0.4788919285459857,WHITE,1,0.95,WHITE,TRUE,WHITE,4.048935932998575,TRUE,CORRECT
1,AUTOMATION1,3,221,0.5579023329033034,BLACK,1,0.95,BLACK,TRUE,BLACK,2.8717296550021274,TRUE,CORRECT
1,AUTOMATION1,3,222,0.5549398364934093,BLACK,1,0.95,BLACK,TRUE,BLACK,4.964224923001893,TRUE,CORRECT
1,AUTOMATION1,3,223,0.5476115308466081,BLACK,1,0.95,BLACK,TRUE,BLACK,1.756861140998808,TRUE,CORRECT
1,AUTOMATION1,3,224,0.548473401500936,BLACK,1,0.95,BLACK,TRUE,BLACK,1.1373312980031187,TRUE,CORRECT
1,AUTOMATION1,3,225,0.5452138318729202,BLACK,1,0.95,BLACK,TRUE,BLACK,1.638342227000976,TRUE,CORRECT
1,AUTOMATION1,3,226,0.5673739122770398,BLACK,1,0.95,BLACK,TRUE,BLACK,0.7910440319974441,TRUE,CORRECT
1,AUTOMATION1,3,227,0.46355349720876543,WHITE,1,0.95,WHITE,TRUE,WHITE,1.3223170269993716,TRUE,CORRECT
1,AUTOMATION1,3,228,0.5550542372235571,BLACK,1,0.95,WHITE,FALSE,WHITE,1.4866376790014328,FALSE,INCORRECT
1,AUTOMATION1,3,229,0.45739735346575433,WHITE,1,0.95,WHITE,TRUE,WHITE,1.565530102001503,TRUE,CORRECT
1,AUTOMATION1,3,230,0.4559565309499435,WHITE,1,0.95,WHITE,TRUE,WHITE,1.7223693679989085,TRUE,CORRECT
1,AUTOMATION1,3,231,0.44170033942842585,WHITE,1,0.95,WHITE,TRUE,WHITE,2.2369993700012856,TRUE,CORRECT
1,AUTOMATION1,3,232,0.5448226323945101,BLACK,1,0.95,BLACK,TRUE,WHITE,7.475647713999933,FALSE,INCORRECT
1,AUTOMATION1,3,233,0.46176333053999674,WHITE,1,0.95,WHITE,TRUE,WHITE,0.8528310369983956,TRUE,CORRECT
1,AUTOMATION1,3,234,0.4389074655203889,WHITE,1,0.95,WHITE,TRUE,WHITE,1.073492086998158,TRUE,CORRECT
1,AUTOMATION1,3,235,0.5708766233146566,BLACK,1,0.95,BLACK,TRUE,BLACK,0.7743045860006532,TRUE,CORRECT
1,AUTOMATION1,3,236,0.5715083232526643,BLACK,1,0.95,BLACK,TRUE,BLACK,1.6784431599990055,TRUE,CORRECT
1,AUTOMATION1,3,237,0.4692023332786267,WHITE,1,0.95,WHITE,TRUE,WHITE,1.344869350999943,TRUE,CORRECT
1,AUTOMATION1,3,238,0.5538901856330259,BLACK,1,0.95,BLACK,TRUE,WHITE,1.17738836299759,FALSE,INCORRECT
1,AUTOMATION1,3,239,0.45487220249639576,WHITE,1,0.95,WHITE,TRUE,WHITE,1.2698935459993663,TRUE,CORRECT
1,AUTOMATION1,3,240,0.4433259508518109,WHITE,1,0.95,WHITE,TRUE,WHITE,0.6882396609980788,TRUE,CORRECT
1,AUTOMATION1,3,241,0.4628220266781267,WHITE,1,0.95,WHITE,TRUE,WHITE,0.7624489690024348,TRUE,CORRECT
1,AUTOMATION1,3,242,0.4578628151187169,WHITE,1,0.95,WHITE,TRUE,WHITE,0.6426161029994546,TRUE,CORRECT
1,AUTOMATION1,3,243,0.5682857220175668,BLACK,1,0.95,BLACK,TRUE,BLACK,2.7916374579981493,TRUE,CORRECT
1,AUTOMATION1,3,244,0.5406301396422427,BLACK,1,0.95,BLACK,TRUE,BLACK,0.5966770500017446,TRUE,CORRECT
1,AUTOMATION1,3,245,0.5297910357716955,BLACK,1,0.95,BLACK,TRUE,BLACK,1.4110774619985025,TRUE,CORRECT
1,AUTOMATION1,3,246,0.4343917458956045,WHITE,1,0.95,WHITE,TRUE,WHITE,0.9361265359984828,TRUE,CORRECT
1,AUTOMATION1,3,247,0.4540885331443611,WHITE,1,0.95,WHITE,TRUE,WHITE,2.13956919300108,TRUE,CORRECT
1,AUTOMATION1,3,248,0.461295404885075,WHITE,1,0.95,WHITE,TRUE,WHITE,2.013150940998458,TRUE,CORRECT
1,AUTOMATION1,3,249,0.565964524776355,BLACK,1,0.95,BLACK,TRUE,BLACK,1.7577568410015374,TRUE,CORRECT
1,AUTOMATION1,3,250,0.4449852627095268,WHITE,1,0.95,WHITE,TRUE,WHITE,1.3212115999995149,TRUE,CORRECT
1,AUTOMATION1,3,251,0.5327022187869974,BLACK,1,0.95,BLACK,TRUE,BLACK,3.480741871000646,TRUE,CORRECT
1,AUTOMATION1,3,252,0.4511457860221507,WHITE,1,0.95,WHITE,TRUE,WHITE,2.2504015019985673,TRUE,CORRECT
1,AUTOMATION1,3,253,0.4545759837398533,WHITE,1,0.95,WHITE,TRUE,WHITE,1.0444943959992088,TRUE,CORRECT
1,AUTOMATION1,3,254,0.5491987776996741,BLACK,1,0.95,BLACK,TRUE,BLACK,0.8990849809997599,TRUE,CORRECT
1,AUTOMATION1,3,255,0.4582439875343497,WHITE,1,0.95,WHITE,TRUE,WHITE,0.768959838002047,TRUE,CORRECT
1,AUTOMATION1,3,256,0.4421161540259528,WHITE,1,0.95,WHITE,TRUE,WHITE,3.4177184350010066,TRUE,CORRECT
1,AUTOMATION1,3,257,0.4482711920499934,WHITE,1,0.95,WHITE,TRUE,WHITE,1.1579987779987275,TRUE,CORRECT
1,AUTOMATION1,3,258,0.5464396514343901,BLACK,1,0.95,BLACK,TRUE,BLACK,1.864594409998972,TRUE,CORRECT
1,AUTOMATION1,3,259,0.5419608751471499,BLACK,1,0.95,BLACK,TRUE,BLACK,1.6615919409996422,TRUE,CORRECT
1,AUTOMATION1,3,260,0.4398251817189642,WHITE,1,0.95,WHITE,TRUE,WHITE,1.3373666330007836,TRUE,CORRECT
1,AUTOMATION1,3,261,0.55141745864111,BLACK,1,0.95,BLACK,TRUE,BLACK,1.2430916850025824,TRUE,CORRECT
1,AUTOMATION1,3,262,0.5390727381828302,BLACK,1,0.95,BLACK,TRUE,WHITE,2.4378219339996576,FALSE,INCORRECT
1,AUTOMATION1,3,263,0.5629115151821587,BLACK,1,0.95,BLACK,TRUE,BLACK,1.052030165999895,TRUE,CORRECT
1,AUTOMATION1,3,264,0.4387649361486111,WHITE,1,0.95,WHITE,TRUE,WHITE,0.8406196640025883,TRUE,CORRECT
1,AUTOMATION1,3,265,0.4476227454428249,WHITE,1,0.95,WHITE,TRUE,WHITE,2.110109981000278,TRUE,CORRECT
1,AUTOMATION1,3,266,0.43817153827978766,WHITE,1,0.95,WHITE,TRUE,WHITE,1.6371027910026896,TRUE,CORRECT
1,AUTOMATION1,3,267,0.44962964294620766,WHITE,1,0.95,WHITE,TRUE,WHITE,2.137308461999055,TRUE,CORRECT
1,AUTOMATION1,3,268,0.4305473999689494,WHITE,1,0.95,WHITE,TRUE,WHITE,1.2593008020012348,TRUE,CORRECT
1,AUTOMATION1,3,269,0.5568887223820471,BLACK,1,0.95,BLACK,TRUE,BLACK,0.8254546770003799,TRUE,CORRECT
1,AUTOMATION1,3,270,0.5485577219245592,BLACK,1,0.95,BLACK,TRUE,BLACK,1.3395705760012788,TRUE,CORRECT
1,AUTOMATION1,3,271,0.48176653053233903,WHITE,1,0.95,BLACK,FALSE,BLACK,1.7133132239978297,FALSE,INCORRECT
1,AUTOMATION1,3,272,0.5528495651089785,BLACK,1,0.95,BLACK,TRUE,BLACK,0.8920413790001476,TRUE,CORRECT
1,AUTOMATION1,3,273,0.4448932830878748,WHITE,1,0.95,WHITE,TRUE,WHITE,0.7172890330002701,TRUE,CORRECT
1,AUTOMATION1,3,274,0.5511540978468037,BLACK,1,0.95,BLACK,TRUE,BLACK,1.017782975002774,TRUE,CORRECT
