participant_id,run_timestamp,key_black,key_white,keymap_flip,block,block_idx,trial,global_trial,difficulty_mode,delta_fixed_mean,delta_fixed_sd,delta_stair_realised,delta_stair_mean,delta_step_down_used,delta_step_up_used,vblack_prop,n_vblack,n_vwhite,auto_on,aid_accuracy_setting,stimulus,aid_label,aid_correct,aid_onset_ms,aid_onset_ms_rel,response,correct,feedback,rt_s,rt_ms
3,20260325_121052,D,J,False,AUTOMATION2,4,1,1301,fixed_delta,0.03626602127557052,0.01404684716676857,,,,,0.46159104315234606,1662,1938,1,0.65,WHITE,WHITE,True,0,0.0015000005078036338,WHITE,True,CORRECT,1.170016799998848,1170.016799998848
3,20260325_121052,D,J,False,AUTOMATION2,4,2,1302,fixed_delta,0.03626602127557052,0.01404684716676857,,,,,0.48532856292780585,1747,1853,1,0.65,WHITE,BLACK,False,0,0.0015999994502635673,BLACK,False,INCORRECT,2.0507739999993646,2050.7739999993646
3,20260325_121052,D,J,False,AUTOMATION2,4,3,1303,fixed_delta,0.03626602127557052,0.01404684716676857,,,,,0.4561099151416968,1642,1958,1,0.65,WHITE,BLACK,False,0,0.0018999999156221747,WHITE,True,CORRECT,1.9916923999990104,1991.6923999990104
3,20260325_121052,D,J,False,AUTOMATION2,4,4,1304,fixed_delta,0.03626602127557052,0.01404684716676857,,,,,0.5604023029592766,2017,1583,1,0.65,BLACK,BLACK,True,0,0.0015999994502635673,BLACK,True,CORRECT,0.8262957999995706,826.2957999995706
3,20260325_121052,D,J,False,AUTOMATION2,4,5,1305,fixed_delta,0.03626602127557052,0.01404684716676857,,,,,0.4500581768538712,1620,1980,1,0.65,WHITE,BLACK,False,0,0.0014999986888142303,WHITE,True,CORRECT,2.5473512999997183,2547.3512999997183
3,20260325_121052,D,J,False,AUTOMATION2,4,6,1306,fixed_delta,0.03626602127557052,0.01404684716676857,,,,,0.44462698735588385,1601,1999,1,0.65,WHITE,WHITE,True,0,0.0018000009731622413,WHITE,True,CORRECT,1.2886591000005865,1288.6591000005865
3,20260325_121052,D,J,False,AUTOMATION2,4,7,1307,fixed_delta,0.03626602127557052,0.01404684716676857,,,,,0.45179869530951877,1626,1974,1,0.65,WHITE,BLACK,False,0,0.002099999619531445,WHITE,True,CORRECT,2.9927287999998953,2992.7287999998953
3,20260325_121052,D,J,False,AUTOMATION2,4,8,1308,fixed_delta,0.03626602127557052,0.01404684716676857,,,,,0.4725426692983318,1701,1899,1,0.65,WHITE,WHITE,True,0,0.0013999997463542968,WHITE,True,CORRECT,1.5310455999988335,1531.0455999988335
3,20260325_121052,D,J,False,AUTOMATION2,4,9,1309,fixed_delta,0.03626602127557052,0.01404684716676857,,,,,0.5339562765038516,1922,1678,1,0.65,BLACK,WHITE,False,0,0.0013999997463542968,WHITE,False,INCORRECT,3.367165900001055,3367.165900001055
3,20260325_121052,D,J,False,AUTOMATION2,4,10,1310,fixed_delta,0.03626602127557052,0.01404684716676857,,,,,0.5251619424066069,1891,1709,1,0.65,BLACK,WHITE,False,0,0.0015000005078036338,BLACK,True,CORRECT,1.7013566000005085,1701.3566000005085
3,20260325_121052,D,J,False,AUTOMATION2,4,11,1311,fixed_delta,0.03626602127557052,0.01404684716676857,,,,,0.4720069675603066,1699,1901,1,0.65,WHITE,WHITE,True,0,0.0012999989849049598,WHITE,True,CORRECT,2.934084000000439,2934.084000000439
3,20260325_121052,D,J,False,AUTOMATION2,4,12,1312,fixed_delta,0.03626602127557052,0.01404684716676857,,,,,0.4471764759936518,1610,1990,1,0.65,WHITE,BLACK,False,0,0.0016000012692529708,WHITE,True,CORRECT,1.4047196000010445,1404.7196000010445
3,20260325_121052,D,J,False,AUTOMATION2,4,13,1313,fixed_delta,0.03626602127557052,0.01404684716676857,,,,,0.5449909697002332,1962,1638,1,0.65,BLACK,BLACK,True,0,0.0015000005078036338,BLACK,True,CORRECT,1.7055206000004546,1705.5206000004546
3,20260325_121052,D,J,False,AUTOMATION2,4,14,1314,fixed_delta,0.03626602127557052,0.01404684716676857,,,,,0.547463904010557,1971,1629,1,0.65,BLACK,WHITE,False,0,0.0015999994502635673,BLACK,True,CORRECT,1.7079319000004034,1707.9319000004034
3,20260325_121052,D,J,False,AUTOMATION2,4,15,1315,fixed_delta,0.03626602127557052,0.01404684716676857,,,,,0.5456875741351108,1964,1636,1,0.65,BLACK,BLACK,True,0,0.0013999997463542968,BLACK,True,CORRECT,0.9728175999989617,972.8175999989617
3,20260325_121052,D,J,False,AUTOMATION2,4,16,1316,fixed_delta,0.03626602127557052,0.01404684716676857,,,,,0.5403720171415567,1945,1655,1,0.65,BLACK,WHITE,False,0,0.0024000000848900527,BLACK,True,CORRECT,2.1095086999994237,2109.5086999994237
3,20260325_121052,D,J,False,AUTOMATION2,4,17,1317,fixed_delta,0.03626602127557052,0.01404684716676857,,,,,0.43703060195207266,1573,2027,1,0.65,WHITE,WHITE,True,0,0.0013999997463542968,WHITE,True,CORRECT,1.0403783999990992,1040.3783999990992
3,20260325_121052,D,J,False,AUTOMATION2,4,18,1318,fixed_delta,0.03626602127557052,0.01404684716676857,,,,,0.4424295341354602,1593,2007,1,0.65,WHITE,BLACK,False,0,0.0015000005078036338,WHITE,True,CORRECT,1.2183267999989766,1218.3267999989766
3,20260325_121052,D,J,False,AUTOMATION2,4,19,1319,fixed_delta,0.03626602127557052,0.01404684716676857,,,,,0.5648837175743773,2034,1566,1,0.65,BLACK,BLACK,True,0,0.0015999994502635673,WHITE,False,INCORRECT,1.1967191000003368,1196.7191000003368
3,20260325_121052,D,J,False,AUTOMATION2,4,20,1320,fixed_delta,0.03626602127557052,0.01404684716676857,,,,,0.545548226050202,1964,1636,1,0.65,BLACK,BLACK,True,0,0.0017000002117129043,BLACK,True,CORRECT,0.8768113999994966,876.8113999994966
3,20260325_121052,D,J,False,AUTOMATION2,4,21,1321,fixed_delta,0.03626602127557052,0.01404684716676857,,,,,0.4696692126103753,1691,1909,1,0.65,WHITE,WHITE,True,0,0.0018000009731622413,WHITE,True,CORRECT,0.6623324000011053,662.3324000011053
3,20260325_121052,D,J,False,AUTOMATION2,4,22,1322,fixed_delta,0.03626602127557052,0.01404684716676857,,,,,0.4914092116113703,1769,1831,1,0.65,WHITE,BLACK,False,0,0.0015000005078036338,BLACK,False,INCORRECT,1.253387599999769,1253.387599999769
3,20260325_121052,D,J,False,AUTOMATION2,4,23,1323,fixed_delta,0.03626602127557052,0.01404684716676857,,,,,0.49187444332700525,1771,1829,1,0.65,WHITE,BLACK,False,0,0.0013999997463542968,BLACK,False,INCORRECT,3.0290168000010453,3029.0168000010453
3,20260325_121052,D,J,False,AUTOMATION2,4,24,1324,fixed_delta,0.03626602127557052,0.01404684716676857,,,,,0.5461525924058203,1966,1634,1,0.65,BLACK,WHITE,False,0,0.0013999997463542968,BLACK,True,CORRECT,2.0234099000008428,2023.4099000008428
3,20260325_121052,D,J,False,AUTOMATION2,4,25,1325,fixed_delta,0.03626602127557052,0.01404684716676857,,,,,0.5211886334500516,1876,1724,1,0.65,BLACK,BLACK,True,0,0.0015999994502635673,WHITE,False,INCORRECT,1.7038026999998692,1703.8026999998692
3,20260325_121052,D,J,False,AUTOMATION2,4,26,1326,fixed_delta,0.03626602127557052,0.01404684716676857,,,,,0.4817629353587769,1734,1866,1,0.65,WHITE,WHITE,True,0,0.0015999994502635673,WHITE,True,CORRECT,1.1383117000004859,1138.3117000004859
3,20260325_121052,D,J,False,AUTOMATION2,4,27,1327,fixed_delta,0.03626602127557052,0.01404684716676857,,,,,0.5511942995999917,1984,1616,1,0.65,BLACK,BLACK,True,0,0.0013000008038943633,BLACK,True,CORRECT,0.8790575000002718,879.0575000002718
3,20260325_121052,D,J,False,AUTOMATION2,4,28,1328,fixed_delta,0.03626602127557052,0.01404684716676857,,,,,0.45842151227556455,1650,1950,1,0.65,WHITE,WHITE,True,0,0.0015999994502635673,WHITE,True,CORRECT,2.0862694999996165,2086.2694999996165
3,20260325_121052,D,J,False,AUTOMATION2,4,29,1329,fixed_delta,0.03626602127557052,0.01404684716676857,,,,,0.5284366863163145,1902,1698,1,0.65,BLACK,BLACK,True,0,0.0015999994502635673,BLACK,True,CORRECT,0.9547453999985009,954.745399998501
3,20260325_121052,D,J,False,AUTOMATION2,4,30,1330,fixed_delta,0.03626602127557052,0.01404684716676857,,,,,0.4470358296158085,1609,1991,1,0.65,WHITE,WHITE,True,0,0.0013999997463542968,WHITE,True,CORRECT,1.1330863000002864,1133.0863000002864
3,20260325_121052,D,J,False,AUTOMATION2,4,31,1331,fixed_delta,0.03626602127557052,0.01404684716676857,,,,,0.4504780149147007,1622,1978,1,0.65,WHITE,BLACK,False,0,0.001999998858082108,BLACK,False,INCORRECT,0.9872236999999586,987.2236999999586
3,20260325_121052,D,J,False,AUTOMATION2,4,32,1332,fixed_delta,0.03626602127557052,0.01404684716676857,,,,,0.44686329934687374,1609,1991,1,0.65,WHITE,WHITE,True,0,0.0017999991541728377,WHITE,True,CORRECT,0.8246881999984907,824.6881999984907
3,20260325_121052,D,J,False,AUTOMATION2,4,33,1333,fixed_delta,0.03626602127557052,0.01404684716676857,,,,,0.4441165073689423,1599,2001,1,0.65,WHITE,WHITE,True,0,0.0015000005078036338,WHITE,True,CORRECT,2.158824600001026,2158.824600001026
3,20260325_121052,D,J,False,AUTOMATION2,4,34,1334,fixed_delta,0.03626602127557052,0.01404684716676857,,,,,0.47116924743023486,1696,1904,1,0.65,WHITE,WHITE,True,0,0.0014999986888142303,WHITE,True,CORRECT,2.69031989999894,2690.31989999894
3,20260325_121052,D,J,False,AUTOMATION2,4,35,1335,fixed_delta,0.03626602127557052,0.01404684716676857,,,,,0.45297525678292344,1631,1969,1,0.65,WHITE,WHITE,True,0,0.0016000012692529708,WHITE,True,CORRECT,0.7943820000000414,794.3820000000414
3,20260325_121052,D,J,False,AUTOMATION2,4,36,1336,fixed_delta,0.03626602127557052,0.01404684716676857,,,,,0.46385033301462264,1670,1930,1,0.65,WHITE,BLACK,False,0,0.0015000005078036338,WHITE,True,CORRECT,1.98773970000002,1987.73970000002
3,20260325_121052,D,J,False,AUTOMATION2,4,37,1337,fixed_delta,0.03626602127557052,0.01404684716676857,,,,,0.4851313751091001,1746,1854,1,0.65,WHITE,BLACK,False,0,0.0013999997463542968,BLACK,False,INCORRECT,1.0736116999996739,1073.6116999996739
3,20260325_121052,D,J,False,AUTOMATION2,4,38,1338,fixed_delta,0.03626602127557052,0.01404684716676857,,,,,0.5457450554233734,1965,1635,1,0.65,BLACK,WHITE,False,0,0.0013999997463542968,WHITE,False,INCORRECT,3.7401303999995434,3740.1303999995434
3,20260325_121052,D,J,False,AUTOMATION2,4,39,1339,fixed_delta,0.03626602127557052,0.01404684716676857,,,,,0.4892246988224461,1761,1839,1,0.65,WHITE,WHITE,True,0,0.0014999986888142303,WHITE,True,CORRECT,3.1901615999995556,3190.1615999995556
3,20260325_121052,D,J,False,AUTOMATION2,4,40,1340,fixed_delta,0.03626602127557052,0.01404684716676857,,,,,0.46464924204542835,1673,1927,1,0.65,WHITE,WHITE,True,0,0.0015999994502635673,WHITE,True,CORRECT,0.7561587000000145,756.1587000000145
3,20260325_121052,D,J,False,AUTOMATION2,4,41,1341,fixed_delta,0.03626602127557052,0.01404684716676857,,,,,0.5530635536975145,1991,1609,1,0.65,BLACK,BLACK,True,0,0.0017999991541728377,BLACK,True,CORRECT,0.9228423999993538,922.8423999993538
3,20260325_121052,D,J,False,AUTOMATION2,4,42,1342,fixed_delta,0.03626602127557052,0.01404684716676857,,,,,0.5230332084565544,1883,1717,1,0.65,BLACK,WHITE,False,0,0.0017999991541728377,WHITE,False,INCORRECT,1.0115795000001526,1011.5795000001526
3,20260325_121052,D,J,False,AUTOMATION2,4,43,1343,fixed_delta,0.03626602127557052,0.01404684716676857,,,,,0.5364612495086276,1931,1669,1,0.65,BLACK,BLACK,True,0,0.0017999991541728377,BLACK,True,CORRECT,4.704491499998767,4704.491499998767
3,20260325_121052,D,J,False,AUTOMATION2,4,44,1344,fixed_delta,0.03626602127557052,0.01404684716676857,,,,,0.4479631514187886,1613,1987,1,0.65,WHITE,WHITE,True,0,0.0013999997463542968,WHITE,True,CORRECT,0.7752111999998306,775.2111999998306
3,20260325_121052,D,J,False,AUTOMATION2,4,45,1345,fixed_delta,0.03626602127557052,0.01404684716676857,,,,,0.5489938996522694,1976,1624,1,0.65,BLACK,BLACK,True,0,0.0012999989849049598,BLACK,True,CORRECT,3.0916331999997055,3091.6331999997055
3,20260325_121052,D,J,False,AUTOMATION2,4,46,1346,fixed_delta,0.03626602127557052,0.01404684716676857,,,,,0.5367905889826099,1932,1668,1,0.65,BLACK,BLACK,True,0,0.0015000005078036338,BLACK,True,CORRECT,1.1175796000006812,1117.5796000006812
3,20260325_121052,D,J,False,AUTOMATION2,4,47,1347,fixed_delta,0.03626602127557052,0.01404684716676857,,,,,0.4630413023086354,1667,1933,1,0.65,WHITE,WHITE,True,0,0.0020000006770715117,WHITE,True,CORRECT,0.8219043000008242,821.9043000008242
3,20260325_121052,D,J,False,AUTOMATION2,4,48,1348,fixed_delta,0.03626602127557052,0.01404684716676857,,,,,0.44132063129334487,1589,2011,1,0.65,WHITE,WHITE,True,0,0.0013999997463542968,WHITE,True,CORRECT,0.654125600000043,654.125600000043
3,20260325_121052,D,J,False,AUTOMATION2,4,49,1349,fixed_delta,0.03626602127557052,0.01404684716676857,,,,,0.528985113513261,1904,1696,1,0.65,BLACK,BLACK,True,0,0.0015999994502635673,BLACK,True,CORRECT,1.727270800000042,1727.270800000042
3,20260325_121052,D,J,False,AUTOMATION2,4,50,1350,fixed_delta,0.03626602127557052,0.01404684716676857,,,,,0.4524109640645004,1629,1971,1,0.65,WHITE,BLACK,False,0,0.0015000005078036338,BLACK,False,INCORRECT,1.4990453999998863,1499.0453999998863
3,20260325_121052,D,J,False,AUTOMATION2,4,51,1351,fixed_delta,0.03626602127557052,0.01404684716676857,,,,,0.5308687502224745,1911,1689,1,0.65,BLACK,WHITE,False,0,0.0012999989849049598,WHITE,False,INCORRECT,2.0385841999996046,2038.5841999996046
3,20260325_121052,D,J,False,AUTOMATION2,4,52,1352,fixed_delta,0.03626602127557052,0.01404684716676857,,,,,0.46356331264128164,1669,1931,1,0.65,WHITE,BLACK,False,0,0.0015000005078036338,BLACK,False,INCORRECT,1.2900431000016397,1290.0431000016397
3,20260325_121052,D,J,False,AUTOMATION2,4,53,1353,fixed_delta,0.03626602127557052,0.01404684716676857,,,,,0.5291410404770192,1905,1695,1,0.65,BLACK,BLACK,True,0,0.0015000005078036338,BLACK,True,CORRECT,0.7430387000003975,743.0387000003975
3,20260325_121052,D,J,False,AUTOMATION2,4,54,1354,fixed_delta,0.03626602127557052,0.01404684716676857,,,,,0.5173090912797678,1862,1738,1,0.65,BLACK,BLACK,True,0,0.0015000005078036338,BLACK,True,CORRECT,1.5561285999992833,1556.1285999992833
3,20260325_121052,D,J,False,AUTOMATION2,4,55,1355,fixed_delta,0.03626602127557052,0.01404684716676857,,,,,0.48184898334497955,1735,1865,1,0.65,WHITE,BLACK,False,0,0.0015999994502635673,WHITE,True,CORRECT,3.0595310000007885,3059.5310000007885
3,20260325_121052,D,J,False,AUTOMATION2,4,56,1356,fixed_delta,0.03626602127557052,0.01404684716676857,,,,,0.5376624865847475,1936,1664,1,0.65,BLACK,WHITE,False,0,0.0015000005078036338,BLACK,True,CORRECT,1.9833932999990793,1983.3932999990793
3,20260325_121052,D,J,False,AUTOMATION2,4,57,1357,fixed_delta,0.03626602127557052,0.01404684716676857,,,,,0.5590006147093656,2012,1588,1,0.65,BLACK,BLACK,True,0,0.0017000002117129043,BLACK,True,CORRECT,0.9665346000001591,966.5346000001591
3,20260325_121052,D,J,False,AUTOMATION2,4,58,1358,fixed_delta,0.03626602127557052,0.01404684716676857,,,,,0.4748703986529747,1710,1890,1,0.65,WHITE,WHITE,True,0,0.0017000002117129043,WHITE,True,CORRECT,4.215119200000117,4215.119200000117
3,20260325_121052,D,J,False,AUTOMATION2,4,59,1359,fixed_delta,0.03626602127557052,0.01404684716676857,,,,,0.4876123424542658,1755,1845,1,0.65,WHITE,BLACK,False,0,0.0013999997463542968,BLACK,False,INCORRECT,2.7045011000009254,2704.5011000009254
3,20260325_121052,D,J,False,AUTOMATION2,4,60,1360,fixed_delta,0.03626602127557052,0.01404684716676857,,,,,0.5454964064597131,1964,1636,1,0.65,BLACK,BLACK,True,0,0.0015000005078036338,BLACK,True,CORRECT,6.850776199999018,6850.776199999018
3,20260325_121052,D,J,False,AUTOMATION2,4,61,1361,fixed_delta,0.03626602127557052,0.01404684716676857,,,,,0.5320799557834178,1915,1685,1,0.65,BLACK,BLACK,True,0,0.001999998858082108,BLACK,True,CORRECT,1.6476126999987173,1647.6126999987173
3,20260325_121052,D,J,False,AUTOMATION2,4,62,1362,fixed_delta,0.03626602127557052,0.01404684716676857,,,,,0.5198617980153848,1872,1728,1,0.65,BLACK,BLACK,True,0,0.0013999997463542968,BLACK,True,CORRECT,0.5859884999990754,585.9884999990754
3,20260325_121052,D,J,False,AUTOMATION2,4,63,1363,fixed_delta,0.03626602127557052,0.01404684716676857,,,,,0.44667263332794305,1608,1992,1,0.65,WHITE,WHITE,True,0,0.0015000005078036338,BLACK,False,INCORRECT,0.6219844999995985,621.9844999995985
3,20260325_121052,D,J,False,AUTOMATION2,4,64,1364,fixed_delta,0.03626602127557052,0.01404684716676857,,,,,0.46892773300946317,1688,1912,1,0.65,WHITE,WHITE,True,0,0.0015000005078036338,WHITE,True,CORRECT,0.8025496000009298,802.5496000009298
3,20260325_121052,D,J,False,AUTOMATION2,4,65,1365,fixed_delta,0.03626602127557052,0.01404684716676857,,,,,0.5367474424104614,1932,1668,1,0.65,BLACK,WHITE,False,0,0.0016000012692529708,BLACK,True,CORRECT,1.880247099999906,1880.247099999906
3,20260325_121052,D,J,False,AUTOMATION2,4,66,1366,fixed_delta,0.03626602127557052,0.01404684716676857,,,,,0.47486387164414834,1710,1890,1,0.65,WHITE,BLACK,False,0,0.0013999997463542968,WHITE,True,CORRECT,0.8210338999997475,821.0338999997475
3,20260325_121052,D,J,False,AUTOMATION2,4,67,1367,fixed_delta,0.03626602127557052,0.01404684716676857,,,,,0.540532005681338,1946,1654,1,0.65,BLACK,WHITE,False,0,0.0015000005078036338,BLACK,True,CORRECT,3.8364656000012474,3836.4656000012474
3,20260325_121052,D,J,False,AUTOMATION2,4,68,1368,fixed_delta,0.03626602127557052,0.01404684716676857,,,,,0.5290912091952744,1905,1695,1,0.65,BLACK,WHITE,False,0,0.0017000002117129043,BLACK,True,CORRECT,1.7290907999995397,1729.0907999995397
3,20260325_121052,D,J,False,AUTOMATION2,4,69,1369,fixed_delta,0.03626602127557052,0.01404684716676857,,,,,0.5531532827854334,1991,1609,1,0.65,BLACK,WHITE,False,0,0.0015999994502635673,BLACK,True,CORRECT,2.5256248000005144,2525.6248000005144
3,20260325_121052,D,J,False,AUTOMATION2,4,70,1370,fixed_delta,0.03626602127557052,0.01404684716676857,,,,,0.5249085576936444,1890,1710,1,0.65,BLACK,WHITE,False,0,0.0015999994502635673,WHITE,False,INCORRECT,1.1642809999993915,1164.2809999993915
3,20260325_121052,D,J,False,AUTOMATION2,4,71,1371,fixed_delta,0.03626602127557052,0.01404684716676857,,,,,0.5662361201313209,2038,1562,1,0.65,BLACK,WHITE,False,0,0.0013999997463542968,BLACK,True,CORRECT,3.324324600000182,3324.324600000182
3,20260325_121052,D,J,False,AUTOMATION2,4,72,1372,fixed_delta,0.03626602127557052,0.01404684716676857,,,,,0.4576462648492738,1648,1952,1,0.65,WHITE,BLACK,False,0,0.0015000005078036338,WHITE,True,CORRECT,0.851318099999844,851.318099999844
3,20260325_121052,D,J,False,AUTOMATION2,4,73,1373,fixed_delta,0.03626602127557052,0.01404684716676857,,,,,0.4670566406731212,1681,1919,1,0.65,WHITE,WHITE,True,0,0.0012999989849049598,WHITE,True,CORRECT,0.7622516999999789,762.2516999999789
3,20260325_121052,D,J,False,AUTOMATION2,4,74,1374,fixed_delta,0.03626602127557052,0.01404684716676857,,,,,0.5337896681529687,1922,1678,1,0.65,BLACK,BLACK,True,0,0.0013999997463542968,BLACK,True,CORRECT,2.728243100000327,2728.243100000327
3,20260325_121052,D,J,False,AUTOMATION2,4,75,1375,fixed_delta,0.03626602127557052,0.01404684716676857,,,,,0.5240832565146704,1887,1713,1,0.65,BLACK,BLACK,True,0,0.0015000005078036338,BLACK,True,CORRECT,2.1806592000011733,2180.6592000011733
3,20260325_121052,D,J,False,AUTOMATION2,4,76,1376,fixed_delta,0.03626602127557052,0.01404684716676857,,,,,0.5152252540627993,1855,1745,1,0.65,BLACK,BLACK,True,0,0.0016000012692529708,BLACK,True,CORRECT,1.3154716999997618,1315.4716999997618
3,20260325_121052,D,J,False,AUTOMATION2,4,77,1377,fixed_delta,0.03626602127557052,0.01404684716676857,,,,,0.4435831615854355,1597,2003,1,0.65,WHITE,WHITE,True,0,0.0018999999156221747,WHITE,True,CORRECT,0.8725936999999249,872.5936999999249
3,20260325_121052,D,J,False,AUTOMATION2,4,78,1378,fixed_delta,0.03626602127557052,0.01404684716676857,,,,,0.44842882365421133,1614,1986,1,0.65,WHITE,WHITE,True,0,0.0017000002117129043,WHITE,True,CORRECT,1.0032240000000456,1003.2240000000456
3,20260325_121052,D,J,False,AUTOMATION2,4,79,1379,fixed_delta,0.03626602127557052,0.01404684716676857,,,,,0.43406042138498074,1563,2037,1,0.65,WHITE,WHITE,True,0,0.002099999619531445,WHITE,True,CORRECT,0.7550033999996231,755.0033999996231
3,20260325_121052,D,J,False,AUTOMATION2,4,80,1380,fixed_delta,0.03626602127557052,0.01404684716676857,,,,,0.5337023740369807,1921,1679,1,0.65,BLACK,BLACK,True,0,0.0014000015653437003,BLACK,True,CORRECT,1.3573155000012775,1357.3155000012775
3,20260325_121052,D,J,False,AUTOMATION2,4,81,1381,fixed_delta,0.03626602127557052,0.01404684716676857,,,,,0.4859454608695981,1749,1851,1,0.65,WHITE,BLACK,False,0,0.0012999989849049598,BLACK,False,INCORRECT,2.7187897999992856,2718.7897999992856
3,20260325_121052,D,J,False,AUTOMATION2,4,82,1382,fixed_delta,0.03626602127557052,0.01404684716676857,,,,,0.5159689477923444,1857,1743,1,0.65,BLACK,BLACK,True,0,0.0015000005078036338,BLACK,True,CORRECT,1.3071075999996538,1307.1075999996538
3,20260325_121052,D,J,False,AUTOMATION2,4,83,1383,fixed_delta,0.03626602127557052,0.01404684716676857,,,,,0.5522064289862239,1988,1612,1,0.65,BLACK,BLACK,True,0,0.0014999986888142303,BLACK,True,CORRECT,1.0807979999990494,1080.7979999990494
3,20260325_121052,D,J,False,AUTOMATION2,4,84,1384,fixed_delta,0.03626602127557052,0.01404684716676857,,,,,0.5327220876481157,1918,1682,1,0.65,BLACK,WHITE,False,0,0.0016000012692529708,WHITE,False,INCORRECT,0.8147599000003538,814.7599000003538
3,20260325_121052,D,J,False,AUTOMATION2,4,85,1385,fixed_delta,0.03626602127557052,0.01404684716676857,,,,,0.46872828608811073,1687,1913,1,0.65,WHITE,WHITE,True,0,0.0013000008038943633,WHITE,True,CORRECT,0.9055695000006381,905.5695000006381
3,20260325_121052,D,J,False,AUTOMATION2,4,86,1386,fixed_delta,0.03626602127557052,0.01404684716676857,,,,,0.5392698561484071,1941,1659,1,0.65,BLACK,BLACK,True,0,0.0020000006770715117,BLACK,True,CORRECT,3.9380653999996866,3938.0653999996866
3,20260325_121052,D,J,False,AUTOMATION2,4,87,1387,fixed_delta,0.03626602127557052,0.01404684716676857,,,,,0.5222078350611646,1880,1720,1,0.65,BLACK,BLACK,True,0,0.0015000005078036338,BLACK,True,CORRECT,1.5505267999997159,1550.5267999997159
3,20260325_121052,D,J,False,AUTOMATION2,4,88,1388,fixed_delta,0.03626602127557052,0.01404684716676857,,,,,0.5421715812660913,1952,1648,1,0.65,BLACK,BLACK,True,0,0.0020000006770715117,BLACK,True,CORRECT,0.75734089999969,757.34089999969
3,20260325_121052,D,J,False,AUTOMATION2,4,89,1389,fixed_delta,0.03626602127557052,0.01404684716676857,,,,,0.47905574822938224,1725,1875,1,0.65,WHITE,BLACK,False,0,0.0015000005078036338,BLACK,False,INCORRECT,1.6679800000001705,1667.9800000001705
3,20260325_121052,D,J,False,AUTOMATION2,4,90,1390,fixed_delta,0.03626602127557052,0.01404684716676857,,,,,0.5468238828368684,1969,1631,1,0.65,BLACK,BLACK,True,0,0.0013999997463542968,BLACK,True,CORRECT,0.9629585999991832,962.9585999991832
3,20260325_121052,D,J,False,AUTOMATION2,4,91,1391,fixed_delta,0.03626602127557052,0.01404684716676857,,,,,0.461409808797248,1661,1939,1,0.65,WHITE,BLACK,False,0,0.0013999997463542968,WHITE,True,CORRECT,0.8674043999999412,867.4043999999412
3,20260325_121052,D,J,False,AUTOMATION2,4,92,1392,fixed_delta,0.03626602127557052,0.01404684716676857,,,,,0.5275449216315841,1899,1701,1,0.65,BLACK,WHITE,False,0,0.0017000002117129043,WHITE,False,INCORRECT,0.6969207000001916,696.9207000001916
3,20260325_121052,D,J,False,AUTOMATION2,4,93,1393,fixed_delta,0.03626602127557052,0.01404684716676857,,,,,0.5346957264677089,1925,1675,1,0.65,BLACK,WHITE,False,0,0.0015000005078036338,BLACK,True,CORRECT,0.7769327999994857,776.9327999994857
3,20260325_121052,D,J,False,AUTOMATION2,4,94,1394,fixed_delta,0.03626602127557052,0.01404684716676857,,,,,0.5522987538953406,1988,1612,1,0.65,BLACK,WHITE,False,0,0.0013999997463542968,BLACK,True,CORRECT,0.8467724000001908,846.7724000001908
3,20260325_121052,D,J,False,AUTOMATION2,4,95,1395,fixed_delta,0.03626602127557052,0.01404684716676857,,,,,0.5358092848737488,1929,1671,1,0.65,BLACK,BLACK,True,0,0.0021999985619913787,BLACK,True,CORRECT,1.6740515999990748,1674.0515999990748
3,20260325_121052,D,J,False,AUTOMATION2,4,96,1396,fixed_delta,0.03626602127557052,0.01404684716676857,,,,,0.5258242151058012,1893,1707,1,0.65,BLACK,BLACK,True,0,0.0013999997463542968,BLACK,True,CORRECT,1.1176400999993348,1117.6400999993348
3,20260325_121052,D,J,False,AUTOMATION2,4,97,1397,fixed_delta,0.03626602127557052,0.01404684716676857,,,,,0.5616330018296065,2022,1578,1,0.65,BLACK,BLACK,True,0,0.002599999788799323,BLACK,True,CORRECT,0.7933960999998817,793.3960999998817
3,20260325_121052,D,J,False,AUTOMATION2,4,98,1398,fixed_delta,0.03626602127557052,0.01404684716676857,,,,,0.5369864520347692,1933,1667,1,0.65,BLACK,WHITE,False,0,0.015699999494245276,BLACK,True,CORRECT,1.2537065999986226,1253.7065999986226
3,20260325_121052,D,J,False,AUTOMATION2,4,99,1399,fixed_delta,0.03626602127557052,0.01404684716676857,,,,,0.4777782864032269,1720,1880,1,0.65,WHITE,WHITE,True,0,0.0015999994502635673,BLACK,False,INCORRECT,4.112449299998843,4112.449299998843
3,20260325_121052,D,J,False,AUTOMATION2,4,100,1400,fixed_delta,0.03626602127557052,0.01404684716676857,,,,,0.4687193988469649,1687,1913,1,0.65,WHITE,BLACK,False,0,0.0013999997463542968,BLACK,False,INCORRECT,2.1913045999990572,2191.3045999990572
3,20260325_121052,D,J,False,AUTOMATION2,4,101,1401,fixed_delta,0.03626602127557052,0.01404684716676857,,,,,0.53661515395148,1932,1668,1,0.65,BLACK,WHITE,False,0,0.0013000008038943633,BLACK,True,CORRECT,1.4657817000006617,1465.7817000006617
3,20260325_121052,D,J,False,AUTOMATION2,4,102,1402,fixed_delta,0.03626602127557052,0.01404684716676857,,,,,0.4810262711244197,1732,1868,1,0.65,WHITE,BLACK,False,0,0.0017000002117129043,WHITE,True,CORRECT,1.85361439999906,1853.61439999906
3,20260325_121052,D,J,False,AUTOMATION2,4,103,1403,fixed_delta,0.03626602127557052,0.01404684716676857,,,,,0.4675952921818809,1683,1917,1,0.65,WHITE,BLACK,False,0,0.0013999997463542968,WHITE,True,CORRECT,0.9931472000007489,993.1472000007489
3,20260325_121052,D,J,False,AUTOMATION2,4,104,1404,fixed_delta,0.03626602127557052,0.01404684716676857,,,,,0.5369132134320189,1933,1667,1,0.65,BLACK,WHITE,False,0,0.0016999983927235007,BLACK,True,CORRECT,3.324280999999246,3324.280999999246
3,20260325_121052,D,J,False,AUTOMATION2,4,105,1405,fixed_delta,0.03626602127557052,0.01404684716676857,,,,,0.527319756881536,1898,1702,1,0.65,BLACK,BLACK,True,0,0.0015000005078036338,BLACK,True,CORRECT,1.4964293000011821,1496.4293000011821
3,20260325_121052,D,J,False,AUTOMATION2,4,106,1406,fixed_delta,0.03626602127557052,0.01404684716676857,,,,,0.5550887647503261,1998,1602,1,0.65,BLACK,BLACK,True,0,0.0013999997463542968,BLACK,True,CORRECT,4.736371200000576,4736.371200000576
3,20260325_121052,D,J,False,AUTOMATION2,4,107,1407,fixed_delta,0.03626602127557052,0.01404684716676857,,,,,0.4770652311200237,1717,1883,1,0.65,WHITE,BLACK,False,0,0.0015000005078036338,WHITE,True,CORRECT,0.6202524000000267,620.2524000000267
3,20260325_121052,D,J,False,AUTOMATION2,4,108,1408,fixed_delta,0.03626602127557052,0.01404684716676857,,,,,0.4863967661427907,1751,1849,1,0.65,WHITE,WHITE,True,0,0.0015999994502635673,WHITE,True,CORRECT,0.9681261999994604,968.1261999994604
3,20260325_121052,D,J,False,AUTOMATION2,4,109,1409,fixed_delta,0.03626602127557052,0.01404684716676857,,,,,0.47372755563898133,1705,1895,1,0.65,WHITE,BLACK,False,0,0.0013000008038943633,WHITE,True,CORRECT,0.6323932000013883,632.3932000013883
3,20260325_121052,D,J,False,AUTOMATION2,4,110,1410,fixed_delta,0.03626602127557052,0.01404684716676857,,,,,0.46602038604055196,1678,1922,1,0.65,WHITE,WHITE,True,0,0.0018000009731622413,WHITE,True,CORRECT,0.7429275000013149,742.9275000013149
3,20260325_121052,D,J,False,AUTOMATION2,4,111,1411,fixed_delta,0.03626602127557052,0.01404684716676857,,,,,0.458573731831139,1651,1949,1,0.65,WHITE,BLACK,False,0,0.0013000008038943633,WHITE,True,CORRECT,0.7112611000011384,711.2611000011384
3,20260325_121052,D,J,False,AUTOMATION2,4,112,1412,fixed_delta,0.03626602127557052,0.01404684716676857,,,,,0.5306937991836869,1910,1690,1,0.65,BLACK,WHITE,False,0,0.0012999989849049598,WHITE,False,INCORRECT,0.9107411999993928,910.7411999993928
3,20260325_121052,D,J,False,AUTOMATION2,4,113,1413,fixed_delta,0.03626602127557052,0.01404684716676857,,,,,0.55705944706981,2005,1595,1,0.65,BLACK,BLACK,True,0,0.0013999997463542968,BLACK,True,CORRECT,1.1055163000000903,1105.5163000000903
3,20260325_121052,D,J,False,AUTOMATION2,4,114,1414,fixed_delta,0.03626602127557052,0.01404684716676857,,,,,0.49307693225869237,1775,1825,1,0.65,WHITE,WHITE,True,0,0.0018999999156221747,WHITE,True,CORRECT,2.80291170000055,2802.91170000055
3,20260325_121052,D,J,False,AUTOMATION2,4,115,1415,fixed_delta,0.03626602127557052,0.01404684716676857,,,,,0.5548374618465777,1997,1603,1,0.65,BLACK,WHITE,False,0,0.0015000005078036338,BLACK,True,CORRECT,0.6662059000009322,666.2059000009322
3,20260325_121052,D,J,False,AUTOMATION2,4,116,1416,fixed_delta,0.03626602127557052,0.01404684716676857,,,,,0.5397565640883472,1943,1657,1,0.65,BLACK,BLACK,True,0,0.0018000009731622413,BLACK,True,CORRECT,0.8058927000001859,805.8927000001859
3,20260325_121052,D,J,False,AUTOMATION2,4,117,1417,fixed_delta,0.03626602127557052,0.01404684716676857,,,,,0.46059512317811657,1658,1942,1,0.65,WHITE,WHITE,True,0,0.0013000008038943633,WHITE,True,CORRECT,0.8018390000015643,801.8390000015643
3,20260325_121052,D,J,False,AUTOMATION2,4,118,1418,fixed_delta,0.03626602127557052,0.01404684716676857,,,,,0.5304330768004741,1910,1690,1,0.65,BLACK,BLACK,True,0,0.0013000008038943633,BLACK,True,CORRECT,1.2526605000002746,1252.6605000002746
3,20260325_121052,D,J,False,AUTOMATION2,4,119,1419,fixed_delta,0.03626602127557052,0.01404684716676857,,,,,0.48302156506162186,1739,1861,1,0.65,WHITE,BLACK,False,0,0.0013999997463542968,WHITE,True,CORRECT,1.1469159999996918,1146.9159999996918
3,20260325_121052,D,J,False,AUTOMATION2,4,120,1420,fixed_delta,0.03626602127557052,0.01404684716676857,,,,,0.5255038682042723,1892,1708,1,0.65,BLACK,WHITE,False,0,0.0015000005078036338,BLACK,True,CORRECT,5.208560600000055,5208.560600000055
3,20260325_121052,D,J,False,AUTOMATION2,4,121,1421,fixed_delta,0.03626602127557052,0.01404684716676857,,,,,0.4470475159235737,1609,1991,1,0.65,WHITE,WHITE,True,0,0.0015999994502635673,WHITE,True,CORRECT,0.8082448999994085,808.2448999994085
3,20260325_121052,D,J,False,AUTOMATION2,4,122,1422,fixed_delta,0.03626602127557052,0.01404684716676857,,,,,0.5435377630238684,1957,1643,1,0.65,BLACK,BLACK,True,0,0.0013999997463542968,BLACK,True,CORRECT,2.027987100000246,2027.9871000002458
3,20260325_121052,D,J,False,AUTOMATION2,4,123,1423,fixed_delta,0.03626602127557052,0.01404684716676857,,,,,0.5505724916570346,1982,1618,1,0.65,BLACK,BLACK,True,0,0.0015999994502635673,BLACK,True,CORRECT,0.9443950999993831,944.3950999993831
3,20260325_121052,D,J,False,AUTOMATION2,4,124,1424,fixed_delta,0.03626602127557052,0.01404684716676857,,,,,0.47275833494689445,1702,1898,1,0.65,WHITE,WHITE,True,0,0.0017999991541728377,WHITE,True,CORRECT,1.071235199999137,1071.235199999137
3,20260325_121052,D,J,False,AUTOMATION2,4,125,1425,fixed_delta,0.03626602127557052,0.01404684716676857,,,,,0.46632584130517307,1679,1921,1,0.65,WHITE,WHITE,True,0,0.0015000005078036338,WHITE,True,CORRECT,0.6190843000003952,619.0843000003952
3,20260325_121052,D,J,False,AUTOMATION2,4,126,1426,fixed_delta,0.03626602127557052,0.01404684716676857,,,,,0.44165539944338056,1590,2010,1,0.65,WHITE,WHITE,True,0,0.002099999619531445,WHITE,True,CORRECT,0.5624423999997816,562.4423999997816
3,20260325_121052,D,J,False,AUTOMATION2,4,127,1427,fixed_delta,0.03626602127557052,0.01404684716676857,,,,,0.45284188658945423,1630,1970,1,0.65,WHITE,WHITE,True,0,0.0015000005078036338,WHITE,True,CORRECT,0.786676499999885,786.676499999885
3,20260325_121052,D,J,False,AUTOMATION2,4,128,1428,fixed_delta,0.03626602127557052,0.01404684716676857,,,,,0.5246313297878036,1889,1711,1,0.65,BLACK,BLACK,True,0,0.0013999997463542968,WHITE,False,INCORRECT,0.9511681000003591,951.1681000003591
3,20260325_121052,D,J,False,AUTOMATION2,4,129,1429,fixed_delta,0.03626602127557052,0.01404684716676857,,,,,0.4645554298534887,1672,1928,1,0.65,WHITE,WHITE,True,0,0.0015000005078036338,WHITE,True,CORRECT,0.9310976000015216,931.0976000015216
3,20260325_121052,D,J,False,AUTOMATION2,4,130,1430,fixed_delta,0.03626602127557052,0.01404684716676857,,,,,0.46673565330622035,1680,1920,1,0.65,WHITE,BLACK,False,0,0.0015000005078036338,WHITE,True,CORRECT,2.147411399999328,2147.411399999328
3,20260325_121052,D,J,False,AUTOMATION2,4,131,1431,fixed_delta,0.03626602127557052,0.01404684716676857,,,,,0.47528782940692166,1711,1889,1,0.65,WHITE,WHITE,True,0,0.0015000005078036338,WHITE,True,CORRECT,1.0222694000003685,1022.2694000003685
3,20260325_121052,D,J,False,AUTOMATION2,4,132,1432,fixed_delta,0.03626602127557052,0.01404684716676857,,,,,0.5498544461012318,1979,1621,1,0.65,BLACK,BLACK,True,0,0.0017000002117129043,BLACK,True,CORRECT,0.5731710000000021,573.1710000000021
3,20260325_121052,D,J,False,AUTOMATION2,4,133,1433,fixed_delta,0.03626602127557052,0.01404684716676857,,,,,0.5486098385863237,1975,1625,1,0.65,BLACK,BLACK,True,0,0.0015000005078036338,BLACK,True,CORRECT,0.8937278000012157,893.7278000012157
3,20260325_121052,D,J,False,AUTOMATION2,4,134,1434,fixed_delta,0.03626602127557052,0.01404684716676857,,,,,0.47474953990346025,1709,1891,1,0.65,WHITE,BLACK,False,0,0.0015000005078036338,WHITE,True,CORRECT,0.8216583000012179,821.6583000012179
3,20260325_121052,D,J,False,AUTOMATION2,4,135,1435,fixed_delta,0.03626602127557052,0.01404684716676857,,,,,0.5404930485209926,1946,1654,1,0.65,BLACK,BLACK,True,0,0.0013000008038943633,BLACK,True,CORRECT,0.8149587000007159,814.9587000007159
3,20260325_121052,D,J,False,AUTOMATION2,4,136,1436,fixed_delta,0.03626602127557052,0.01404684716676857,,,,,0.5291971171245943,1905,1695,1,0.65,BLACK,BLACK,True,0,0.009299999874201603,WHITE,False,INCORRECT,0.8897084999989602,889.7084999989602
3,20260325_121052,D,J,False,AUTOMATION2,4,137,1437,fixed_delta,0.03626602127557052,0.01404684716676857,,,,,0.48094968458355736,1731,1869,1,0.65,WHITE,BLACK,False,0,0.0015999994502635673,WHITE,True,CORRECT,1.9352404000001115,1935.2404000001115
3,20260325_121052,D,J,False,AUTOMATION2,4,138,1438,fixed_delta,0.03626602127557052,0.01404684716676857,,,,,0.5315789990299175,1914,1686,1,0.65,BLACK,BLACK,True,0,0.0017999991541728377,WHITE,False,INCORRECT,1.9013254000001325,1901.3254000001325
3,20260325_121052,D,J,False,AUTOMATION2,4,139,1439,fixed_delta,0.03626602127557052,0.01404684716676857,,,,,0.46952752753539706,1690,1910,1,0.65,WHITE,BLACK,False,0,0.0016999983927235007,BLACK,False,INCORRECT,0.6861767999998847,686.1767999998847
3,20260325_121052,D,J,False,AUTOMATION2,4,140,1440,fixed_delta,0.03626602127557052,0.01404684716676857,,,,,0.552476454390244,1989,1611,1,0.65,BLACK,WHITE,False,0,0.0017000002117129043,BLACK,True,CORRECT,1.2567531000004237,1256.7531000004237
3,20260325_121052,D,J,False,AUTOMATION2,4,141,1441,fixed_delta,0.03626602127557052,0.01404684716676857,,,,,0.4742359203872992,1707,1893,1,0.65,WHITE,WHITE,True,0,0.0013999997463542968,WHITE,True,CORRECT,0.7658531999986735,765.8531999986735
3,20260325_121052,D,J,False,AUTOMATION2,4,142,1442,fixed_delta,0.03626602127557052,0.01404684716676857,,,,,0.5088175738065422,1832,1768,1,0.65,BLACK,WHITE,False,0,0.0016000012692529708,WHITE,False,INCORRECT,6.873309700000391,6873.309700000391
3,20260325_121052,D,J,False,AUTOMATION2,4,143,1443,fixed_delta,0.03626602127557052,0.01404684716676857,,,,,0.545657857687798,1964,1636,1,0.65,BLACK,BLACK,True,0,0.0015999994502635673,BLACK,True,CORRECT,0.8469619000006787,846.9619000006787
3,20260325_121052,D,J,False,AUTOMATION2,4,144,1444,fixed_delta,0.03626602127557052,0.01404684716676857,,,,,0.4580831991105667,1649,1951,1,0.65,WHITE,WHITE,True,0,0.0018999999156221747,WHITE,True,CORRECT,0.9243480999994063,924.3480999994063
3,20260325_121052,D,J,False,AUTOMATION2,4,145,1445,fixed_delta,0.03626602127557052,0.01404684716676857,,,,,0.4327486072785923,1558,2042,1,0.65,WHITE,WHITE,True,0,0.0018000009731622413,WHITE,True,CORRECT,0.8885827000012796,888.5827000012796
3,20260325_121052,D,J,False,AUTOMATION2,4,146,1446,fixed_delta,0.03626602127557052,0.01404684716676857,,,,,0.5417781866393097,1950,1650,1,0.65,BLACK,BLACK,True,0,0.0016000012692529708,BLACK,True,CORRECT,1.9738754000009067,1973.8754000009067
3,20260325_121052,D,J,False,AUTOMATION2,4,147,1447,fixed_delta,0.03626602127557052,0.01404684716676857,,,,,0.45001135022146593,1620,1980,1,0.65,WHITE,BLACK,False,0,0.0015000005078036338,WHITE,True,CORRECT,3.27975189999961,3279.75189999961
3,20260325_121052,D,J,False,AUTOMATION2,4,148,1448,fixed_delta,0.03626602127557052,0.01404684716676857,,,,,0.4584954240459536,1651,1949,1,0.65,WHITE,WHITE,True,0,0.0015999994502635673,WHITE,True,CORRECT,1.9171012999995583,1917.1012999995583
3,20260325_121052,D,J,False,AUTOMATION2,4,149,1449,fixed_delta,0.03626602127557052,0.01404684716676857,,,,,0.5588353426837339,2012,1588,1,0.65,BLACK,BLACK,True,0,0.0013999997463542968,BLACK,True,CORRECT,0.7631734999995388,763.1734999995388
3,20260325_121052,D,J,False,AUTOMATION2,4,150,1450,fixed_delta,0.03626602127557052,0.01404684716676857,,,,,0.45122213576033177,1624,1976,1,0.65,WHITE,BLACK,False,0,0.0015000005078036338,WHITE,True,CORRECT,0.659174799999164,659.174799999164
3,20260325_121052,D,J,False,AUTOMATION2,4,151,1451,fixed_delta,0.03626602127557052,0.01404684716676857,,,,,0.5517764207054543,1986,1614,1,0.65,BLACK,WHITE,False,0,0.0013999997463542968,BLACK,True,CORRECT,1.6204469999993307,1620.4469999993307
3,20260325_121052,D,J,False,AUTOMATION2,4,152,1452,fixed_delta,0.03626602127557052,0.01404684716676857,,,,,0.5174094866434457,1863,1737,1,0.65,BLACK,BLACK,True,0,0.0013999997463542968,BLACK,True,CORRECT,1.3588961999994353,1358.8961999994353
3,20260325_121052,D,J,False,AUTOMATION2,4,153,1453,fixed_delta,0.03626602127557052,0.01404684716676857,,,,,0.5320653273852334,1915,1685,1,0.65,BLACK,WHITE,False,0,0.0017999991541728377,BLACK,True,CORRECT,2.185807300000306,2185.807300000306
3,20260325_121052,D,J,False,AUTOMATION2,4,154,1454,fixed_delta,0.03626602127557052,0.01404684716676857,,,,,0.5365279219579496,1932,1668,1,0.65,BLACK,WHITE,False,0,0.0017000002117129043,BLACK,True,CORRECT,1.4702488000002631,1470.2488000002631
3,20260325_121052,D,J,False,AUTOMATION2,4,155,1455,fixed_delta,0.03626602127557052,0.01404684716676857,,,,,0.5147444225368915,1853,1747,1,0.65,BLACK,WHITE,False,0,0.0015000005078036338,WHITE,False,INCORRECT,1.1619146000011824,1161.9146000011824
3,20260325_121052,D,J,False,AUTOMATION2,4,156,1456,fixed_delta,0.03626602127557052,0.01404684716676857,,,,,0.532415607943224,1917,1683,1,0.65,BLACK,BLACK,True,0,0.0016000012692529708,BLACK,True,CORRECT,1.0114397000015742,1011.4397000015742
3,20260325_121052,D,J,False,AUTOMATION2,4,157,1457,fixed_delta,0.03626602127557052,0.01404684716676857,,,,,0.55565715412197,2000,1600,1,0.65,BLACK,BLACK,True,0,0.0015000005078036338,BLACK,True,CORRECT,1.5791408000004594,1579.1408000004594
3,20260325_121052,D,J,False,AUTOMATION2,4,158,1458,fixed_delta,0.03626602127557052,0.01404684716676857,,,,,0.529394936152989,1906,1694,1,0.65,BLACK,WHITE,False,0,0.0017999991541728377,BLACK,True,CORRECT,0.6263567999994848,626.3567999994848
3,20260325_121052,D,J,False,AUTOMATION2,4,159,1459,fixed_delta,0.03626602127557052,0.01404684716676857,,,,,0.5319878854167797,1915,1685,1,0.65,BLACK,BLACK,True,0,0.0018999999156221747,WHITE,False,INCORRECT,0.6718657000001258,671.8657000001258
3,20260325_121052,D,J,False,AUTOMATION2,4,160,1460,fixed_delta,0.03626602127557052,0.01404684716676857,,,,,0.45083776116369295,1623,1977,1,0.65,WHITE,WHITE,True,0,0.0015000005078036338,WHITE,True,CORRECT,0.614643499999147,614.643499999147
3,20260325_121052,D,J,False,AUTOMATION2,4,161,1461,fixed_delta,0.03626602127557052,0.01404684716676857,,,,,0.472005218830009,1699,1901,1,0.65,WHITE,WHITE,True,0,0.0015999994502635673,WHITE,True,CORRECT,0.7832569999991392,783.2569999991392
3,20260325_121052,D,J,False,AUTOMATION2,4,162,1462,fixed_delta,0.03626602127557052,0.01404684716676857,,,,,0.545227311428568,1963,1637,1,0.65,BLACK,WHITE,False,0,0.0014000015653437003,BLACK,True,CORRECT,1.0990528000002087,1099.0528000002087
3,20260325_121052,D,J,False,AUTOMATION2,4,163,1463,fixed_delta,0.03626602127557052,0.01404684716676857,,,,,0.5136044878798818,1849,1751,1,0.65,BLACK,BLACK,True,0,0.0014999986888142303,BLACK,True,CORRECT,1.441090999998778,1441.090999998778
3,20260325_121052,D,J,False,AUTOMATION2,4,164,1464,fixed_delta,0.03626602127557052,0.01404684716676857,,,,,0.5142787584817982,1851,1749,1,0.65,BLACK,BLACK,True,0,0.0014999986888142303,BLACK,True,CORRECT,0.7054269000000204,705.4269000000204
3,20260325_121052,D,J,False,AUTOMATION2,4,165,1465,fixed_delta,0.03626602127557052,0.01404684716676857,,,,,0.5483199558827222,1974,1626,1,0.65,BLACK,WHITE,False,0,0.0017000002117129043,BLACK,True,CORRECT,1.058922900001562,1058.922900001562
3,20260325_121052,D,J,False,AUTOMATION2,4,166,1466,fixed_delta,0.03626602127557052,0.01404684716676857,,,,,0.48968032887947877,1763,1837,1,0.65,WHITE,WHITE,True,0,0.0013999997463542968,WHITE,True,CORRECT,0.6576011999986804,657.6011999986804
3,20260325_121052,D,J,False,AUTOMATION2,4,167,1467,fixed_delta,0.03626602127557052,0.01404684716676857,,,,,0.47547929635025454,1712,1888,1,0.65,WHITE,WHITE,True,0,0.0024000000848900527,WHITE,True,CORRECT,0.46753720000015164,467.53720000015164
3,20260325_121052,D,J,False,AUTOMATION2,4,168,1468,fixed_delta,0.03626602127557052,0.01404684716676857,,,,,0.5413393902455702,1949,1651,1,0.65,BLACK,BLACK,True,0,0.0015000005078036338,WHITE,False,INCORRECT,0.7356579999996029,735.6579999996029
3,20260325_121052,D,J,False,AUTOMATION2,4,169,1469,fixed_delta,0.03626602127557052,0.01404684716676857,,,,,0.5478719090705172,1972,1628,1,0.65,BLACK,WHITE,False,0,0.0015000005078036338,BLACK,True,CORRECT,1.1562021000008826,1156.2021000008826
3,20260325_121052,D,J,False,AUTOMATION2,4,170,1470,fixed_delta,0.03626602127557052,0.01404684716676857,,,,,0.45147963107120204,1625,1975,1,0.65,WHITE,WHITE,True,0,0.0017999991541728377,WHITE,True,CORRECT,1.8358229999994364,1835.8229999994364
3,20260325_121052,D,J,False,AUTOMATION2,4,171,1471,fixed_delta,0.03626602127557052,0.01404684716676857,,,,,0.5410564173290069,1948,1652,1,0.65,BLACK,WHITE,False,0,0.0015999994502635673,WHITE,False,INCORRECT,0.8533991999993304,853.3991999993304
3,20260325_121052,D,J,False,AUTOMATION2,4,172,1472,fixed_delta,0.03626602127557052,0.01404684716676857,,,,,0.4382055315955187,1578,2022,1,0.65,WHITE,BLACK,False,0,0.0017000002117129043,WHITE,True,CORRECT,1.8824150999989797,1882.4150999989797
3,20260325_121052,D,J,False,AUTOMATION2,4,173,1473,fixed_delta,0.03626602127557052,0.01404684716676857,,,,,0.5317856242389124,1914,1686,1,0.65,BLACK,WHITE,False,0,0.0014999986888142303,WHITE,False,INCORRECT,1.3987686000000394,1398.7686000000394
3,20260325_121052,D,J,False,AUTOMATION2,4,174,1474,fixed_delta,0.03626602127557052,0.01404684716676857,,,,,0.45197390766029477,1627,1973,1,0.65,WHITE,WHITE,True,0,0.0014000015653437003,WHITE,True,CORRECT,0.6757608000007167,675.7608000007167
3,20260325_121052,D,J,False,AUTOMATION2,4,175,1475,fixed_delta,0.03626602127557052,0.01404684716676857,,,,,0.42519570099531906,1531,2069,1,0.65,WHITE,BLACK,False,0,0.0013999997463542968,WHITE,True,CORRECT,0.8107663999999204,810.7663999999204
3,20260325_121052,D,J,False,AUTOMATION2,4,176,1476,fixed_delta,0.03626602127557052,0.01404684716676857,,,,,0.48919993349664875,1761,1839,1,0.65,WHITE,BLACK,False,0,0.013799999578623101,BLACK,False,INCORRECT,1.0636395000001357,1063.6395000001357
3,20260325_121052,D,J,False,AUTOMATION2,4,177,1477,fixed_delta,0.03626602127557052,0.01404684716676857,,,,,0.46964799671837343,1691,1909,1,0.65,WHITE,WHITE,True,0,0.0015999994502635673,WHITE,True,CORRECT,1.0563373999993928,1056.3373999993928
3,20260325_121052,D,J,False,AUTOMATION2,4,178,1478,fixed_delta,0.03626602127557052,0.01404684716676857,,,,,0.4687628981331373,1688,1912,1,0.65,WHITE,WHITE,True,0,0.0014999986888142303,WHITE,True,CORRECT,0.7055008999996062,705.5008999996062
3,20260325_121052,D,J,False,AUTOMATION2,4,179,1479,fixed_delta,0.03626602127557052,0.01404684716676857,,,,,0.5375954340876324,1935,1665,1,0.65,BLACK,BLACK,True,0,0.0015000005078036338,BLACK,True,CORRECT,0.5201663000007102,520.1663000007102
3,20260325_121052,D,J,False,AUTOMATION2,4,180,1480,fixed_delta,0.03626602127557052,0.01404684716676857,,,,,0.5380561339681156,1937,1663,1,0.65,BLACK,BLACK,True,0,0.0013999997463542968,BLACK,True,CORRECT,1.8342625000004773,1834.2625000004773
3,20260325_121052,D,J,False,AUTOMATION2,4,181,1481,fixed_delta,0.03626602127557052,0.01404684716676857,,,,,0.5549130668988012,1998,1602,1,0.65,BLACK,BLACK,True,0,0.002099999619531445,BLACK,True,CORRECT,0.6692366999996011,669.2366999996011
3,20260325_121052,D,J,False,AUTOMATION2,4,182,1482,fixed_delta,0.03626602127557052,0.01404684716676857,,,,,0.5618787893573859,2023,1577,1,0.65,BLACK,BLACK,True,0,0.0018000009731622413,BLACK,True,CORRECT,0.5646994000017003,564.6994000017003
3,20260325_121052,D,J,False,AUTOMATION2,4,183,1483,fixed_delta,0.03626602127557052,0.01404684716676857,,,,,0.46637610037967125,1679,1921,1,0.65,WHITE,WHITE,True,0,0.0013999997463542968,WHITE,True,CORRECT,0.5591251999994711,559.1251999994711
3,20260325_121052,D,J,False,AUTOMATION2,4,184,1484,fixed_delta,0.03626602127557052,0.01404684716676857,,,,,0.5468626647931216,1969,1631,1,0.65,BLACK,BLACK,True,0,0.0013000008038943633,WHITE,False,INCORRECT,0.6403996000008192,640.3996000008192
3,20260325_121052,D,J,False,AUTOMATION2,4,185,1485,fixed_delta,0.03626602127557052,0.01404684716676857,,,,,0.5758834927450085,2073,1527,1,0.65,BLACK,BLACK,True,0,0.0015000005078036338,WHITE,False,INCORRECT,0.8199862000001303,819.9862000001303
3,20260325_121052,D,J,False,AUTOMATION2,4,186,1486,fixed_delta,0.03626602127557052,0.01404684716676857,,,,,0.5449889769423317,1962,1638,1,0.65,BLACK,BLACK,True,0,0.0016999983927235007,BLACK,True,CORRECT,0.6720151999998052,672.0151999998052
3,20260325_121052,D,J,False,AUTOMATION2,4,187,1487,fixed_delta,0.03626602127557052,0.01404684716676857,,,,,0.46217640666316184,1664,1936,1,0.65,WHITE,WHITE,True,0,0.016299998605973087,WHITE,True,CORRECT,0.6287749999992229,628.7749999992229
3,20260325_121052,D,J,False,AUTOMATION2,4,188,1488,fixed_delta,0.03626602127557052,0.01404684716676857,,,,,0.5365503528701403,1932,1668,1,0.65,BLACK,BLACK,True,0,0.0015000005078036338,WHITE,False,INCORRECT,0.8404553000000305,840.4553000000305
3,20260325_121052,D,J,False,AUTOMATION2,4,189,1489,fixed_delta,0.03626602127557052,0.01404684716676857,,,,,0.5623263675292415,2024,1576,1,0.65,BLACK,BLACK,True,0,0.0014999986888142303,BLACK,True,CORRECT,0.5151282999995601,515.1282999995601
3,20260325_121052,D,J,False,AUTOMATION2,4,190,1490,fixed_delta,0.03626602127557052,0.01404684716676857,,,,,0.5287561332182843,1904,1696,1,0.65,BLACK,BLACK,True,0,0.0017999991541728377,BLACK,True,CORRECT,0.6457905999996001,645.7905999996001
3,20260325_121052,D,J,False,AUTOMATION2,4,191,1491,fixed_delta,0.03626602127557052,0.01404684716676857,,,,,0.49161886021713636,1770,1830,1,0.65,WHITE,BLACK,False,0,0.0015000005078036338,WHITE,True,CORRECT,0.5593642000003456,559.3642000003456
3,20260325_121052,D,J,False,AUTOMATION2,4,192,1492,fixed_delta,0.03626602127557052,0.01404684716676857,,,,,0.46736958460651834,1683,1917,1,0.65,WHITE,WHITE,True,0,0.0015999994502635673,WHITE,True,CORRECT,0.8451384999989386,845.1384999989386
3,20260325_121052,D,J,False,AUTOMATION2,4,193,1493,fixed_delta,0.03626602127557052,0.01404684716676857,,,,,0.530138305357103,1908,1692,1,0.65,BLACK,WHITE,False,0,0.0015000005078036338,BLACK,True,CORRECT,1.0189955999994709,1018.9955999994709
3,20260325_121052,D,J,False,AUTOMATION2,4,194,1494,fixed_delta,0.03626602127557052,0.01404684716676857,,,,,0.5304047076576834,1909,1691,1,0.65,BLACK,BLACK,True,0,0.0017000002117129043,BLACK,True,CORRECT,1.4587800000008428,1458.7800000008428
3,20260325_121052,D,J,False,AUTOMATION2,4,195,1495,fixed_delta,0.03626602127557052,0.01404684716676857,,,,,0.5528199943125779,1990,1610,1,0.65,BLACK,BLACK,True,0,0.0014999986888142303,BLACK,True,CORRECT,2.494000699998651,2494.000699998651
3,20260325_121052,D,J,False,AUTOMATION2,4,196,1496,fixed_delta,0.03626602127557052,0.01404684716676857,,,,,0.47774951417761524,1720,1880,1,0.65,WHITE,BLACK,False,0,0.0015999994502635673,WHITE,True,CORRECT,0.7048880999991525,704.8880999991525
3,20260325_121052,D,J,False,AUTOMATION2,4,197,1497,fixed_delta,0.03626602127557052,0.01404684716676857,,,,,0.5431909239173466,1955,1645,1,0.65,BLACK,BLACK,True,0,0.0015999994502635673,BLACK,True,CORRECT,1.9013802000008582,1901.3802000008582
3,20260325_121052,D,J,False,AUTOMATION2,4,198,1498,fixed_delta,0.03626602127557052,0.01404684716676857,,,,,0.4596566181537487,1655,1945,1,0.65,WHITE,WHITE,True,0,0.0017000002117129043,WHITE,True,CORRECT,0.6137397000002238,613.7397000002238
3,20260325_121052,D,J,False,AUTOMATION2,4,199,1499,fixed_delta,0.03626602127557052,0.01404684716676857,,,,,0.5392854673153624,1941,1659,1,0.65,BLACK,BLACK,True,0,0.0015999994502635673,BLACK,True,CORRECT,0.7257864999992307,725.7864999992307
3,20260325_121052,D,J,False,AUTOMATION2,4,200,1500,fixed_delta,0.03626602127557052,0.01404684716676857,,,,,0.4463469819634881,1607,1993,1,0.65,WHITE,WHITE,True,0,0.0017000002117129043,WHITE,True,CORRECT,0.5579933000008168,557.9933000008168
3,20260325_121052,D,J,False,AUTOMATION2,4,201,1501,fixed_delta,0.03626602127557052,0.01404684716676857,,,,,0.5264530523598003,1895,1705,1,0.65,BLACK,WHITE,False,0,0.0015000005078036338,BLACK,True,CORRECT,0.9739131000005727,973.9131000005727
3,20260325_121052,D,J,False,AUTOMATION2,4,202,1502,fixed_delta,0.03626602127557052,0.01404684716676857,,,,,0.5418658143309704,1951,1649,1,0.65,BLACK,BLACK,True,0,0.0018999999156221747,BLACK,True,CORRECT,4.859220199999982,4859.220199999982
3,20260325_121052,D,J,False,AUTOMATION2,4,203,1503,fixed_delta,0.03626602127557052,0.01404684716676857,,,,,0.47176990397521273,1698,1902,1,0.65,WHITE,WHITE,True,0,0.0014999986888142303,WHITE,True,CORRECT,0.6543370999988838,654.3370999988838
3,20260325_121052,D,J,False,AUTOMATION2,4,204,1504,fixed_delta,0.03626602127557052,0.01404684716676857,,,,,0.4690869103868598,1689,1911,1,0.65,WHITE,BLACK,False,0,0.0017000002117129043,WHITE,True,CORRECT,0.5530854999997246,553.0854999997246
3,20260325_121052,D,J,False,AUTOMATION2,4,205,1505,fixed_delta,0.03626602127557052,0.01404684716676857,,,,,0.5419875096987316,1951,1649,1,0.65,BLACK,BLACK,True,0,0.0017999991541728377,WHITE,False,INCORRECT,0.4808367999994516,480.8367999994516
3,20260325_121052,D,J,False,AUTOMATION2,4,206,1506,fixed_delta,0.03626602127557052,0.01404684716676857,,,,,0.4762006211413894,1714,1886,1,0.65,WHITE,BLACK,False,0,0.0014999986888142303,WHITE,True,CORRECT,0.9647365000000718,964.7365000000718
3,20260325_121052,D,J,False,AUTOMATION2,4,207,1507,fixed_delta,0.03626602127557052,0.01404684716676857,,,,,0.5356922394397357,1928,1672,1,0.65,BLACK,BLACK,True,0,0.0015000005078036338,BLACK,True,CORRECT,0.9514178000008542,951.4178000008542
3,20260325_121052,D,J,False,AUTOMATION2,4,208,1508,fixed_delta,0.03626602127557052,0.01404684716676857,,,,,0.5305728541826852,1910,1690,1,0.65,BLACK,WHITE,False,0,0.0015999994502635673,BLACK,True,CORRECT,0.8374540000004345,837.4540000004345
3,20260325_121052,D,J,False,AUTOMATION2,4,209,1509,fixed_delta,0.03626602127557052,0.01404684716676857,,,,,0.5643285738507465,2032,1568,1,0.65,BLACK,BLACK,True,0,0.0015999994502635673,BLACK,True,CORRECT,0.7325602000000799,732.5602000000799
3,20260325_121052,D,J,False,AUTOMATION2,4,210,1510,fixed_delta,0.03626602127557052,0.01404684716676857,,,,,0.532011538255227,1915,1685,1,0.65,BLACK,WHITE,False,0,0.0015999994502635673,BLACK,True,CORRECT,0.5386194000002433,538.6194000002433
3,20260325_121052,D,J,False,AUTOMATION2,4,211,1511,fixed_delta,0.03626602127557052,0.01404684716676857,,,,,0.46095106205222913,1659,1941,1,0.65,WHITE,BLACK,False,0,0.0015999994502635673,WHITE,True,CORRECT,0.5173962999997457,517.3962999997457
3,20260325_121052,D,J,False,AUTOMATION2,4,212,1512,fixed_delta,0.03626602127557052,0.01404684716676857,,,,,0.4520221168628337,1627,1973,1,0.65,WHITE,WHITE,True,0,0.0015000005078036338,WHITE,True,CORRECT,0.46100490000026184,461.00490000026184
3,20260325_121052,D,J,False,AUTOMATION2,4,213,1513,fixed_delta,0.03626602127557052,0.01404684716676857,,,,,0.5280759555579867,1901,1699,1,0.65,BLACK,WHITE,False,0,0.0013999997463542968,BLACK,True,CORRECT,0.8211823999990884,821.1823999990884
3,20260325_121052,D,J,False,AUTOMATION2,4,214,1514,fixed_delta,0.03626602127557052,0.01404684716676857,,,,,0.4453361474179322,1603,1997,1,0.65,WHITE,WHITE,True,0,0.0020000006770715117,BLACK,False,INCORRECT,0.6130202000003919,613.0202000003919
3,20260325_121052,D,J,False,AUTOMATION2,4,215,1515,fixed_delta,0.03626602127557052,0.01404684716676857,,,,,0.4773365232297662,1718,1882,1,0.65,WHITE,WHITE,True,0,0.002099999619531445,WHITE,True,CORRECT,0.7799840999996377,779.9840999996377
3,20260325_121052,D,J,False,AUTOMATION2,4,216,1516,fixed_delta,0.03626602127557052,0.01404684716676857,,,,,0.5234926433207218,1885,1715,1,0.65,BLACK,BLACK,True,0,0.0017000002117129043,WHITE,False,INCORRECT,0.6580697999997938,658.0697999997938
3,20260325_121052,D,J,False,AUTOMATION2,4,217,1517,fixed_delta,0.03626602127557052,0.01404684716676857,,,,,0.4566708692587562,1644,1956,1,0.65,WHITE,WHITE,True,0,0.0013999997463542968,WHITE,True,CORRECT,1.0527791000004072,1052.7791000004072
3,20260325_121052,D,J,False,AUTOMATION2,4,218,1518,fixed_delta,0.03626602127557052,0.01404684716676857,,,,,0.5402147235051827,1945,1655,1,0.65,BLACK,BLACK,True,0,0.0015000005078036338,BLACK,True,CORRECT,0.9663641000006464,966.3641000006464
3,20260325_121052,D,J,False,AUTOMATION2,4,219,1519,fixed_delta,0.03626602127557052,0.01404684716676857,,,,,0.5432621376923988,1956,1644,1,0.65,BLACK,BLACK,True,0,0.0015999994502635673,BLACK,True,CORRECT,0.7964339000009204,796.4339000009204
3,20260325_121052,D,J,False,AUTOMATION2,4,220,1520,fixed_delta,0.03626602127557052,0.01404684716676857,,,,,0.45502728073872634,1638,1962,1,0.65,WHITE,BLACK,False,0,0.0015000005078036338,WHITE,True,CORRECT,0.8891407999999501,889.1407999999501
3,20260325_121052,D,J,False,AUTOMATION2,4,221,1521,fixed_delta,0.03626602127557052,0.01404684716676857,,,,,0.5343152421239039,1924,1676,1,0.65,BLACK,BLACK,True,0,0.0018999999156221747,BLACK,True,CORRECT,0.7577479000010499,757.7479000010499
3,20260325_121052,D,J,False,AUTOMATION2,4,222,1522,fixed_delta,0.03626602127557052,0.01404684716676857,,,,,0.5265994941763538,1896,1704,1,0.65,BLACK,BLACK,True,0,0.0015000005078036338,WHITE,False,INCORRECT,1.496354099999735,1496.354099999735
3,20260325_121052,D,J,False,AUTOMATION2,4,223,1523,fixed_delta,0.03626602127557052,0.01404684716676857,,,,,0.4701888944480349,1693,1907,1,0.65,WHITE,BLACK,False,0,0.0013999997463542968,BLACK,False,INCORRECT,0.6252034999997704,625.2034999997704
3,20260325_121052,D,J,False,AUTOMATION2,4,224,1524,fixed_delta,0.03626602127557052,0.01404684716676857,,,,,0.5261127745704949,1894,1706,1,0.65,BLACK,BLACK,True,0,0.0018000009731622413,BLACK,True,CORRECT,0.6101576000000932,610.1576000000932
3,20260325_121052,D,J,False,AUTOMATION2,4,225,1525,fixed_delta,0.03626602127557052,0.01404684716676857,,,,,0.5411963751609898,1948,1652,1,0.65,BLACK,WHITE,False,0,0.0013999997463542968,BLACK,True,CORRECT,0.5711845999994694,571.1845999994694
3,20260325_121052,D,J,False,AUTOMATION2,4,226,1526,fixed_delta,0.03626602127557052,0.01404684716676857,,,,,0.4624084001564275,1665,1935,1,0.65,WHITE,WHITE,True,0,0.0013999997463542968,WHITE,True,CORRECT,0.8732581000003847,873.2581000003847
3,20260325_121052,D,J,False,AUTOMATION2,4,227,1527,fixed_delta,0.03626602127557052,0.01404684716676857,,,,,0.5407007407414297,1947,1653,1,0.65,BLACK,WHITE,False,0,0.0017000002117129043,BLACK,True,CORRECT,0.6337413000001106,633.7413000001106
3,20260325_121052,D,J,False,AUTOMATION2,4,228,1528,fixed_delta,0.03626602127557052,0.01404684716676857,,,,,0.44856078289069395,1615,1985,1,0.65,WHITE,WHITE,True,0,0.0015000005078036338,BLACK,False,INCORRECT,0.776694199999838,776.694199999838
3,20260325_121052,D,J,False,AUTOMATION2,4,229,1529,fixed_delta,0.03626602127557052,0.01404684716676857,,,,,0.447584965628851,1611,1989,1,0.65,WHITE,WHITE,True,0,0.0013999997463542968,WHITE,True,CORRECT,1.5116007999986323,1511.6007999986323
3,20260325_121052,D,J,False,AUTOMATION2,4,230,1530,fixed_delta,0.03626602127557052,0.01404684716676857,,,,,0.4568880951307748,1645,1955,1,0.65,WHITE,WHITE,True,0,0.0015999994502635673,WHITE,True,CORRECT,1.0414416999992682,1041.4416999992682
3,20260325_121052,D,J,False,AUTOMATION2,4,231,1531,fixed_delta,0.03626602127557052,0.01404684716676857,,,,,0.4563330353794219,1643,1957,1,0.65,WHITE,WHITE,True,0,0.0013999997463542968,WHITE,True,CORRECT,0.6502182000003813,650.2182000003813
3,20260325_121052,D,J,False,AUTOMATION2,4,232,1532,fixed_delta,0.03626602127557052,0.01404684716676857,,,,,0.45078713174628526,1623,1977,1,0.65,WHITE,BLACK,False,0,0.002099999619531445,WHITE,True,CORRECT,0.5893333000003622,589.3333000003622
3,20260325_121052,D,J,False,AUTOMATION2,4,233,1533,fixed_delta,0.03626602127557052,0.01404684716676857,,,,,0.5344451482359119,1924,1676,1,0.65,BLACK,BLACK,True,0,0.0015000005078036338,BLACK,True,CORRECT,0.9587803000013082,958.7803000013082
3,20260325_121052,D,J,False,AUTOMATION2,4,234,1534,fixed_delta,0.03626602127557052,0.01404684716676857,,,,,0.4745587367904397,1708,1892,1,0.65,WHITE,WHITE,True,0,0.0014999986888142303,WHITE,True,CORRECT,3.375109499998871,3375.109499998871
3,20260325_121052,D,J,False,AUTOMATION2,4,235,1535,fixed_delta,0.03626602127557052,0.01404684716676857,,,,,0.5464480741717159,1967,1633,1,0.65,BLACK,BLACK,True,0,0.0015000005078036338,BLACK,True,CORRECT,0.8733855000009498,873.3855000009498
3,20260325_121052,D,J,False,AUTOMATION2,4,236,1536,fixed_delta,0.03626602127557052,0.01404684716676857,,,,,0.5276046744150724,1899,1701,1,0.65,BLACK,BLACK,True,0,0.0013999997463542968,BLACK,True,CORRECT,0.6034787999997206,603.4787999997206
3,20260325_121052,D,J,False,AUTOMATION2,4,237,1537,fixed_delta,0.03626602127557052,0.01404684716676857,,,,,0.5464077990072784,1967,1633,1,0.65,BLACK,WHITE,False,0,0.0015000005078036338,BLACK,True,CORRECT,1.2343025999998645,1234.3025999998645
3,20260325_121052,D,J,False,AUTOMATION2,4,238,1538,fixed_delta,0.03626602127557052,0.01404684716676857,,,,,0.47387270738610987,1706,1894,1,0.65,WHITE,WHITE,True,0,0.0013999997463542968,WHITE,True,CORRECT,1.3231125000002066,1323.1125000002066
3,20260325_121052,D,J,False,AUTOMATION2,4,239,1539,fixed_delta,0.03626602127557052,0.01404684716676857,,,,,0.5527007374489151,1990,1610,1,0.65,BLACK,BLACK,True,0,0.0015999994502635673,BLACK,True,CORRECT,2.013093300000037,2013.0933000000368
3,20260325_121052,D,J,False,AUTOMATION2,4,240,1540,fixed_delta,0.03626602127557052,0.01404684716676857,,,,,0.46760434630801473,1683,1917,1,0.65,WHITE,BLACK,False,0,0.0018000009731622413,WHITE,True,CORRECT,1.7409818000014639,1740.9818000014639
3,20260325_121052,D,J,False,AUTOMATION2,4,241,1541,fixed_delta,0.03626602127557052,0.01404684716676857,,,,,0.4370534695819036,1573,2027,1,0.65,WHITE,WHITE,True,0,0.0013000008038943633,WHITE,True,CORRECT,0.633725300000151,633.725300000151
3,20260325_121052,D,J,False,AUTOMATION2,4,242,1542,fixed_delta,0.03626602127557052,0.01404684716676857,,,,,0.466070446095814,1678,1922,1,0.65,WHITE,BLACK,False,0,0.0016999983927235007,WHITE,True,CORRECT,0.6548409999995783,654.8409999995783
3,20260325_121052,D,J,False,AUTOMATION2,4,243,1543,fixed_delta,0.03626602127557052,0.01404684716676857,,,,,0.5327618567698351,1918,1682,1,0.65,BLACK,BLACK,True,0,0.0013999997463542968,BLACK,True,CORRECT,0.5824046999987331,582.4046999987331
3,20260325_121052,D,J,False,AUTOMATION2,4,244,1544,fixed_delta,0.03626602127557052,0.01404684716676857,,,,,0.5252187622699104,1891,1709,1,0.65,BLACK,WHITE,False,0,0.0017000002117129043,BLACK,True,CORRECT,0.7875282000004518,787.5282000004518
3,20260325_121052,D,J,False,AUTOMATION2,4,245,1545,fixed_delta,0.03626602127557052,0.01404684716676857,,,,,0.461862988358101,1663,1937,1,0.65,WHITE,BLACK,False,0,0.0017000002117129043,WHITE,True,CORRECT,1.770379600000524,1770.379600000524
3,20260325_121052,D,J,False,AUTOMATION2,4,246,1546,fixed_delta,0.03626602127557052,0.01404684716676857,,,,,0.5311772642826615,1912,1688,1,0.65,BLACK,BLACK,True,0,0.0017000002117129043,BLACK,True,CORRECT,0.9866055999991659,986.6055999991659
3,20260325_121052,D,J,False,AUTOMATION2,4,247,1547,fixed_delta,0.03626602127557052,0.01404684716676857,,,,,0.45941591699973705,1654,1946,1,0.65,WHITE,WHITE,True,0,0.0015000005078036338,BLACK,False,INCORRECT,0.8512833999993745,851.2833999993745
3,20260325_121052,D,J,False,AUTOMATION2,4,248,1548,fixed_delta,0.03626602127557052,0.01404684716676857,,,,,0.5246569247855031,1889,1711,1,0.65,BLACK,BLACK,True,0,0.0015000005078036338,WHITE,False,INCORRECT,0.661939199999324,661.939199999324
3,20260325_121052,D,J,False,AUTOMATION2,4,249,1549,fixed_delta,0.03626602127557052,0.01404684716676857,,,,,0.4585571650616922,1651,1949,1,0.65,WHITE,BLACK,False,0,0.0015999994502635673,BLACK,False,INCORRECT,0.736209400000007,736.209400000007
3,20260325_121052,D,J,False,AUTOMATION2,4,250,1550,fixed_delta,0.03626602127557052,0.01404684716676857,,,,,0.5176360624847834,1863,1737,1,0.65,BLACK,BLACK,True,0,0.0018000009731622413,BLACK,True,CORRECT,1.4407976000002236,1440.7976000002236
3,20260325_121052,D,J,False,AUTOMATION2,4,251,1551,fixed_delta,0.03626602127557052,0.01404684716676857,,,,,0.4662278475583075,1678,1922,1,0.65,WHITE,WHITE,True,0,0.0012999989849049598,BLACK,False,INCORRECT,0.8043748999989475,804.3748999989475
3,20260325_121052,D,J,False,AUTOMATION2,4,252,1552,fixed_delta,0.03626602127557052,0.01404684716676857,,,,,0.45698875198100414,1645,1955,1,0.65,WHITE,BLACK,False,0,0.0015999994502635673,WHITE,True,CORRECT,0.6140493000002607,614.0493000002607
3,20260325_121052,D,J,False,AUTOMATION2,4,253,1553,fixed_delta,0.03626602127557052,0.01404684716676857,,,,,0.528332776679609,1902,1698,1,0.65,BLACK,BLACK,True,0,0.0015999994502635673,BLACK,True,CORRECT,1.913442799999757,1913.442799999757
3,20260325_121052,D,J,False,AUTOMATION2,4,254,1554,fixed_delta,0.03626602127557052,0.01404684716676857,,,,,0.4444497546642817,1600,2000,1,0.65,WHITE,BLACK,False,0,0.0013999997463542968,WHITE,True,CORRECT,0.8501632999996218,850.1632999996218
3,20260325_121052,D,J,False,AUTOMATION2,4,255,1555,fixed_delta,0.03626602127557052,0.01404684716676857,,,,,0.5329756709425004,1919,1681,1,0.65,BLACK,WHITE,False,0,0.0018999999156221747,BLACK,True,CORRECT,0.6781929000007949,678.1929000007949
3,20260325_121052,D,J,False,AUTOMATION2,4,256,1556,fixed_delta,0.03626602127557052,0.01404684716676857,,,,,0.45750261560751143,1647,1953,1,0.65,WHITE,BLACK,False,0,0.0012999989849049598,WHITE,True,CORRECT,0.83151480000015,831.51480000015
3,20260325_121052,D,J,False,AUTOMATION2,4,257,1557,fixed_delta,0.03626602127557052,0.01404684716676857,,,,,0.45527351271726657,1639,1961,1,0.65,WHITE,WHITE,True,0,0.0014000015653437003,WHITE,True,CORRECT,0.7330787999999302,733.0787999999302
3,20260325_121052,D,J,False,AUTOMATION2,4,258,1558,fixed_delta,0.03626602127557052,0.01404684716676857,,,,,0.5717582495514375,2058,1542,1,0.65,BLACK,WHITE,False,0,0.0016000012692529708,BLACK,True,CORRECT,1.6425342000002274,1642.5342000002274
3,20260325_121052,D,J,False,AUTOMATION2,4,259,1559,fixed_delta,0.03626602127557052,0.01404684716676857,,,,,0.5535162952635686,1993,1607,1,0.65,BLACK,BLACK,True,0,0.0015000005078036338,BLACK,True,CORRECT,0.7729434000011679,772.9434000011679
3,20260325_121052,D,J,False,AUTOMATION2,4,260,1560,fixed_delta,0.03626602127557052,0.01404684716676857,,,,,0.530299359814357,1909,1691,1,0.65,BLACK,WHITE,False,0,0.0013999997463542968,BLACK,True,CORRECT,0.5894563999991078,589.4563999991078
3,20260325_121052,D,J,False,AUTOMATION2,4,261,1561,fixed_delta,0.03626602127557052,0.01404684716676857,,,,,0.4224998269474078,1521,2079,1,0.65,WHITE,WHITE,True,0,0.0016000012692529708,WHITE,True,CORRECT,0.6220423000013398,622.0423000013398
3,20260325_121052,D,J,False,AUTOMATION2,4,262,1562,fixed_delta,0.03626602127557052,0.01404684716676857,,,,,0.464549127900067,1672,1928,1,0.65,WHITE,WHITE,True,0,0.0015000005078036338,WHITE,True,CORRECT,0.7757775000009133,775.7775000009133
3,20260325_121052,D,J,False,AUTOMATION2,4,263,1563,fixed_delta,0.03626602127557052,0.01404684716676857,,,,,0.5192449260734143,1869,1731,1,0.65,BLACK,BLACK,True,0,0.0013999997463542968,WHITE,False,INCORRECT,0.9914352999985567,991.4352999985567
3,20260325_121052,D,J,False,AUTOMATION2,4,264,1564,fixed_delta,0.03626602127557052,0.01404684716676857,,,,,0.468520484629872,1687,1913,1,0.65,WHITE,WHITE,True,0,0.0015999994502635673,WHITE,True,CORRECT,1.718822499999078,1718.822499999078
3,20260325_121052,D,J,False,AUTOMATION2,4,265,1565,fixed_delta,0.03626602127557052,0.01404684716676857,,,,,0.4526676736964409,1630,1970,1,0.65,WHITE,WHITE,True,0,0.0018999999156221747,WHITE,True,CORRECT,2.320286099999066,2320.286099999066
3,20260325_121052,D,J,False,AUTOMATION2,4,266,1566,fixed_delta,0.03626602127557052,0.01404684716676857,,,,,0.5248111631563271,1889,1711,1,0.65,BLACK,BLACK,True,0,0.0017000002117129043,BLACK,True,CORRECT,5.821277000000919,5821.277000000919
3,20260325_121052,D,J,False,AUTOMATION2,4,267,1567,fixed_delta,0.03626602127557052,0.01404684716676857,,,,,0.5645092311233413,2032,1568,1,0.65,BLACK,BLACK,True,0,0.001999998858082108,BLACK,True,CORRECT,1.1556901999992988,1155.6901999992988
3,20260325_121052,D,J,False,AUTOMATION2,4,268,1568,fixed_delta,0.03626602127557052,0.01404684716676857,,,,,0.4577282514976982,1648,1952,1,0.65,WHITE,WHITE,True,0,0.0013999997463542968,BLACK,False,INCORRECT,0.9270046000001457,927.0046000001457
3,20260325_121052,D,J,False,AUTOMATION2,4,269,1569,fixed_delta,0.03626602127557052,0.01404684716676857,,,,,0.4657511501651603,1677,1923,1,0.65,WHITE,WHITE,True,0,0.0013999997463542968,WHITE,True,CORRECT,1.2522480999996333,1252.2480999996333
3,20260325_121052,D,J,False,AUTOMATION2,4,270,1570,fixed_delta,0.03626602127557052,0.01404684716676857,,,,,0.45253995894782667,1629,1971,1,0.65,WHITE,WHITE,True,0,0.0017000002117129043,BLACK,False,INCORRECT,2.115031799999997,2115.031799999997
3,20260325_121052,D,J,False,AUTOMATION2,4,271,1571,fixed_delta,0.03626602127557052,0.01404684716676857,,,,,0.522635902556045,1881,1719,1,0.65,BLACK,BLACK,True,0,0.0016000012692529708,WHITE,False,INCORRECT,1.0186100999999326,1018.6100999999326
3,20260325_121052,D,J,False,AUTOMATION2,4,272,1572,fixed_delta,0.03626602127557052,0.01404684716676857,,,,,0.46412297283985654,1671,1929,1,0.65,WHITE,WHITE,True,0,0.0017000002117129043,WHITE,True,CORRECT,1.4903553999993164,1490.3553999993164
3,20260325_121052,D,J,False,AUTOMATION2,4,273,1573,fixed_delta,0.03626602127557052,0.01404684716676857,,,,,0.5369407288367907,1933,1667,1,0.65,BLACK,BLACK,True,0,0.0014999986888142303,BLACK,True,CORRECT,0.7090934999996534,709.0934999996534
3,20260325_121052,D,J,False,AUTOMATION2,4,274,1574,fixed_delta,0.03626602127557052,0.01404684716676857,,,,,0.46645314135214727,1679,1921,1,0.65,WHITE,WHITE,True,0,0.0014999986888142303,BLACK,False,INCORRECT,2.2783010999992257,2278.3010999992257
3,20260325_121052,D,J,False,AUTOMATION2,4,275,1575,fixed_delta,0.03626602127557052,0.01404684716676857,,,,,0.49972222222222223,1799,1801,1,0.65,WHITE,WHITE,True,0,0.0015000005078036338,BLACK,False,INCORRECT,0.7857098000004044,785.7098000004044
3,20260325_121052,D,J,False,AUTOMATION2,4,276,1576,fixed_delta,0.03626602127557052,0.01404684716676857,,,,,0.5404506978342988,1946,1654,1,0.65,BLACK,BLACK,True,0,0.0017000002117129043,BLACK,True,CORRECT,1.1938719999998284,1193.8719999998284
3,20260325_121052,D,J,False,AUTOMATION2,4,277,1577,fixed_delta,0.03626602127557052,0.01404684716676857,,,,,0.5046697187273329,1817,1783,1,0.65,BLACK,WHITE,False,0,0.0015000005078036338,WHITE,False,INCORRECT,1.9060308000007353,1906.0308000007353
3,20260325_121052,D,J,False,AUTOMATION2,4,278,1578,fixed_delta,0.03626602127557052,0.01404684716676857,,,,,0.518947318233358,1868,1732,1,0.65,BLACK,WHITE,False,0,0.0014000015653437003,WHITE,False,INCORRECT,2.5687114000011206,2568.7114000011206
3,20260325_121052,D,J,False,AUTOMATION2,4,279,1579,fixed_delta,0.03626602127557052,0.01404684716676857,,,,,0.4499290709222268,1620,1980,1,0.65,WHITE,WHITE,True,0,0.0018999999156221747,WHITE,True,CORRECT,1.7102113999990252,1710.2113999990252
3,20260325_121052,D,J,False,AUTOMATION2,4,280,1580,fixed_delta,0.03626602127557052,0.01404684716676857,,,,,0.5355849104116617,1928,1672,1,0.65,BLACK,BLACK,True,0,0.0016000012692529708,BLACK,True,CORRECT,1.3541452999998,1354.1452999998
3,20260325_121052,D,J,False,AUTOMATION2,4,281,1581,fixed_delta,0.03626602127557052,0.01404684716676857,,,,,0.4694261187782814,1690,1910,1,0.65,WHITE,WHITE,True,0,0.0015000005078036338,WHITE,True,CORRECT,0.9562286000000313,956.2286000000313
3,20260325_121052,D,J,False,AUTOMATION2,4,282,1582,fixed_delta,0.03626602127557052,0.01404684716676857,,,,,0.48187020737482983,1735,1865,1,0.65,WHITE,BLACK,False,0,0.0015999994502635673,WHITE,True,CORRECT,1.4047373000012158,1404.7373000012158
3,20260325_121052,D,J,False,AUTOMATION2,4,283,1583,fixed_delta,0.03626602127557052,0.01404684716676857,,,,,0.46034330166812976,1657,1943,1,0.65,WHITE,WHITE,True,0,0.0015000005078036338,BLACK,False,INCORRECT,0.8774640999999974,877.4640999999974
3,20260325_121052,D,J,False,AUTOMATION2,4,284,1584,fixed_delta,0.03626602127557052,0.01404684716676857,,,,,0.5286869934147845,1903,1697,1,0.65,BLACK,BLACK,True,0,0.0013999997463542968,WHITE,False,INCORRECT,1.5410867000009603,1541.0867000009603
3,20260325_121052,D,J,False,AUTOMATION2,4,285,1585,fixed_delta,0.03626602127557052,0.01404684716676857,,,,,0.4629671523501228,1667,1933,1,0.65,WHITE,BLACK,False,0,0.0013999997463542968,WHITE,True,CORRECT,0.4711637000000337,471.1637000000337
3,20260325_121052,D,J,False,AUTOMATION2,4,286,1586,fixed_delta,0.03626602127557052,0.01404684716676857,,,,,0.4686623739849671,1687,1913,1,0.65,WHITE,WHITE,True,0,0.0017000002117129043,WHITE,True,CORRECT,0.6006290999994235,600.6290999994235
3,20260325_121052,D,J,False,AUTOMATION2,4,287,1587,fixed_delta,0.03626602127557052,0.01404684716676857,,,,,0.5591407828785182,2013,1587,1,0.65,BLACK,BLACK,True,0,0.0018999999156221747,BLACK,True,CORRECT,0.6490541999992274,649.0541999992274
3,20260325_121052,D,J,False,AUTOMATION2,4,288,1588,fixed_delta,0.03626602127557052,0.01404684716676857,,,,,0.46015165324665624,1657,1943,1,0.65,WHITE,WHITE,True,0,0.0017000002117129043,BLACK,False,INCORRECT,0.5836350000008679,583.6350000008679
3,20260325_121052,D,J,False,AUTOMATION2,4,289,1589,fixed_delta,0.03626602127557052,0.01404684716676857,,,,,0.5504174665857022,1982,1618,1,0.65,BLACK,WHITE,False,0,0.0015000005078036338,BLACK,True,CORRECT,0.7201278000011371,720.1278000011371
3,20260325_121052,D,J,False,AUTOMATION2,4,290,1590,fixed_delta,0.03626602127557052,0.01404684716676857,,,,,0.5212455937822239,1876,1724,1,0.65,BLACK,WHITE,False,0,0.0017000002117129043,WHITE,False,INCORRECT,0.6086199000001216,608.6199000001216
3,20260325_121052,D,J,False,AUTOMATION2,4,291,1591,fixed_delta,0.03626602127557052,0.01404684716676857,,,,,0.4504871057827166,1622,1978,1,0.65,WHITE,WHITE,True,0,0.001999998858082108,WHITE,True,CORRECT,0.6884080999989237,688.4080999989237
3,20260325_121052,D,J,False,AUTOMATION2,4,292,1592,fixed_delta,0.03626602127557052,0.01404684716676857,,,,,0.5392809271653315,1941,1659,1,0.65,BLACK,BLACK,True,0,0.0017999991541728377,BLACK,True,CORRECT,0.6638891999991756,663.8891999991756
3,20260325_121052,D,J,False,AUTOMATION2,4,293,1593,fixed_delta,0.03626602127557052,0.01404684716676857,,,,,0.5218426020947867,1879,1721,1,0.65,BLACK,BLACK,True,0,0.0015999994502635673,BLACK,True,CORRECT,2.3171856999997544,2317.1856999997544
3,20260325_121052,D,J,False,AUTOMATION2,4,294,1594,fixed_delta,0.03626602127557052,0.01404684716676857,,,,,0.5171162101902562,1862,1738,1,0.65,BLACK,BLACK,True,0,0.0015000005078036338,BLACK,True,CORRECT,0.7389096999995672,738.9096999995672
3,20260325_121052,D,J,False,AUTOMATION2,4,295,1595,fixed_delta,0.03626602127557052,0.01404684716676857,,,,,0.4502690833457058,1621,1979,1,0.65,WHITE,WHITE,True,0,0.0015000005078036338,WHITE,True,CORRECT,0.8111625000001368,811.1625000001368
3,20260325_121052,D,J,False,AUTOMATION2,4,296,1596,fixed_delta,0.03626602127557052,0.01404684716676857,,,,,0.47143905424739796,1697,1903,1,0.65,WHITE,WHITE,True,0,0.0015000005078036338,WHITE,True,CORRECT,0.696258800000578,696.258800000578
3,20260325_121052,D,J,False,AUTOMATION2,4,297,1597,fixed_delta,0.03626602127557052,0.01404684716676857,,,,,0.4637982634747344,1670,1930,1,0.65,WHITE,BLACK,False,0,0.001999998858082108,WHITE,True,CORRECT,0.7219981999987795,721.9981999987795
3,20260325_121052,D,J,False,AUTOMATION2,4,298,1598,fixed_delta,0.03626602127557052,0.01404684716676857,,,,,0.5381389248206364,1937,1663,1,0.65,BLACK,WHITE,False,0,0.0013999997463542968,WHITE,False,INCORRECT,0.9682172000011633,968.2172000011633
3,20260325_121052,D,J,False,AUTOMATION2,4,299,1599,fixed_delta,0.03626602127557052,0.01404684716676857,,,,,0.5124834621562344,1845,1755,1,0.65,BLACK,BLACK,True,0,0.002200000380980782,BLACK,True,CORRECT,0.9612095000011323,961.2095000011323
3,20260325_121052,D,J,False,AUTOMATION2,4,300,1600,fixed_delta,0.03626602127557052,0.01404684716676857,,,,,0.5278273735356882,1900,1700,1,0.65,BLACK,BLACK,True,0,0.0015999994502635673,WHITE,False,INCORRECT,0.9576786999987235,957.6786999987235
3,20260325_121052,D,J,False,AUTOMATION2,4,301,1601,fixed_delta,0.03626602127557052,0.01404684716676857,,,,,0.5274446496441096,1899,1701,1,0.65,BLACK,BLACK,True,0,0.0017999991541728377,BLACK,True,CORRECT,0.8058670999998867,805.8670999998867
3,20260325_121052,D,J,False,AUTOMATION2,4,302,1602,fixed_delta,0.03626602127557052,0.01404684716676857,,,,,0.5412571832274635,1949,1651,1,0.65,BLACK,BLACK,True,0,0.0015000005078036338,BLACK,True,CORRECT,0.9696605999997701,969.66059999977
3,20260325_121052,D,J,False,AUTOMATION2,4,303,1603,fixed_delta,0.03626602127557052,0.01404684716676857,,,,,0.46443632589799533,1672,1928,1,0.65,WHITE,BLACK,False,0,0.0018999999156221747,WHITE,True,CORRECT,0.7884094000000914,788.4094000000914
3,20260325_121052,D,J,False,AUTOMATION2,4,304,1604,fixed_delta,0.03626602127557052,0.01404684716676857,,,,,0.538536228306185,1939,1661,1,0.65,BLACK,BLACK,True,0,0.002099999619531445,BLACK,True,CORRECT,0.6712407000013627,671.2407000013627
3,20260325_121052,D,J,False,AUTOMATION2,4,305,1605,fixed_delta,0.03626602127557052,0.01404684716676857,,,,,0.5184034750512112,1866,1734,1,0.65,BLACK,BLACK,True,0,0.0013999997463542968,WHITE,False,INCORRECT,8.384432099999685,8384.432099999685
3,20260325_121052,D,J,False,AUTOMATION2,4,306,1606,fixed_delta,0.03626602127557052,0.01404684716676857,,,,,0.5083829665386804,1830,1770,1,0.65,BLACK,BLACK,True,0,0.0014999986888142303,BLACK,True,CORRECT,1.640795799999978,1640.795799999978
3,20260325_121052,D,J,False,AUTOMATION2,4,307,1607,fixed_delta,0.03626602127557052,0.01404684716676857,,,,,0.5278100710532703,1900,1700,1,0.65,BLACK,BLACK,True,0,0.0017999991541728377,BLACK,True,CORRECT,0.6751571999993757,675.1571999993757
3,20260325_121052,D,J,False,AUTOMATION2,4,308,1608,fixed_delta,0.03626602127557052,0.01404684716676857,,,,,0.4515188356902977,1625,1975,1,0.65,WHITE,WHITE,True,0,0.0020000006770715117,WHITE,True,CORRECT,0.6679012999993574,667.9012999993574
3,20260325_121052,D,J,False,AUTOMATION2,4,309,1609,fixed_delta,0.03626602127557052,0.01404684716676857,,,,,0.47253753553600386,1701,1899,1,0.65,WHITE,WHITE,True,0,0.0017000002117129043,BLACK,False,INCORRECT,0.8968714000002365,896.8714000002365
3,20260325_121052,D,J,False,AUTOMATION2,4,310,1610,fixed_delta,0.03626602127557052,0.01404684716676857,,,,,0.4510553173386584,1624,1976,1,0.65,WHITE,WHITE,True,0,0.0013999997463542968,WHITE,True,CORRECT,0.6328813000000082,632.8813000000082
3,20260325_121052,D,J,False,AUTOMATION2,4,311,1611,fixed_delta,0.03626602127557052,0.01404684716676857,,,,,0.47701503516293325,1717,1883,1,0.65,WHITE,WHITE,True,0,0.0014000015653437003,WHITE,True,CORRECT,0.7196395000009943,719.6395000009943
3,20260325_121052,D,J,False,AUTOMATION2,4,312,1612,fixed_delta,0.03626602127557052,0.01404684716676857,,,,,0.45402550428312305,1634,1966,1,0.65,WHITE,WHITE,True,0,0.0018000009731622413,WHITE,True,CORRECT,0.6451047000009567,645.1047000009567
3,20260325_121052,D,J,False,AUTOMATION2,4,313,1613,fixed_delta,0.03626602127557052,0.01404684716676857,,,,,0.45752637849052047,1647,1953,1,0.65,WHITE,WHITE,True,0,0.0014999986888142303,WHITE,True,CORRECT,0.8286654999992606,828.6654999992606
3,20260325_121052,D,J,False,AUTOMATION2,4,314,1614,fixed_delta,0.03626602127557052,0.01404684716676857,,,,,0.5386822709516246,1939,1661,1,0.65,BLACK,BLACK,True,0,0.0016000012692529708,BLACK,True,CORRECT,1.0020252000012988,1002.0252000012988
3,20260325_121052,D,J,False,AUTOMATION2,4,315,1615,fixed_delta,0.03626602127557052,0.01404684716676857,,,,,0.5501652236940742,1981,1619,1,0.65,BLACK,BLACK,True,0,0.0013999997463542968,BLACK,True,CORRECT,0.6625248000000283,662.5248000000283
3,20260325_121052,D,J,False,AUTOMATION2,4,316,1616,fixed_delta,0.03626602127557052,0.01404684716676857,,,,,0.5309262080460511,1911,1689,1,0.65,BLACK,BLACK,True,0,0.001999998858082108,BLACK,True,CORRECT,0.7843695999999909,784.3695999999909
3,20260325_121052,D,J,False,AUTOMATION2,4,317,1617,fixed_delta,0.03626602127557052,0.01404684716676857,,,,,0.5510410069280337,1984,1616,1,0.65,BLACK,BLACK,True,0,0.0017000002117129043,BLACK,True,CORRECT,0.7366617999996379,736.6617999996379
3,20260325_121052,D,J,False,AUTOMATION2,4,318,1618,fixed_delta,0.03626602127557052,0.01404684716676857,,,,,0.4418655502848102,1591,2009,1,0.65,WHITE,WHITE,True,0,0.0015999994502635673,WHITE,True,CORRECT,0.6163175000001502,616.3175000001502
3,20260325_121052,D,J,False,AUTOMATION2,4,319,1619,fixed_delta,0.03626602127557052,0.01404684716676857,,,,,0.5405245600686522,1946,1654,1,0.65,BLACK,BLACK,True,0,0.0018999999156221747,BLACK,True,CORRECT,1.1990141000005679,1199.0141000005679
3,20260325_121052,D,J,False,AUTOMATION2,4,320,1620,fixed_delta,0.03626602127557052,0.01404684716676857,,,,,0.5324211701698401,1917,1683,1,0.65,BLACK,WHITE,False,0,0.0017999991541728377,BLACK,True,CORRECT,0.7497722999996768,749.7722999996768
3,20260325_121052,D,J,False,AUTOMATION2,4,321,1621,fixed_delta,0.03626602127557052,0.01404684716676857,,,,,0.5295315839000132,1906,1694,1,0.65,BLACK,BLACK,True,0,0.0015000005078036338,WHITE,False,INCORRECT,0.9400492000004306,940.0492000004306
3,20260325_121052,D,J,False,AUTOMATION2,4,322,1622,fixed_delta,0.03626602127557052,0.01404684716676857,,,,,0.4385468136283191,1579,2021,1,0.65,WHITE,WHITE,True,0,0.002099999619531445,WHITE,True,CORRECT,0.5861965000003693,586.1965000003693
3,20260325_121052,D,J,False,AUTOMATION2,4,323,1623,fixed_delta,0.03626602127557052,0.01404684716676857,,,,,0.5396445054614268,1943,1657,1,0.65,BLACK,BLACK,True,0,0.0018000009731622413,WHITE,False,INCORRECT,0.6333725000004051,633.3725000004051
3,20260325_121052,D,J,False,AUTOMATION2,4,324,1624,fixed_delta,0.03626602127557052,0.01404684716676857,,,,,0.46672819488532424,1680,1920,1,0.65,WHITE,WHITE,True,0,0.0015000005078036338,WHITE,True,CORRECT,0.4974603000009665,497.4603000009665
3,20260325_121052,D,J,False,AUTOMATION2,4,325,1625,fixed_delta,0.03626602127557052,0.01404684716676857,,,,,0.5554334497820029,2000,1600,1,0.65,BLACK,BLACK,True,0,0.002200000380980782,WHITE,False,INCORRECT,0.858793199999127,858.793199999127
3,20260325_121052,D,J,False,AUTOMATION2,4,326,1626,fixed_delta,0.03626602127557052,0.01404684716676857,,,,,0.5030043749857349,1811,1789,1,0.65,BLACK,BLACK,True,0,0.0015000005078036338,WHITE,False,INCORRECT,0.5278273000003537,527.8273000003537
3,20260325_121052,D,J,False,AUTOMATION2,4,327,1627,fixed_delta,0.03626602127557052,0.01404684716676857,,,,,0.5432813632546761,1956,1644,1,0.65,BLACK,BLACK,True,0,0.0013999997463542968,BLACK,True,CORRECT,1.3690227000006416,1369.0227000006416
3,20260325_121052,D,J,False,AUTOMATION2,4,328,1628,fixed_delta,0.03626602127557052,0.01404684716676857,,,,,0.46455423991602707,1672,1928,1,0.65,WHITE,WHITE,True,0,0.0016000012692529708,WHITE,True,CORRECT,0.9689718000008725,968.9718000008725
3,20260325_121052,D,J,False,AUTOMATION2,4,329,1629,fixed_delta,0.03626602127557052,0.01404684716676857,,,,,0.5289937025431232,1904,1696,1,0.65,BLACK,WHITE,False,0,0.0018000009731622413,BLACK,True,CORRECT,1.2884112000010646,1288.4112000010646
3,20260325_121052,D,J,False,AUTOMATION2,4,330,1630,fixed_delta,0.03626602127557052,0.01404684716676857,,,,,0.4334537421741653,1560,2040,1,0.65,WHITE,BLACK,False,0,0.0013999997463542968,WHITE,True,CORRECT,0.6352007999994385,635.2007999994385
3,20260325_121052,D,J,False,AUTOMATION2,4,331,1631,fixed_delta,0.03626602127557052,0.01404684716676857,,,,,0.5526999501054943,1990,1610,1,0.65,BLACK,WHITE,False,0,0.0014999986888142303,BLACK,True,CORRECT,0.8636358999992808,863.6358999992808
3,20260325_121052,D,J,False,AUTOMATION2,4,332,1632,fixed_delta,0.03626602127557052,0.01404684716676857,,,,,0.45932531491271733,1654,1946,1,0.65,WHITE,WHITE,True,0,0.0012999989849049598,WHITE,True,CORRECT,0.5402166999992914,540.2166999992914
3,20260325_121052,D,J,False,AUTOMATION2,4,333,1633,fixed_delta,0.03626602127557052,0.01404684716676857,,,,,0.5207426155928608,1875,1725,1,0.65,BLACK,BLACK,True,0,0.0014999986888142303,BLACK,True,CORRECT,0.9277205999987927,927.7205999987927
3,20260325_121052,D,J,False,AUTOMATION2,4,334,1634,fixed_delta,0.03626602127557052,0.01404684716676857,,,,,0.472032778739478,1699,1901,1,0.65,WHITE,BLACK,False,0,0.0013000008038943633,WHITE,True,CORRECT,0.7632041000015306,763.2041000015306
3,20260325_121052,D,J,False,AUTOMATION2,4,335,1635,fixed_delta,0.03626602127557052,0.01404684716676857,,,,,0.4461494087952316,1606,1994,1,0.65,WHITE,WHITE,True,0,0.0015000005078036338,WHITE,True,CORRECT,1.0514089000007516,1051.4089000007516
3,20260325_121052,D,J,False,AUTOMATION2,4,336,1636,fixed_delta,0.03626602127557052,0.01404684716676857,,,,,0.45493677689892614,1638,1962,1,0.65,WHITE,WHITE,True,0,0.0017000002117129043,WHITE,True,CORRECT,0.826436500001364,826.436500001364
3,20260325_121052,D,J,False,AUTOMATION2,4,337,1637,fixed_delta,0.03626602127557052,0.01404684716676857,,,,,0.53614470088942,1930,1670,1,0.65,BLACK,WHITE,False,0,0.0016000012692529708,WHITE,False,INCORRECT,1.04615350000131,1046.15350000131
3,20260325_121052,D,J,False,AUTOMATION2,4,338,1638,fixed_delta,0.03626602127557052,0.01404684716676857,,,,,0.47262211298347684,1701,1899,1,0.65,WHITE,WHITE,True,0,0.0016000012692529708,BLACK,False,INCORRECT,0.8530203999998776,853.0203999998776
3,20260325_121052,D,J,False,AUTOMATION2,4,339,1639,fixed_delta,0.03626602127557052,0.01404684716676857,,,,,0.5333186186670895,1920,1680,1,0.65,BLACK,BLACK,True,0,0.0016000012692529708,BLACK,True,CORRECT,1.1445024000004196,1144.5024000004196
3,20260325_121052,D,J,False,AUTOMATION2,4,340,1640,fixed_delta,0.03626602127557052,0.01404684716676857,,,,,0.46305649960705897,1667,1933,1,0.65,WHITE,WHITE,True,0,0.0015000005078036338,WHITE,True,CORRECT,1.0601853000007395,1060.1853000007395
3,20260325_121052,D,J,False,AUTOMATION2,4,341,1641,fixed_delta,0.03626602127557052,0.01404684716676857,,,,,0.523959039482857,1886,1714,1,0.65,BLACK,WHITE,False,0,0.0016000012692529708,WHITE,False,INCORRECT,1.0138400000014371,1013.8400000014371
3,20260325_121052,D,J,False,AUTOMATION2,4,342,1642,fixed_delta,0.03626602127557052,0.01404684716676857,,,,,0.5424218141900282,1953,1647,1,0.65,BLACK,BLACK,True,0,0.0017000002117129043,WHITE,False,INCORRECT,0.8056249000001117,805.6249000001117
3,20260325_121052,D,J,False,AUTOMATION2,4,343,1643,fixed_delta,0.03626602127557052,0.01404684716676857,,,,,0.4725927505929849,1701,1899,1,0.65,WHITE,WHITE,True,0,0.0015999994502635673,WHITE,True,CORRECT,0.6447429999989254,644.7429999989254
3,20260325_121052,D,J,False,AUTOMATION2,4,344,1644,fixed_delta,0.03626602127557052,0.01404684716676857,,,,,0.5329548862590161,1919,1681,1,0.65,BLACK,WHITE,False,0,0.0013999997463542968,WHITE,False,INCORRECT,0.8807455999995,880.7455999995
3,20260325_121052,D,J,False,AUTOMATION2,4,345,1645,fixed_delta,0.03626602127557052,0.01404684716676857,,,,,0.493680812660025,1777,1823,1,0.65,WHITE,WHITE,True,0,0.0013999997463542968,WHITE,True,CORRECT,4.251043000000209,4251.043000000209
3,20260325_121052,D,J,False,AUTOMATION2,4,346,1646,fixed_delta,0.03626602127557052,0.01404684716676857,,,,,0.5546147770316819,1997,1603,1,0.65,BLACK,WHITE,False,0,0.0017000002117129043,BLACK,True,CORRECT,0.8998777999986487,899.8777999986487
3,20260325_121052,D,J,False,AUTOMATION2,4,347,1647,fixed_delta,0.03626602127557052,0.01404684716676857,,,,,0.4887699844542711,1760,1840,1,0.65,WHITE,BLACK,False,0,0.0013000008038943633,WHITE,True,CORRECT,1.0016255999998975,1001.6255999998975
3,20260325_121052,D,J,False,AUTOMATION2,4,348,1648,fixed_delta,0.03626602127557052,0.01404684716676857,,,,,0.5278612941340698,1900,1700,1,0.65,BLACK,BLACK,True,0,0.0018000009731622413,WHITE,False,INCORRECT,1.4274420000001555,1427.4420000001555
3,20260325_121052,D,J,False,AUTOMATION2,4,349,1649,fixed_delta,0.03626602127557052,0.01404684716676857,,,,,0.44650720877185934,1607,1993,1,0.65,WHITE,BLACK,False,0,0.0015000005078036338,WHITE,True,CORRECT,1.366516899999624,1366.516899999624
3,20260325_121052,D,J,False,AUTOMATION2,4,350,1650,fixed_delta,0.03626602127557052,0.01404684716676857,,,,,0.44095824573840986,1587,2013,1,0.65,WHITE,BLACK,False,0,0.0015000005078036338,WHITE,True,CORRECT,0.6008764000016527,600.8764000016527
3,20260325_121052,D,J,False,AUTOMATION2,4,351,1651,fixed_delta,0.03626602127557052,0.01404684716676857,,,,,0.44582379410594664,1605,1995,1,0.65,WHITE,WHITE,True,0,0.002300001142430119,WHITE,True,CORRECT,0.6165490000003047,616.5490000003047
3,20260325_121052,D,J,False,AUTOMATION2,4,352,1652,fixed_delta,0.03626602127557052,0.01404684716676857,,,,,0.5609166112492422,2019,1581,1,0.65,BLACK,WHITE,False,0,0.0015000005078036338,BLACK,True,CORRECT,0.6483137000013812,648.3137000013812
3,20260325_121052,D,J,False,AUTOMATION2,4,353,1653,fixed_delta,0.03626602127557052,0.01404684716676857,,,,,0.4422875065933617,1592,2008,1,0.65,WHITE,WHITE,True,0,0.0014999986888142303,WHITE,True,CORRECT,0.6058931999996275,605.8931999996275
3,20260325_121052,D,J,False,AUTOMATION2,4,354,1654,fixed_delta,0.03626602127557052,0.01404684716676857,,,,,0.464014002224272,1670,1930,1,0.65,WHITE,WHITE,True,0,0.002200000380980782,WHITE,True,CORRECT,0.591507900000579,591.507900000579
3,20260325_121052,D,J,False,AUTOMATION2,4,355,1655,fixed_delta,0.03626602127557052,0.01404684716676857,,,,,0.5389538209678804,1940,1660,1,0.65,BLACK,WHITE,False,0,0.0020000006770715117,BLACK,True,CORRECT,1.7310172000015882,1731.0172000015882
3,20260325_121052,D,J,False,AUTOMATION2,4,356,1656,fixed_delta,0.03626602127557052,0.01404684716676857,,,,,0.446626976208883,1608,1992,1,0.65,WHITE,BLACK,False,0,0.0015000005078036338,WHITE,True,CORRECT,0.6837006999994628,683.7006999994628
3,20260325_121052,D,J,False,AUTOMATION2,4,357,1657,fixed_delta,0.03626602127557052,0.01404684716676857,,,,,0.5510991067509595,1984,1616,1,0.65,BLACK,BLACK,True,0,0.0013000008038943633,WHITE,False,INCORRECT,2.3355102999994415,2335.5102999994415
3,20260325_121052,D,J,False,AUTOMATION2,4,358,1658,fixed_delta,0.03626602127557052,0.01404684716676857,,,,,0.5433107480524944,1956,1644,1,0.65,BLACK,WHITE,False,0,0.0016000012692529708,BLACK,True,CORRECT,0.581800400001157,581.800400001157
3,20260325_121052,D,J,False,AUTOMATION2,4,359,1659,fixed_delta,0.03626602127557052,0.01404684716676857,,,,,0.4596245503079661,1655,1945,1,0.65,WHITE,WHITE,True,0,0.0013999997463542968,BLACK,False,INCORRECT,0.5636273999989498,563.6273999989498
3,20260325_121052,D,J,False,AUTOMATION2,4,360,1660,fixed_delta,0.03626602127557052,0.01404684716676857,,,,,0.4730848983375723,1703,1897,1,0.65,WHITE,WHITE,True,0,0.0016000012692529708,WHITE,True,CORRECT,0.7809114000010595,780.9114000010595
3,20260325_121052,D,J,False,AUTOMATION2,4,361,1661,fixed_delta,0.03626602127557052,0.01404684716676857,,,,,0.4818311316757792,1735,1865,1,0.65,WHITE,WHITE,True,0,0.0018999999156221747,WHITE,True,CORRECT,0.5534456000004866,553.4456000004866
3,20260325_121052,D,J,False,AUTOMATION2,4,362,1662,fixed_delta,0.03626602127557052,0.01404684716676857,,,,,0.4617820081800787,1662,1938,1,0.65,WHITE,BLACK,False,0,0.0013999997463542968,WHITE,True,CORRECT,0.4800217000010889,480.0217000010889
3,20260325_121052,D,J,False,AUTOMATION2,4,363,1663,fixed_delta,0.03626602127557052,0.01404684716676857,,,,,0.5221477551933097,1880,1720,1,0.65,BLACK,WHITE,False,0,0.0013000008038943633,BLACK,True,CORRECT,1.6081380000014178,1608.1380000014178
3,20260325_121052,D,J,False,AUTOMATION2,4,364,1664,fixed_delta,0.03626602127557052,0.01404684716676857,,,,,0.5592543035873289,2013,1587,1,0.65,BLACK,BLACK,True,0,0.0020000006770715117,BLACK,True,CORRECT,2.18676989999949,2186.76989999949
3,20260325_121052,D,J,False,AUTOMATION2,4,365,1665,fixed_delta,0.03626602127557052,0.01404684716676857,,,,,0.47757776384157496,1719,1881,1,0.65,WHITE,WHITE,True,0,0.0013999997463542968,WHITE,True,CORRECT,0.9295916999999463,929.5916999999463
3,20260325_121052,D,J,False,AUTOMATION2,4,366,1666,fixed_delta,0.03626602127557052,0.01404684716676857,,,,,0.4540672930677828,1635,1965,1,0.65,WHITE,WHITE,True,0,0.0016999983927235007,WHITE,True,CORRECT,0.6514511999994284,651.4511999994284
3,20260325_121052,D,J,False,AUTOMATION2,4,367,1667,fixed_delta,0.03626602127557052,0.01404684716676857,,,,,0.5470931337683428,1970,1630,1,0.65,BLACK,BLACK,True,0,0.0015999994502635673,BLACK,True,CORRECT,1.0667298000007577,1066.7298000007577
3,20260325_121052,D,J,False,AUTOMATION2,4,368,1668,fixed_delta,0.03626602127557052,0.01404684716676857,,,,,0.5499407934646868,1980,1620,1,0.65,BLACK,BLACK,True,0,0.002099999619531445,BLACK,True,CORRECT,0.5572883000004367,557.2883000004367
3,20260325_121052,D,J,False,AUTOMATION2,4,369,1669,fixed_delta,0.03626602127557052,0.01404684716676857,,,,,0.4867507753194033,1752,1848,1,0.65,WHITE,BLACK,False,0,0.0013999997463542968,BLACK,False,INCORRECT,0.5025578000004316,502.5578000004316
3,20260325_121052,D,J,False,AUTOMATION2,4,370,1670,fixed_delta,0.03626602127557052,0.01404684716676857,,,,,0.5538723655755462,1994,1606,1,0.65,BLACK,BLACK,True,0,0.0010999992809956893,BLACK,True,CORRECT,0.5520166999995126,552.0166999995126
3,20260325_121052,D,J,False,AUTOMATION2,4,371,1671,fixed_delta,0.03626602127557052,0.01404684716676857,,,,,0.4722596243085322,1700,1900,1,0.65,WHITE,BLACK,False,0,0.0016000012692529708,WHITE,True,CORRECT,0.602560799999992,602.560799999992
3,20260325_121052,D,J,False,AUTOMATION2,4,372,1672,fixed_delta,0.03626602127557052,0.01404684716676857,,,,,0.5273601898381857,1898,1702,1,0.65,BLACK,BLACK,True,0,0.0017999991541728377,BLACK,True,CORRECT,0.7702420999994501,770.2420999994501
3,20260325_121052,D,J,False,AUTOMATION2,4,373,1673,fixed_delta,0.03626602127557052,0.01404684716676857,,,,,0.45713546082802725,1646,1954,1,0.65,WHITE,BLACK,False,0,0.0017000002117129043,BLACK,False,INCORRECT,0.812552000001233,812.552000001233
3,20260325_121052,D,J,False,AUTOMATION2,4,374,1674,fixed_delta,0.03626602127557052,0.01404684716676857,,,,,0.4481207234265426,1613,1987,1,0.65,WHITE,WHITE,True,0,0.0013999997463542968,BLACK,False,INCORRECT,0.7134765999999217,713.4765999999217
3,20260325_121052,D,J,False,AUTOMATION2,4,375,1675,fixed_delta,0.03626602127557052,0.01404684716676857,,,,,0.4353918264755462,1567,2033,1,0.65,WHITE,BLACK,False,0,0.0013999997463542968,BLACK,False,INCORRECT,1.3887021999998979,1388.7021999998979
3,20260325_121052,D,J,False,AUTOMATION2,4,376,1676,fixed_delta,0.03626602127557052,0.01404684716676857,,,,,0.5167612335819335,1860,1740,1,0.65,BLACK,BLACK,True,0,0.0013000008038943633,BLACK,True,CORRECT,1.2783885000008013,1278.3885000008013
3,20260325_121052,D,J,False,AUTOMATION2,4,377,1677,fixed_delta,0.03626602127557052,0.01404684716676857,,,,,0.4522140091765412,1628,1972,1,0.65,WHITE,WHITE,True,0,0.0015000005078036338,WHITE,True,CORRECT,1.2664984000002733,1266.4984000002733
3,20260325_121052,D,J,False,AUTOMATION2,4,378,1678,fixed_delta,0.03626602127557052,0.01404684716676857,,,,,0.5400335392419121,1944,1656,1,0.65,BLACK,WHITE,False,0,0.0014999986888142303,BLACK,True,CORRECT,1.0330492999983107,1033.0492999983107
3,20260325_121052,D,J,False,AUTOMATION2,4,379,1679,fixed_delta,0.03626602127557052,0.01404684716676857,,,,,0.5452008085759985,1963,1637,1,0.65,BLACK,BLACK,True,0,0.001999998858082108,BLACK,True,CORRECT,0.7460326999989775,746.0326999989775
3,20260325_121052,D,J,False,AUTOMATION2,4,380,1680,fixed_delta,0.03626602127557052,0.01404684716676857,,,,,0.450039291198816,1620,1980,1,0.65,WHITE,BLACK,False,0,0.0017000002117129043,WHITE,True,CORRECT,0.5272700000004988,527.2700000004988
3,20260325_121052,D,J,False,AUTOMATION2,4,381,1681,fixed_delta,0.03626602127557052,0.01404684716676857,,,,,0.46168497299236205,1662,1938,1,0.65,WHITE,WHITE,True,0,0.0015000005078036338,WHITE,True,CORRECT,0.6331468999997014,633.1468999997014
3,20260325_121052,D,J,False,AUTOMATION2,4,382,1682,fixed_delta,0.03626602127557052,0.01404684716676857,,,,,0.4571286443920402,1646,1954,1,0.65,WHITE,WHITE,True,0,0.0013999997463542968,WHITE,True,CORRECT,0.591785799999343,591.785799999343
3,20260325_121052,D,J,False,AUTOMATION2,4,383,1683,fixed_delta,0.03626602127557052,0.01404684716676857,,,,,0.5407666669863593,1947,1653,1,0.65,BLACK,BLACK,True,0,0.0013999997463542968,BLACK,True,CORRECT,1.6305836999999883,1630.5836999999883
3,20260325_121052,D,J,False,AUTOMATION2,4,384,1684,fixed_delta,0.03626602127557052,0.01404684716676857,,,,,0.47225563618773964,1700,1900,1,0.65,WHITE,BLACK,False,0,0.0017000002117129043,BLACK,False,INCORRECT,0.5962895000011486,596.2895000011486
3,20260325_121052,D,J,False,AUTOMATION2,4,385,1685,fixed_delta,0.03626602127557052,0.01404684716676857,,,,,0.46170257945371507,1662,1938,1,0.65,WHITE,WHITE,True,0,0.0012999989849049598,BLACK,False,INCORRECT,1.1387835999994422,1138.7835999994422
3,20260325_121052,D,J,False,AUTOMATION2,4,386,1686,fixed_delta,0.03626602127557052,0.01404684716676857,,,,,0.4607376681605936,1659,1941,1,0.65,WHITE,WHITE,True,0,0.0017000002117129043,WHITE,True,CORRECT,0.5890511999987211,589.0511999987211
3,20260325_121052,D,J,False,AUTOMATION2,4,387,1687,fixed_delta,0.03626602127557052,0.01404684716676857,,,,,0.4530541338480739,1631,1969,1,0.65,WHITE,BLACK,False,0,0.0017000002117129043,WHITE,True,CORRECT,0.7300011000006634,730.0011000006634
3,20260325_121052,D,J,False,AUTOMATION2,4,388,1688,fixed_delta,0.03626602127557052,0.01404684716676857,,,,,0.527868784053984,1900,1700,1,0.65,BLACK,WHITE,False,0,0.0015000005078036338,WHITE,False,INCORRECT,4.92515480000111,4925.15480000111
3,20260325_121052,D,J,False,AUTOMATION2,4,389,1689,fixed_delta,0.03626602127557052,0.01404684716676857,,,,,0.5525112371948482,1989,1611,1,0.65,BLACK,BLACK,True,0,0.0015000005078036338,BLACK,True,CORRECT,0.5484701999994286,548.4701999994286
3,20260325_121052,D,J,False,AUTOMATION2,4,390,1690,fixed_delta,0.03626602127557052,0.01404684716676857,,,,,0.49003201455491485,1764,1836,1,0.65,WHITE,WHITE,True,0,0.0015000005078036338,BLACK,False,INCORRECT,3.3515939000008075,3351.5939000008075
3,20260325_121052,D,J,False,AUTOMATION2,4,391,1691,fixed_delta,0.03626602127557052,0.01404684716676857,,,,,0.5260876973063141,1894,1706,1,0.65,BLACK,BLACK,True,0,0.0013999997463542968,BLACK,True,CORRECT,1.1588271000000532,1158.8271000000532
3,20260325_121052,D,J,False,AUTOMATION2,4,392,1692,fixed_delta,0.03626602127557052,0.01404684716676857,,,,,0.5394397162819432,1942,1658,1,0.65,BLACK,BLACK,True,0,0.0017000002117129043,BLACK,True,CORRECT,1.3448066000000836,1344.8066000000836
3,20260325_121052,D,J,False,AUTOMATION2,4,393,1693,fixed_delta,0.03626602127557052,0.01404684716676857,,,,,0.4767004333320674,1716,1884,1,0.65,WHITE,WHITE,True,0,0.0015999994502635673,WHITE,True,CORRECT,1.30823860000055,1308.23860000055
3,20260325_121052,D,J,False,AUTOMATION2,4,394,1694,fixed_delta,0.03626602127557052,0.01404684716676857,,,,,0.5436840068097473,1957,1643,1,0.65,BLACK,BLACK,True,0,0.0015999994502635673,BLACK,True,CORRECT,1.0954335999995237,1095.4335999995237
3,20260325_121052,D,J,False,AUTOMATION2,4,395,1695,fixed_delta,0.03626602127557052,0.01404684716676857,,,,,0.530769047561479,1911,1689,1,0.65,BLACK,WHITE,False,0,0.0015999994502635673,BLACK,True,CORRECT,0.63320080000085,633.20080000085
3,20260325_121052,D,J,False,AUTOMATION2,4,396,1696,fixed_delta,0.03626602127557052,0.01404684716676857,,,,,0.4770729379110004,1717,1883,1,0.65,WHITE,BLACK,False,0,0.0014999986888142303,BLACK,False,INCORRECT,2.5907626999996864,2590.7626999996864
3,20260325_121052,D,J,False,AUTOMATION2,4,397,1697,fixed_delta,0.03626602127557052,0.01404684716676857,,,,,0.5422745756972756,1952,1648,1,0.65,BLACK,WHITE,False,0,0.0014000015653437003,BLACK,True,CORRECT,0.7946396000006644,794.6396000006644
3,20260325_121052,D,J,False,AUTOMATION2,4,398,1698,fixed_delta,0.03626602127557052,0.01404684716676857,,,,,0.5243991195217658,1888,1712,1,0.65,BLACK,BLACK,True,0,0.0013000008038943633,BLACK,True,CORRECT,0.8523075000011886,852.3075000011886
3,20260325_121052,D,J,False,AUTOMATION2,4,399,1699,fixed_delta,0.03626602127557052,0.01404684716676857,,,,,0.547638354190373,1971,1629,1,0.65,BLACK,WHITE,False,0,0.0015000005078036338,BLACK,True,CORRECT,0.7313557000015862,731.3557000015862
3,20260325_121052,D,J,False,AUTOMATION2,4,400,1700,fixed_delta,0.03626602127557052,0.01404684716676857,,,,,0.4666476027274423,1680,1920,1,0.65,WHITE,BLACK,False,0,0.0014999986888142303,WHITE,True,CORRECT,3.817426699999487,3817.426699999487
3,20260325_121052,D,J,False,AUTOMATION2,4,401,1701,fixed_delta,0.03626602127557052,0.01404684716676857,,,,,0.5229060529063136,1882,1718,1,0.65,BLACK,WHITE,False,0,0.0013999997463542968,BLACK,True,CORRECT,1.227570700000797,1227.570700000797
3,20260325_121052,D,J,False,AUTOMATION2,4,402,1702,fixed_delta,0.03626602127557052,0.01404684716676857,,,,,0.4506532578966082,1622,1978,1,0.65,WHITE,BLACK,False,0,0.0015999994502635673,BLACK,False,INCORRECT,0.6804090999994514,680.4090999994514
3,20260325_121052,D,J,False,AUTOMATION2,4,403,1703,fixed_delta,0.03626602127557052,0.01404684716676857,,,,,0.5519812920335293,1987,1613,1,0.65,BLACK,BLACK,True,0,0.0013999997463542968,BLACK,True,CORRECT,0.6905234999994718,690.5234999994718
3,20260325_121052,D,J,False,AUTOMATION2,4,404,1704,fixed_delta,0.03626602127557052,0.01404684716676857,,,,,0.5558358889319577,2001,1599,1,0.65,BLACK,WHITE,False,0,0.0013999997463542968,BLACK,True,CORRECT,0.5428941999998642,542.8941999998642
3,20260325_121052,D,J,False,AUTOMATION2,4,405,1705,fixed_delta,0.03626602127557052,0.01404684716676857,,,,,0.46034398272301924,1657,1943,1,0.65,WHITE,WHITE,True,0,0.0015000005078036338,BLACK,False,INCORRECT,0.5770485000011831,577.0485000011831
3,20260325_121052,D,J,False,AUTOMATION2,4,406,1706,fixed_delta,0.03626602127557052,0.01404684716676857,,,,,0.49972222222222223,1799,1801,1,0.65,WHITE,BLACK,False,0,0.0013999997463542968,WHITE,True,CORRECT,0.8352574000000459,835.2574000000459
3,20260325_121052,D,J,False,AUTOMATION2,4,407,1707,fixed_delta,0.03626602127557052,0.01404684716676857,,,,,0.534457862633912,1924,1676,1,0.65,BLACK,BLACK,True,0,0.0015999994502635673,BLACK,True,CORRECT,2.062005499999941,2062.005499999941
3,20260325_121052,D,J,False,AUTOMATION2,4,408,1708,fixed_delta,0.03626602127557052,0.01404684716676857,,,,,0.47152285259304794,1697,1903,1,0.65,WHITE,BLACK,False,0,0.0013000008038943633,WHITE,True,CORRECT,0.9954955000011978,995.4955000011978
3,20260325_121052,D,J,False,AUTOMATION2,4,409,1709,fixed_delta,0.03626602127557052,0.01404684716676857,,,,,0.44168201471134527,1590,2010,1,0.65,WHITE,WHITE,True,0,0.0017000002117129043,WHITE,True,CORRECT,0.5884528999995382,588.4528999995382
3,20260325_121052,D,J,False,AUTOMATION2,4,410,1710,fixed_delta,0.03626602127557052,0.01404684716676857,,,,,0.5189069379449925,1868,1732,1,0.65,BLACK,WHITE,False,0,0.0014999986888142303,BLACK,True,CORRECT,0.6995783999991545,699.5783999991545
3,20260325_121052,D,J,False,AUTOMATION2,4,411,1711,fixed_delta,0.03626602127557052,0.01404684716676857,,,,,0.4870435108236447,1753,1847,1,0.65,WHITE,WHITE,True,0,0.0012999989849049598,WHITE,True,CORRECT,1.4190459999990708,1419.0459999990708
3,20260325_121052,D,J,False,AUTOMATION2,4,412,1712,fixed_delta,0.03626602127557052,0.01404684716676857,,,,,0.5409378474191735,1947,1653,1,0.65,BLACK,BLACK,True,0,0.0015000005078036338,BLACK,True,CORRECT,0.9477707999994891,947.7707999994891
