participant_id,run_timestamp,key_black,key_white,keymap_flip,block,block_idx,trial,global_trial,difficulty_mode,delta_fixed_mean,delta_fixed_sd,delta_stair_realised,delta_stair_mean,delta_step_down_used,delta_step_up_used,vblack_prop,n_vblack,n_vwhite,auto_on,aid_accuracy_setting,stimulus,aid_label,aid_correct,aid_onset_ms,aid_onset_ms_rel,response,correct,feedback,rt_s,rt_ms
6,20260325_140431,D,J,False,CALIBRATION,1,1,1,staircase,,,0.20271061436697588,0.19,0.01,0.04000000000000001,0.2972893856330241,1070,2530,0,,WHITE,,,0,,WHITE,True,CORRECT,1.089680100001715,1089.680100001715
6,20260325_140431,D,J,False,CALIBRATION,1,2,2,staircase,,,0.19604967637736986,0.18018367346938777,0.009816326530612245,0.03926530612244899,0.6960496763773698,2506,1094,0,,BLACK,,,0,,BLACK,True,CORRECT,1.508347800001502,1508.347800001502
6,20260325_140431,D,J,False,CALIBRATION,1,3,3,staircase,,,0.1807093223594097,0.17055102040816328,0.00963265306122449,0.03853061224489797,0.31929067764059027,1149,2451,0,,WHITE,,,0,,WHITE,True,CORRECT,0.79597830000057,795.97830000057
6,20260325_140431,D,J,False,CALIBRATION,1,4,4,staircase,,,0.17952849732080284,0.16110204081632654,0.009448979591836736,0.03779591836734695,0.32047150267919716,1154,2446,0,,WHITE,,,0,,WHITE,True,CORRECT,0.627039999999397,627.039999999397
6,20260325_140431,D,J,False,CALIBRATION,1,5,5,staircase,,,0.16432537827623644,0.15183673469387757,0.009265306122448979,0.03706122448979592,0.6643253782762364,2392,1208,0,,BLACK,,,0,,BLACK,True,CORRECT,0.5653491999983089,565.3491999983089
6,20260325_140431,D,J,False,CALIBRATION,1,6,6,staircase,,,0.16573047478271224,0.14275510204081635,0.009081632653061224,0.0363265306122449,0.33426952521728776,1203,2397,0,,WHITE,,,0,,WHITE,True,CORRECT,0.6721141999987594,672.1141999987594
6,20260325_140431,D,J,False,CALIBRATION,1,7,7,staircase,,,0.1527476440444076,0.13385714285714287,0.00889795918367347,0.035591836734693884,0.6527476440444075,2350,1250,0,,BLACK,,,0,,BLACK,True,CORRECT,1.1722358000006352,1172.2358000006352
6,20260325_140431,D,J,False,CALIBRATION,1,8,8,staircase,,,0.13817011064534807,0.12514285714285717,0.008714285714285714,0.034857142857142864,0.36182988935465193,1303,2297,0,,WHITE,,,0,,WHITE,True,CORRECT,0.6123109000000113,612.3109000000113
6,20260325_140431,D,J,False,CALIBRATION,1,9,9,staircase,,,0.10792064780848562,0.11661224489795921,0.00853061224489796,0.034122448979591845,0.6079206478084856,2189,1411,0,,BLACK,,,0,,BLACK,True,CORRECT,1.2218905000008817,1221.8905000008817
6,20260325_140431,D,J,False,CALIBRATION,1,10,10,staircase,,,0.1439041151915148,0.108265306122449,0.008346938775510205,0.033387755102040825,0.3560958848084852,1282,2318,0,,WHITE,,,0,,WHITE,True,CORRECT,0.5960511999983282,596.0511999983282
6,20260325_140431,D,J,False,CALIBRATION,1,11,11,staircase,,,0.11473273485922814,0.10010204081632655,0.00816326530612245,0.032653061224489806,0.38526726514077186,1387,2213,0,,WHITE,,,0,,WHITE,True,CORRECT,0.6652720999991288,665.2720999991288
6,20260325_140431,D,J,False,CALIBRATION,1,12,12,staircase,,,0.10228936087561537,0.09212244897959186,0.007979591836734693,0.03191836734693878,0.39771063912438465,1432,2168,0,,WHITE,,,0,,WHITE,True,CORRECT,0.7096916000009514,709.6916000009514
6,20260325_140431,D,J,False,CALIBRATION,1,13,13,staircase,,,0.08885421564989228,0.08432653061224492,0.007795918367346938,0.03118367346938776,0.41114578435010773,1480,2120,0,,WHITE,,,0,,WHITE,True,CORRECT,0.5846923999997671,584.6923999997671
6,20260325_140431,D,J,False,CALIBRATION,1,14,14,staircase,,,0.06637524933749644,0.07671428571428573,0.007612244897959183,0.03044897959183674,0.43362475066250356,1561,2039,0,,WHITE,,,0,,WHITE,True,CORRECT,0.6210432000007131,621.0432000007131
6,20260325_140431,D,J,False,CALIBRATION,1,15,15,staircase,,,0.07700709135716849,0.06928571428571431,0.0074285714285714285,0.02971428571428572,0.5770070913571685,2077,1523,0,,BLACK,,,0,,BLACK,True,CORRECT,1.1209363999987545,1120.9363999987545
6,20260325_140431,D,J,False,CALIBRATION,1,16,16,staircase,,,0.07257196800002774,0.09826530612244902,0.007244897959183674,0.0289795918367347,0.5725719680000277,2061,1539,0,,BLACK,,,0,,WHITE,False,INCORRECT,1.9125472999985504,1912.5472999985504
6,20260325_140431,D,J,False,CALIBRATION,1,17,17,staircase,,,0.0925320270766034,0.0912040816326531,0.007061224489795919,0.028244897959183682,0.5925320270766034,2133,1467,0,,BLACK,,,0,,BLACK,True,CORRECT,1.5198165000001609,1519.8165000001609
6,20260325_140431,D,J,False,CALIBRATION,1,18,18,staircase,,,0.10853541223559214,0.08432653061224495,0.006877551020408163,0.02751020408163266,0.6085354122355922,2191,1409,0,,BLACK,,,0,,BLACK,True,CORRECT,0.7378817999997409,737.8817999997409
6,20260325_140431,D,J,False,CALIBRATION,1,19,19,staircase,,,0.08850448741632053,0.07763265306122454,0.006693877551020407,0.026775510204081636,0.5885044874163206,2119,1481,0,,BLACK,,,0,,BLACK,True,CORRECT,0.6509017000025779,650.9017000025779
6,20260325_140431,D,J,False,CALIBRATION,1,20,20,staircase,,,0.07684465399630205,0.07112244897959188,0.006510204081632652,0.026040816326530616,0.423155346003698,1523,2077,0,,WHITE,,,0,,WHITE,True,CORRECT,0.673878199999308,673.878199999308
6,20260325_140431,D,J,False,CALIBRATION,1,21,21,staircase,,,0.0571346216301592,0.064795918367347,0.0063265306122448975,0.025306122448979597,0.4428653783698408,1594,2006,0,,WHITE,,,0,,WHITE,True,CORRECT,1.0859175000005052,1085.9175000005052
6,20260325_140431,D,J,False,CALIBRATION,1,22,22,staircase,,,0.06731199386567491,0.05865306122448985,0.006142857142857143,0.024571428571428577,0.5673119938656749,2042,1558,0,,BLACK,,,0,,BLACK,True,CORRECT,1.8875286000002234,1887.5286000002234
6,20260325_140431,D,J,False,CALIBRATION,1,23,23,staircase,,,0.06355282055384562,0.052693877551020465,0.005959183673469388,0.023836734693877558,0.5635528205538456,2029,1571,0,,BLACK,,,0,,BLACK,True,CORRECT,3.0966279999993276,3096.6279999993276
6,20260325_140431,D,J,False,CALIBRATION,1,24,24,staircase,,,0.032490804575710214,0.075795918367347,0.005775510204081632,0.02310204081632653,0.5324908045757102,1917,1683,0,,BLACK,,,0,,WHITE,False,INCORRECT,1.33789749999778,1337.89749999778
6,20260325_140431,D,J,False,CALIBRATION,1,25,25,staircase,,,0.06119027859008743,0.09816326530612252,0.005591836734693877,0.022367346938775512,0.5611902785900874,2020,1580,0,,BLACK,,,0,,WHITE,False,INCORRECT,2.1487968000001274,2148.7968000001274
6,20260325_140431,D,J,False,CALIBRATION,1,26,26,staircase,,,0.08811604326061498,0.0927551020408164,0.005408163265306122,0.021632653061224492,0.588116043260615,2117,1483,0,,BLACK,,,0,,BLACK,True,CORRECT,0.9781547999991744,978.1547999991744
6,20260325_140431,D,J,False,CALIBRATION,1,27,27,staircase,,,0.08676886761341546,0.11365306122448987,0.0052244897959183665,0.02089795918367347,0.5867688676134155,2112,1488,0,,BLACK,,,0,,WHITE,False,INCORRECT,2.0620009999984177,2062.0009999984177
6,20260325_140431,D,J,False,CALIBRATION,1,28,28,staircase,,,0.10999752955703974,0.10861224489795926,0.0050408163265306125,0.020163265306122453,0.6099975295570398,2196,1404,0,,BLACK,,,0,,BLACK,True,CORRECT,0.997488599998178,997.488599998178
6,20260325_140431,D,J,False,CALIBRATION,1,29,29,staircase,,,0.09601168121596843,0.10375510204081641,0.004857142857142857,0.01942857142857143,0.5960116812159684,2146,1454,0,,BLACK,,,0,,BLACK,True,CORRECT,2.798875099997531,2798.875099997531
6,20260325_140431,D,J,False,CALIBRATION,1,30,30,staircase,,,0.11547424059421879,0.0990816326530613,0.004673469387755102,0.01869387755102041,0.3845257594057812,1384,2216,0,,WHITE,,,0,,WHITE,True,CORRECT,0.7198676000007254,719.8676000007254
6,20260325_140431,D,J,False,CALIBRATION,1,31,31,staircase,,,0.0830469209415364,0.09459183673469396,0.004489795918367346,0.017959183673469388,0.41695307905846357,1501,2099,0,,WHITE,,,0,,WHITE,True,CORRECT,0.7567899999994552,756.7899999994552
6,20260325_140431,D,J,False,CALIBRATION,1,32,32,staircase,,,0.09328631859922376,0.09028571428571437,0.004306122448979591,0.01722448979591837,0.5932863185992238,2136,1464,0,,BLACK,,,0,,BLACK,True,CORRECT,1.2659011000032478,1265.9011000032478
6,20260325_140431,D,J,False,CALIBRATION,1,33,33,staircase,,,0.08465160413513263,0.08616326530612253,0.004122448979591836,0.01648979591836735,0.5846516041351326,2105,1495,0,,BLACK,,,0,,BLACK,True,CORRECT,1.0025262000017392,1002.5262000017392
6,20260325_140431,D,J,False,CALIBRATION,1,34,34,staircase,,,0.11137647697701034,0.08222448979591845,0.0039387755102040815,0.01575510204081633,0.38862352302298964,1399,2201,0,,WHITE,,,0,,WHITE,True,CORRECT,0.7839797999986331,783.9797999986331
6,20260325_140431,D,J,False,CALIBRATION,1,35,35,staircase,,,0.08898508544873066,0.07846938775510212,0.0037551020408163258,0.015020408163265307,0.5889850854487306,2120,1480,0,,BLACK,,,0,,BLACK,True,CORRECT,0.7683145999981207,768.3145999981207
6,20260325_140431,D,J,False,CALIBRATION,1,36,36,staircase,,,0.06663491727141416,0.07489795918367355,0.003571428571428571,0.014285714285714287,0.43336508272858587,1560,2040,0,,WHITE,,,0,,WHITE,True,CORRECT,0.7447475000008126,744.7475000008126
6,20260325_140431,D,J,False,CALIBRATION,1,37,37,staircase,,,0.08951881980675387,0.07151020408163274,0.003387755102040815,0.013551020408163264,0.5895188198067539,2122,1478,0,,BLACK,,,0,,BLACK,True,CORRECT,0.7541448999982094,754.1448999982094
6,20260325_140431,D,J,False,CALIBRATION,1,38,38,staircase,,,0.049572471446880303,0.06830612244897967,0.003204081632653061,0.012816326530612248,0.5495724714468803,1978,1622,0,,BLACK,,,0,,BLACK,True,CORRECT,3.2388924000006227,3238.8924000006227
6,20260325_140431,D,J,False,CALIBRATION,1,39,39,staircase,,,0.05916563580627096,0.06528571428571436,0.0030204081632653054,0.012081632653061225,0.440834364193729,1587,2013,0,,WHITE,,,0,,WHITE,True,CORRECT,0.8201432999994722,820.1432999994722
6,20260325_140431,D,J,False,CALIBRATION,1,40,40,staircase,,,0.04827945597034967,0.06244897959183681,0.0028367346938775505,0.011346938775510204,0.45172054402965034,1626,1974,0,,WHITE,,,0,,WHITE,True,CORRECT,0.8652005000003555,865.2005000003555
6,20260325_140431,D,J,False,CALIBRATION,1,41,41,staircase,,,0.06297155462390515,0.05979591836734702,0.0026530612244897948,0.01061224489795918,0.5629715546239051,2027,1573,0,,BLACK,,,0,,BLACK,True,CORRECT,1.8460154999993392,1846.0154999993392
6,20260325_140431,D,J,False,CALIBRATION,1,42,42,staircase,,,0.03971330932112606,0.05732653061224498,0.00246938775510204,0.009877551020408161,0.46028669067887396,1657,1943,0,,WHITE,,,0,,WHITE,True,CORRECT,0.9015080999997735,901.5080999997735
6,20260325_140431,D,J,False,CALIBRATION,1,43,43,staircase,,,0.05913873936324993,0.05504081632653069,0.002285714285714285,0.009142857142857142,0.55913873936325,2013,1587,0,,BLACK,,,0,,BLACK,True,CORRECT,0.8828269000005093,882.8269000005093
6,20260325_140431,D,J,False,CALIBRATION,1,44,44,staircase,,,0.05239026641360617,0.052938775510204164,0.00210204081632653,0.008408163265306122,0.5523902664136062,1989,1611,0,,BLACK,,,0,,BLACK,True,CORRECT,0.9502575000005891,950.2575000005891
6,20260325_140431,D,J,False,CALIBRATION,1,45,45,staircase,,,0.04585550678871261,0.05102040816326539,0.0019183673469387753,0.007673469387755103,0.5458555067887126,1965,1635,0,,BLACK,,,0,,BLACK,True,CORRECT,0.7761796999984654,776.1796999984654
6,20260325_140431,D,J,False,CALIBRATION,1,46,46,staircase,,,0.04868294216779321,0.04928571428571437,0.0017346938775510187,0.006938775510204076,0.45131705783220677,1625,1975,0,,WHITE,,,0,,WHITE,True,CORRECT,0.8950508000016271,895.0508000016271
6,20260325_140431,D,J,False,CALIBRATION,1,47,47,staircase,,,0.051121005377396146,0.04773469387755111,0.0015510204081632638,0.006204081632653057,0.44887899462260383,1616,1984,0,,WHITE,,,0,,WHITE,True,CORRECT,0.9668036000002758,966.8036000002758
6,20260325_140431,D,J,False,CALIBRATION,1,48,48,staircase,,,0.030515968482900568,0.0463673469387756,0.0013673469387755106,0.005469387755102043,0.5305159684829006,1910,1690,0,,BLACK,,,0,,BLACK,True,CORRECT,0.7557653000003484,755.7653000003484
6,20260325_140431,D,J,False,CALIBRATION,1,49,49,staircase,,,0.06787091516041165,0.04518367346938785,0.001183673469387754,0.004734693877551017,0.43212908483958834,1556,2044,0,,WHITE,,,0,,WHITE,True,CORRECT,0.8557865999973728,855.7865999973728
6,20260325_140431,D,J,False,CALIBRATION,1,50,50,staircase,,,0.05134690602704057,0.04418367346938785,0.001,0.004000000000000001,0.44865309397295944,1615,1985,0,,WHITE,,,0,,WHITE,True,CORRECT,0.7946774999982154,794.6774999982154
6,20260325_140431,D,J,False,CALIBRATION,1,51,51,staircase,,,0.038660392833607664,0.04318367346938785,0.001,0.004000000000000001,0.5386603928336077,1939,1661,0,,BLACK,,,0,,BLACK,True,CORRECT,0.9913161000004038,991.3161000004038
6,20260325_140431,D,J,False,CALIBRATION,1,52,52,staircase,,,0.04159072846065517,0.042183673469387846,0.001,0.004000000000000001,0.45840927153934485,1650,1950,0,,WHITE,,,0,,WHITE,True,CORRECT,0.7129879000021901,712.9879000021901
6,20260325_140431,D,J,False,CALIBRATION,1,53,53,staircase,,,0.038559499184765825,0.041183673469387845,0.001,0.004000000000000001,0.4614405008152342,1661,1939,0,,WHITE,,,0,,WHITE,True,CORRECT,0.7155411000021559,715.5411000021559
6,20260325_140431,D,J,False,CALIBRATION,1,54,54,staircase,,,0.04212956496302307,0.040183673469387844,0.001,0.004000000000000001,0.5421295649630231,1952,1648,0,,BLACK,,,0,,BLACK,True,CORRECT,0.7824302000008174,782.4302000008174
6,20260325_140431,D,J,False,CALIBRATION,1,55,55,staircase,,,0.04235892118524912,0.04418367346938785,0.001,0.004000000000000001,0.5423589211852491,1952,1648,0,,BLACK,,,0,,WHITE,False,INCORRECT,1.4999194000010903,1499.9194000010903
6,20260325_140431,D,J,False,CALIBRATION,1,56,56,staircase,,,0.046039125116925754,0.04318367346938785,0.001,0.004000000000000001,0.5460391251169258,1966,1634,0,,BLACK,,,0,,BLACK,True,CORRECT,1.425276699999813,1425.276699999813
6,20260325_140431,D,J,False,CALIBRATION,1,57,57,staircase,,,0.05569653342324078,0.042183673469387846,0.001,0.004000000000000001,0.44430346657675923,1599,2001,0,,WHITE,,,0,,WHITE,True,CORRECT,0.5968262999995204,596.8262999995204
6,20260325_140431,D,J,False,CALIBRATION,1,58,58,staircase,,,0.04082283064024273,0.04618367346938785,0.001,0.004000000000000001,0.5408228306402427,1947,1653,0,,BLACK,,,0,,WHITE,False,INCORRECT,1.3919543999982125,1391.9543999982125
6,20260325_140431,D,J,False,CALIBRATION,1,59,59,staircase,,,0.04156858477741945,0.04518367346938785,0.001,0.004000000000000001,0.5415685847774194,1950,1650,0,,BLACK,,,0,,BLACK,True,CORRECT,0.8966628000016499,896.6628000016499
6,20260325_140431,D,J,False,CALIBRATION,1,60,60,staircase,,,0.04251237166091435,0.04418367346938785,0.001,0.004000000000000001,0.5425123716609144,1953,1647,0,,BLACK,,,0,,BLACK,True,CORRECT,2.189383999997517,2189.383999997517
6,20260325_140431,D,J,False,CALIBRATION,1,61,61,staircase,,,0.044589204937025506,0.04318367346938785,0.001,0.004000000000000001,0.4554107950629745,1639,1961,0,,WHITE,,,0,,WHITE,True,CORRECT,0.954587399999582,954.587399999582
6,20260325_140431,D,J,False,CALIBRATION,1,62,62,staircase,,,0.02584237957516712,0.042183673469387846,0.001,0.004000000000000001,0.4741576204248329,1707,1893,0,,WHITE,,,0,,WHITE,True,CORRECT,0.960553600001731,960.553600001731
6,20260325_140431,D,J,False,CALIBRATION,1,63,63,staircase,,,0.03664321364350819,0.041183673469387845,0.001,0.004000000000000001,0.4633567863564918,1668,1932,0,,WHITE,,,0,,WHITE,True,CORRECT,0.5843385000007402,584.3385000007402
6,20260325_140431,D,J,False,CALIBRATION,1,64,64,staircase,,,0.037678917956089936,0.040183673469387844,0.001,0.004000000000000001,0.4623210820439101,1664,1936,0,,WHITE,,,0,,WHITE,True,CORRECT,0.6322412999979861,632.2412999979861
6,20260325_140431,D,J,False,CALIBRATION,1,65,65,staircase,,,0.039856040332173305,0.03918367346938784,0.001,0.004000000000000001,0.5398560403321733,1943,1657,0,,BLACK,,,0,,BLACK,True,CORRECT,1.143441600001097,1143.441600001097
6,20260325_140431,D,J,False,CALIBRATION,1,66,66,staircase,,,0.03292688848655648,0.03818367346938784,0.001,0.004000000000000001,0.5329268884865564,1919,1681,0,,BLACK,,,0,,BLACK,True,CORRECT,1.2537578999981633,1253.7578999981633
6,20260325_140431,D,J,False,CALIBRATION,1,67,67,staircase,,,0.040613999466688755,0.03718367346938784,0.001,0.004000000000000001,0.5406139994666888,1946,1654,0,,BLACK,,,0,,BLACK,True,CORRECT,1.0611747000002651,1061.1747000002651
6,20260325_140431,D,J,False,CALIBRATION,1,68,68,staircase,,,0.030514883912474988,0.03618367346938784,0.001,0.004000000000000001,0.469485116087525,1690,1910,0,,WHITE,,,0,,WHITE,True,CORRECT,0.6694165999979305,669.4165999979305
6,20260325_140431,D,J,False,CALIBRATION,1,69,69,staircase,,,0.043588147992736755,0.03518367346938784,0.001,0.004000000000000001,0.45641185200726325,1643,1957,0,,WHITE,,,0,,WHITE,True,CORRECT,0.9443945999992138,944.3945999992138
6,20260325_140431,D,J,False,CALIBRATION,1,70,70,staircase,,,0.03473803959290028,0.03418367346938784,0.001,0.004000000000000001,0.4652619604070997,1675,1925,0,,WHITE,,,0,,WHITE,True,CORRECT,0.6476561000017682,647.6561000017682
6,20260325_140431,D,J,False,CALIBRATION,1,71,71,staircase,,,0.057053648541509655,0.03318367346938784,0.001,0.004000000000000001,0.5570536485415096,2005,1595,0,,BLACK,,,0,,BLACK,True,CORRECT,0.9952371999970637,995.2371999970637
6,20260325_140431,D,J,False,CALIBRATION,1,72,72,staircase,,,0.05687066698588628,0.03218367346938784,0.001,0.004000000000000001,0.4431293330141137,1595,2005,0,,WHITE,,,0,,WHITE,True,CORRECT,0.7535224999992352,753.5224999992352
6,20260325_140431,D,J,False,CALIBRATION,1,73,73,staircase,,,0.019529165969288075,0.03618367346938784,0.001,0.004000000000000001,0.48047083403071195,1730,1870,0,,WHITE,,,0,,BLACK,False,INCORRECT,1.101745400002983,1101.745400002983
6,20260325_140431,D,J,False,CALIBRATION,1,74,74,staircase,,,0.040204612363977286,0.040183673469387844,0.001,0.004000000000000001,0.5402046123639773,1945,1655,0,,BLACK,,,0,,WHITE,False,INCORRECT,1.5913236999986111,1591.3236999986111
6,20260325_140431,D,J,False,CALIBRATION,1,75,75,staircase,,,0.0436355984854815,0.03918367346938784,0.001,0.004000000000000001,0.4563644015145185,1643,1957,0,,WHITE,,,0,,WHITE,True,CORRECT,0.573670999998285,573.670999998285
6,20260325_140431,D,J,False,CALIBRATION,1,76,76,staircase,,,0.04346339031619177,0.03818367346938784,0.001,0.004000000000000001,0.4565366096838082,1644,1956,0,,WHITE,,,0,,WHITE,True,CORRECT,0.699201900002663,699.201900002663
6,20260325_140431,D,J,False,CALIBRATION,1,77,77,staircase,,,0.039234454072718944,0.042183673469387846,0.001,0.004000000000000001,0.539234454072719,1941,1659,0,,BLACK,,,0,,WHITE,False,INCORRECT,0.5621097000002919,562.1097000002919
6,20260325_140431,D,J,False,CALIBRATION,1,78,78,staircase,,,0.049287954959767524,0.041183673469387845,0.001,0.004000000000000001,0.4507120450402325,1623,1977,0,,WHITE,,,0,,WHITE,True,CORRECT,0.7576560000015888,757.6560000015888
6,20260325_140431,D,J,False,CALIBRATION,1,79,79,staircase,,,0.040102245122509726,0.040183673469387844,0.001,0.004000000000000001,0.4598977548774903,1656,1944,0,,WHITE,,,0,,WHITE,True,CORRECT,0.7427604000004067,742.7604000004067
6,20260325_140431,D,J,False,CALIBRATION,1,80,80,staircase,,,0.048476083965793906,0.04418367346938785,0.001,0.004000000000000001,0.548476083965794,1975,1625,0,,BLACK,,,0,,WHITE,False,INCORRECT,0.5807572999983677,580.7572999983677
6,20260325_140431,D,J,False,CALIBRATION,1,81,81,staircase,,,0.043080192025212065,0.04318367346938785,0.001,0.004000000000000001,0.45691980797478793,1645,1955,0,,WHITE,,,0,,WHITE,True,CORRECT,0.7520903000004182,752.0903000004182
6,20260325_140431,D,J,False,CALIBRATION,1,82,82,staircase,,,0.03908270137292075,0.042183673469387846,0.001,0.004000000000000001,0.46091729862707925,1659,1941,0,,WHITE,,,0,,WHITE,True,CORRECT,2.0675235999988217,2067.5235999988217
6,20260325_140431,D,J,False,CALIBRATION,1,83,83,staircase,,,0.04879456429712772,0.041183673469387845,0.001,0.004000000000000001,0.5487945642971277,1976,1624,0,,BLACK,,,0,,BLACK,True,CORRECT,1.3027044000009482,1302.7044000009482
6,20260325_140431,D,J,False,CALIBRATION,1,84,84,staircase,,,0.04756971125530694,0.040183673469387844,0.001,0.004000000000000001,0.547569711255307,1971,1629,0,,BLACK,,,0,,BLACK,True,CORRECT,0.9087255000013101,908.7255000013101
6,20260325_140431,D,J,False,CALIBRATION,1,85,85,staircase,,,0.030201999977004713,0.03918367346938784,0.001,0.004000000000000001,0.46979800002299527,1691,1909,0,,WHITE,,,0,,WHITE,True,CORRECT,0.9567219999989902,956.7219999989902
6,20260325_140431,D,J,False,CALIBRATION,1,86,86,staircase,,,0.027143133711844403,0.04318367346938785,0.001,0.004000000000000001,0.4728568662881556,1702,1898,0,,WHITE,,,0,,BLACK,False,INCORRECT,3.7255881000019144,3725.5881000019144
6,20260325_140431,D,J,False,CALIBRATION,1,87,87,staircase,,,0.053505448635387046,0.042183673469387846,0.001,0.004000000000000001,0.44649455136461297,1607,1993,0,,WHITE,,,0,,WHITE,True,CORRECT,0.9647751999982574,964.7751999982574
6,20260325_140431,D,J,False,CALIBRATION,1,88,88,staircase,,,0.022506031499505103,0.041183673469387845,0.001,0.004000000000000001,0.5225060314995051,1881,1719,0,,BLACK,,,0,,BLACK,True,CORRECT,0.95011269999668,950.11269999668
6,20260325_140431,D,J,False,CALIBRATION,1,89,89,staircase,,,0.04676380662513788,0.040183673469387844,0.001,0.004000000000000001,0.4532361933748621,1632,1968,0,,WHITE,,,0,,WHITE,True,CORRECT,1.7906999999977415,1790.6999999977415
6,20260325_140431,D,J,False,CALIBRATION,1,90,90,staircase,,,0.04105403163735718,0.03918367346938784,0.001,0.004000000000000001,0.45894596836264284,1652,1948,0,,WHITE,,,0,,WHITE,True,CORRECT,0.7841435000009369,784.1435000009369
6,20260325_140431,D,J,False,CALIBRATION,1,91,91,staircase,,,0.03107695930070453,0.03818367346938784,0.001,0.004000000000000001,0.46892304069929547,1688,1912,0,,WHITE,,,0,,WHITE,True,CORRECT,0.9270424000023922,927.0424000023922
6,20260325_140431,D,J,False,CALIBRATION,1,92,92,staircase,,,0.03146468395754798,0.042183673469387846,0.001,0.004000000000000001,0.468535316042452,1687,1913,0,,WHITE,,,0,,BLACK,False,INCORRECT,1.163481600000523,1163.481600000523
6,20260325_140431,D,J,False,CALIBRATION,1,93,93,staircase,,,0.04419012421560343,0.041183673469387845,0.001,0.004000000000000001,0.5441901242156034,1959,1641,0,,BLACK,,,0,,BLACK,True,CORRECT,0.804938499997661,804.938499997661
6,20260325_140431,D,J,False,CALIBRATION,1,94,94,staircase,,,0.01985738443429724,0.040183673469387844,0.001,0.004000000000000001,0.5198573844342972,1871,1729,0,,BLACK,,,0,,BLACK,True,CORRECT,1.9862640999999712,1986.2640999999712
6,20260325_140431,D,J,False,CALIBRATION,1,95,95,staircase,,,0.03918520530064099,0.03918367346938784,0.001,0.004000000000000001,0.460814794699359,1659,1941,0,,WHITE,,,0,,WHITE,True,CORRECT,0.6681810000009136,668.1810000009136
6,20260325_140431,D,J,False,CALIBRATION,1,96,96,staircase,,,0.023328123978905366,0.03818367346938784,0.001,0.004000000000000001,0.4766718760210946,1716,1884,0,,WHITE,,,0,,WHITE,True,CORRECT,1.523135799998272,1523.135799998272
6,20260325_140431,D,J,False,CALIBRATION,1,97,97,staircase,,,0.04102367617981601,0.042183673469387846,0.001,0.004000000000000001,0.458976323820184,1652,1948,0,,WHITE,,,0,,BLACK,False,INCORRECT,0.9551690999978746,955.1690999978746
6,20260325_140431,D,J,False,CALIBRATION,1,98,98,staircase,,,0.04278385889584464,0.041183673469387845,0.001,0.004000000000000001,0.45721614110415537,1646,1954,0,,WHITE,,,0,,WHITE,True,CORRECT,0.7862131000001682,786.2131000001682
6,20260325_140431,D,J,False,CALIBRATION,1,99,99,staircase,,,0.05254262712791286,0.040183673469387844,0.001,0.004000000000000001,0.44745737287208714,1611,1989,0,,WHITE,,,0,,WHITE,True,CORRECT,0.6280581999999413,628.0581999999413
6,20260325_140431,D,J,False,CALIBRATION,1,100,100,staircase,,,0.03167432499151387,0.03918367346938784,0.001,0.004000000000000001,0.5316743249915139,1914,1686,0,,BLACK,,,0,,BLACK,True,CORRECT,0.7341223000003083,734.1223000003083
6,20260325_140431,D,J,False,CALIBRATION,1,101,101,staircase,,,0.03455248500244625,0.03818367346938784,0.001,0.004000000000000001,0.5345524850024462,1924,1676,0,,BLACK,,,0,,BLACK,True,CORRECT,1.5522720000008121,1552.272000000812
6,20260325_140431,D,J,False,CALIBRATION,1,102,102,staircase,,,0.027131572263831553,0.042183673469387846,0.001,0.004000000000000001,0.47286842773616844,1702,1898,0,,WHITE,,,0,,BLACK,False,INCORRECT,0.8149248999980045,814.9248999980045
6,20260325_140431,D,J,False,CALIBRATION,1,103,103,staircase,,,0.0507029282279745,0.041183673469387845,0.001,0.004000000000000001,0.5507029282279745,1983,1617,0,,BLACK,,,0,,BLACK,True,CORRECT,0.8016250000000582,801.6250000000582
6,20260325_140431,D,J,False,CALIBRATION,1,104,104,staircase,,,0.02105172595596258,0.04518367346938785,0.001,0.004000000000000001,0.5210517259559626,1876,1724,0,,BLACK,,,0,,WHITE,False,INCORRECT,0.6660695999999007,666.0695999999007
6,20260325_140431,D,J,False,CALIBRATION,1,105,105,staircase,,,0.04453566246360664,0.04418367346938785,0.001,0.004000000000000001,0.45546433753639337,1640,1960,0,,WHITE,,,0,,WHITE,True,CORRECT,2.1127210999984527,2112.7210999984527
6,20260325_140431,D,J,False,CALIBRATION,1,106,106,staircase,,,0.040135840659199944,0.04318367346938785,0.001,0.004000000000000001,0.45986415934080005,1656,1944,0,,WHITE,,,0,,WHITE,True,CORRECT,0.6987015999984578,698.7015999984578
6,20260325_140431,D,J,False,CALIBRATION,1,107,107,staircase,,,0.06496858715445139,0.042183673469387846,0.001,0.004000000000000001,0.5649685871544514,2034,1566,0,,BLACK,,,0,,BLACK,True,CORRECT,0.6876316999987466,687.6316999987466
6,20260325_140431,D,J,False,CALIBRATION,1,108,108,staircase,,,0.06337991977498703,0.041183673469387845,0.001,0.004000000000000001,0.563379919774987,2028,1572,0,,BLACK,,,0,,BLACK,True,CORRECT,0.871547599999758,871.547599999758
6,20260325_140431,D,J,False,CALIBRATION,1,109,109,staircase,,,0.026573867109399824,0.040183673469387844,0.001,0.004000000000000001,0.5265738671093998,1896,1704,0,,BLACK,,,0,,BLACK,True,CORRECT,0.6324158999996143,632.4158999996143
6,20260325_140431,D,J,False,CALIBRATION,1,110,110,staircase,,,0.04795076493128304,0.03918367346938784,0.001,0.004000000000000001,0.45204923506871697,1627,1973,0,,WHITE,,,0,,WHITE,True,CORRECT,0.751338999998552,751.338999998552
6,20260325_140431,D,J,False,CALIBRATION,1,111,111,staircase,,,0.021114483930623703,0.03818367346938784,0.001,0.004000000000000001,0.4788855160693763,1724,1876,0,,WHITE,,,0,,WHITE,True,CORRECT,0.6813863999996101,681.3863999996101
6,20260325_140431,D,J,False,CALIBRATION,1,112,112,staircase,,,0.03171947223514015,0.03718367346938784,0.001,0.004000000000000001,0.46828052776485984,1686,1914,0,,WHITE,,,0,,WHITE,True,CORRECT,0.7152233999986493,715.2233999986493
6,20260325_140431,D,J,False,CALIBRATION,1,113,113,staircase,,,0.039894335699959343,0.03618367346938784,0.001,0.004000000000000001,0.5398943356999594,1944,1656,0,,BLACK,,,0,,BLACK,True,CORRECT,0.6298038999993878,629.8038999993878
6,20260325_140431,D,J,False,CALIBRATION,1,114,114,staircase,,,0.06092187169068339,0.03518367346938784,0.001,0.004000000000000001,0.4390781283093166,1581,2019,0,,WHITE,,,0,,WHITE,True,CORRECT,0.6210377999996126,621.0377999996126
6,20260325_140431,D,J,False,CALIBRATION,1,115,115,staircase,,,0.06366413047942322,0.03418367346938784,0.001,0.004000000000000001,0.5636641304794232,2029,1571,0,,BLACK,,,0,,BLACK,True,CORRECT,0.640220399996906,640.220399996906
6,20260325_140431,D,J,False,CALIBRATION,1,116,116,staircase,,,0.04605285774789876,0.03318367346938784,0.001,0.004000000000000001,0.5460528577478988,1966,1634,0,,BLACK,,,0,,BLACK,True,CORRECT,0.7489706000014849,748.9706000014849
6,20260325_140431,D,J,False,CALIBRATION,1,117,117,staircase,,,0.03141400866131466,0.03218367346938784,0.001,0.004000000000000001,0.46858599133868534,1687,1913,0,,WHITE,,,0,,WHITE,True,CORRECT,0.8495753000024706,849.5753000024706
6,20260325_140431,D,J,False,CALIBRATION,1,118,118,staircase,,,0.01460466314568476,0.031183673469387836,0.001,0.004000000000000001,0.48539533685431524,1747,1853,0,,WHITE,,,0,,WHITE,True,CORRECT,0.7380499999999302,738.0499999999302
6,20260325_140431,D,J,False,CALIBRATION,1,119,119,staircase,,,0.01786901947814147,0.03518367346938784,0.001,0.004000000000000001,0.48213098052185854,1736,1864,0,,WHITE,,,0,,BLACK,False,INCORRECT,0.7762213999994856,776.2213999994856
6,20260325_140431,D,J,False,CALIBRATION,1,120,120,staircase,,,0.0321342037295438,0.03418367346938784,0.001,0.004000000000000001,0.5321342037295438,1916,1684,0,,BLACK,,,0,,BLACK,True,CORRECT,0.8410480999991705,841.0480999991705
6,20260325_140431,D,J,False,CALIBRATION,1,121,121,staircase,,,0.04284252179906828,0.03318367346938784,0.001,0.004000000000000001,0.4571574782009317,1646,1954,0,,WHITE,,,0,,WHITE,True,CORRECT,0.6185108999998192,618.5108999998192
6,20260325_140431,D,J,False,CALIBRATION,1,122,122,staircase,,,0.03393506353187822,0.03218367346938784,0.001,0.004000000000000001,0.46606493646812175,1678,1922,0,,WHITE,,,0,,WHITE,True,CORRECT,1.3108377999997174,1310.8377999997174
6,20260325_140431,D,J,False,CALIBRATION,1,123,123,staircase,,,0.029506698821164256,0.031183673469387836,0.001,0.004000000000000001,0.5295066988211643,1906,1694,0,,BLACK,,,0,,BLACK,True,CORRECT,0.7325294000002032,732.5294000002032
6,20260325_140431,D,J,False,CALIBRATION,1,124,124,staircase,,,0.022965841774420827,0.030183673469387835,0.001,0.004000000000000001,0.47703415822557915,1717,1883,0,,WHITE,,,0,,WHITE,True,CORRECT,0.5915305000016815,591.5305000016815
6,20260325_140431,D,J,False,CALIBRATION,1,125,125,staircase,,,0.030824159649809967,0.03418367346938784,0.001,0.004000000000000001,0.53082415964981,1911,1689,0,,BLACK,,,0,,WHITE,False,INCORRECT,0.7068682999997691,706.8682999997691
6,20260325_140431,D,J,False,CALIBRATION,1,126,126,staircase,,,0.03616961958381268,0.03318367346938784,0.001,0.004000000000000001,0.5361696195838127,1930,1670,0,,BLACK,,,0,,BLACK,True,CORRECT,0.7059358000005886,705.9358000005886
6,20260325_140431,D,J,False,CALIBRATION,1,127,127,staircase,,,0.020121993814956225,0.03718367346938784,0.001,0.004000000000000001,0.5201219938149563,1872,1728,0,,BLACK,,,0,,WHITE,False,INCORRECT,0.6580763000019942,658.0763000019942
6,20260325_140431,D,J,False,CALIBRATION,1,128,128,staircase,,,0.045241305907854926,0.03618367346938784,0.001,0.004000000000000001,0.4547586940921451,1637,1963,0,,WHITE,,,0,,WHITE,True,CORRECT,0.6872980999978608,687.2980999978608
6,20260325_140431,D,J,False,CALIBRATION,1,129,129,staircase,,,0.030444068072949717,0.040183673469387844,0.001,0.004000000000000001,0.5304440680729497,1910,1690,0,,BLACK,,,0,,WHITE,False,INCORRECT,0.6503154999991239,650.3154999991239
6,20260325_140431,D,J,False,CALIBRATION,1,130,130,staircase,,,0.028496225880810418,0.04418367346938785,0.001,0.004000000000000001,0.5284962258808105,1903,1697,0,,BLACK,,,0,,WHITE,False,INCORRECT,1.6581067000006442,1658.1067000006442
6,20260325_140431,D,J,False,CALIBRATION,1,131,131,staircase,,,0.04762957212111531,0.04818367346938785,0.001,0.004000000000000001,0.5476295721211153,1971,1629,0,,BLACK,,,0,,WHITE,False,INCORRECT,1.8473995000022114,1847.3995000022114
6,20260325_140431,D,J,False,CALIBRATION,1,132,132,staircase,,,0.06510741157791795,0.04718367346938785,0.001,0.004000000000000001,0.43489258842208206,1566,2034,0,,WHITE,,,0,,WHITE,True,CORRECT,1.0442821999968146,1044.2821999968146
6,20260325_140431,D,J,False,CALIBRATION,1,133,133,staircase,,,0.03989939602101311,0.04618367346938785,0.001,0.004000000000000001,0.4601006039789869,1656,1944,0,,WHITE,,,0,,WHITE,True,CORRECT,0.6487734999973327,648.7734999973327
6,20260325_140431,D,J,False,CALIBRATION,1,134,134,staircase,,,0.02985382488246678,0.04518367346938785,0.001,0.004000000000000001,0.4701461751175332,1693,1907,0,,WHITE,,,0,,WHITE,True,CORRECT,1.4599401999985275,1459.9401999985275
6,20260325_140431,D,J,False,CALIBRATION,1,135,135,staircase,,,0.05092861267176511,0.04418367346938785,0.001,0.004000000000000001,0.4490713873282349,1617,1983,0,,WHITE,,,0,,WHITE,True,CORRECT,0.6806491000024835,680.6491000024835
6,20260325_140431,D,J,False,CALIBRATION,1,136,136,staircase,,,0.045409846807010684,0.04318367346938785,0.001,0.004000000000000001,0.5454098468070107,1963,1637,0,,BLACK,,,0,,BLACK,True,CORRECT,0.840880499999912,840.880499999912
6,20260325_140431,D,J,False,CALIBRATION,1,137,137,staircase,,,0.026276049567596143,0.042183673469387846,0.001,0.004000000000000001,0.5262760495675961,1895,1705,0,,BLACK,,,0,,BLACK,True,CORRECT,0.8225239000021247,822.5239000021247
6,20260325_140431,D,J,False,CALIBRATION,1,138,138,staircase,,,0.04120887512288303,0.041183673469387845,0.001,0.004000000000000001,0.458791124877117,1652,1948,0,,WHITE,,,0,,WHITE,True,CORRECT,0.9751828000007663,975.1828000007663
6,20260325_140431,D,J,False,CALIBRATION,1,139,139,staircase,,,0.04139573389885395,0.04518367346938785,0.001,0.004000000000000001,0.4586042661011461,1651,1949,0,,WHITE,,,0,,BLACK,False,INCORRECT,0.982418299998244,982.418299998244
6,20260325_140431,D,J,False,CALIBRATION,1,140,140,staircase,,,0.0710826404847107,0.04418367346938785,0.001,0.004000000000000001,0.5710826404847107,2056,1544,0,,BLACK,,,0,,BLACK,True,CORRECT,1.156624399998691,1156.624399998691
6,20260325_140431,D,J,False,CALIBRATION,1,141,141,staircase,,,0.0377974828627887,0.04818367346938785,0.001,0.004000000000000001,0.5377974828627887,1936,1664,0,,BLACK,,,0,,WHITE,False,INCORRECT,1.2775723000013386,1277.5723000013386
6,20260325_140431,D,J,False,CALIBRATION,1,142,142,staircase,,,0.0496231280156592,0.04718367346938785,0.001,0.004000000000000001,0.4503768719843408,1621,1979,0,,WHITE,,,0,,WHITE,True,CORRECT,0.6169358000006469,616.9358000006469
6,20260325_140431,D,J,False,CALIBRATION,1,143,143,staircase,,,0.04910294621822201,0.051183673469387854,0.001,0.004000000000000001,0.549102946218222,1977,1623,0,,BLACK,,,0,,WHITE,False,INCORRECT,0.9254934000018693,925.4934000018693
6,20260325_140431,D,J,False,CALIBRATION,1,144,144,staircase,,,0.04166426605268132,0.05518367346938786,0.001,0.004000000000000001,0.5416642660526814,1950,1650,0,,BLACK,,,0,,WHITE,False,INCORRECT,0.6186885000024631,618.6885000024631
6,20260325_140431,D,J,False,CALIBRATION,1,145,145,staircase,,,0.07274509982867677,0.05918367346938786,0.001,0.004000000000000001,0.5727450998286767,2062,1538,0,,BLACK,,,0,,WHITE,False,INCORRECT,1.1822449999999662,1182.2449999999662
6,20260325_140431,D,J,False,CALIBRATION,1,146,146,staircase,,,0.04644769647418651,0.05818367346938786,0.001,0.004000000000000001,0.5464476964741866,1967,1633,0,,BLACK,,,0,,BLACK,True,CORRECT,1.2247429000017291,1224.7429000017291
6,20260325_140431,D,J,False,CALIBRATION,1,147,147,staircase,,,0.06027287861697016,0.05718367346938786,0.001,0.004000000000000001,0.5602728786169702,2017,1583,0,,BLACK,,,0,,BLACK,True,CORRECT,1.0145672999969975,1014.5672999969975
6,20260325_140431,D,J,False,CALIBRATION,1,148,148,staircase,,,0.0688223711875481,0.05618367346938786,0.001,0.004000000000000001,0.5688223711875481,2048,1552,0,,BLACK,,,0,,BLACK,True,CORRECT,0.8528729999998177,852.8729999998177
6,20260325_140431,D,J,False,CALIBRATION,1,149,149,staircase,,,0.07164294825252782,0.05518367346938786,0.001,0.004000000000000001,0.4283570517474722,1542,2058,0,,WHITE,,,0,,WHITE,True,CORRECT,0.7592840000033902,759.2840000033902
6,20260325_140431,D,J,False,CALIBRATION,1,150,150,staircase,,,0.05502901702873065,0.05418367346938786,0.001,0.004000000000000001,0.5550290170287306,1998,1602,0,,BLACK,,,0,,BLACK,True,CORRECT,0.7283624000010605,728.3624000010605
6,20260325_140431,D,J,False,CALIBRATION,1,151,151,staircase,,,0.06470165588119069,0.053183673469387856,0.001,0.004000000000000001,0.4352983441188093,1567,2033,0,,WHITE,,,0,,WHITE,True,CORRECT,0.8528817000005802,852.8817000005802
6,20260325_140431,D,J,False,CALIBRATION,1,152,152,staircase,,,0.05900374293683463,0.052183673469387855,0.001,0.004000000000000001,0.5590037429368346,2012,1588,0,,BLACK,,,0,,BLACK,True,CORRECT,0.6942230999993626,694.2230999993626
6,20260325_140431,D,J,False,CALIBRATION,1,153,153,staircase,,,0.05024180769337745,0.051183673469387854,0.001,0.004000000000000001,0.44975819230662256,1619,1981,0,,WHITE,,,0,,WHITE,True,CORRECT,1.229134699999122,1229.134699999122
6,20260325_140431,D,J,False,CALIBRATION,1,154,154,staircase,,,0.06394078145133238,0.05018367346938785,0.001,0.004000000000000001,0.5639407814513324,2030,1570,0,,BLACK,,,0,,BLACK,True,CORRECT,0.6191837999976997,619.1837999976997
6,20260325_140431,D,J,False,CALIBRATION,1,155,155,staircase,,,0.06010161567826583,0.05418367346938786,0.001,0.004000000000000001,0.43989838432173417,1584,2016,0,,WHITE,,,0,,BLACK,False,INCORRECT,3.003582000001188,3003.582000001188
6,20260325_140431,D,J,False,CALIBRATION,1,156,156,staircase,,,0.04178708949596081,0.053183673469387856,0.001,0.004000000000000001,0.4582129105040392,1650,1950,0,,WHITE,,,0,,WHITE,True,CORRECT,0.8984552000001713,898.4552000001713
6,20260325_140431,D,J,False,CALIBRATION,1,157,157,staircase,,,0.045386350779527115,0.052183673469387855,0.001,0.004000000000000001,0.45461364922047287,1637,1963,0,,WHITE,,,0,,WHITE,True,CORRECT,0.6520949000005203,652.0949000005203
6,20260325_140431,D,J,False,CALIBRATION,1,158,158,staircase,,,0.036583124416692606,0.051183673469387854,0.001,0.004000000000000001,0.5365831244166926,1932,1668,0,,BLACK,,,0,,BLACK,True,CORRECT,2.044719499997882,2044.719499997882
6,20260325_140431,D,J,False,CALIBRATION,1,159,159,staircase,,,0.06329069089233909,0.05018367346938785,0.001,0.004000000000000001,0.5632906908923391,2028,1572,0,,BLACK,,,0,,BLACK,True,CORRECT,1.1590412000005017,1159.0412000005017
6,20260325_140431,D,J,False,CALIBRATION,1,160,160,staircase,,,0.05103211662676879,0.04918367346938785,0.001,0.004000000000000001,0.44896788337323124,1616,1984,0,,WHITE,,,0,,WHITE,True,CORRECT,0.7756741999983205,775.6741999983205
6,20260325_140431,D,J,False,CALIBRATION,1,161,161,staircase,,,0.03941059051255162,0.04818367346938785,0.001,0.004000000000000001,0.5394105905125516,1942,1658,0,,BLACK,,,0,,BLACK,True,CORRECT,1.5001854000001913,1500.1854000001913
6,20260325_140431,D,J,False,CALIBRATION,1,162,162,staircase,,,0.025916344487587763,0.04718367346938785,0.001,0.004000000000000001,0.5259163444875877,1893,1707,0,,BLACK,,,0,,BLACK,True,CORRECT,1.2501456000027247,1250.1456000027247
6,20260325_140431,D,J,False,CALIBRATION,1,163,163,staircase,,,0.04702962849941027,0.04618367346938785,0.001,0.004000000000000001,0.5470296284994103,1969,1631,0,,BLACK,,,0,,BLACK,True,CORRECT,1.7225208999989263,1722.5208999989263
6,20260325_140431,D,J,False,CALIBRATION,1,164,164,staircase,,,0.044881300824709154,0.04518367346938785,0.001,0.004000000000000001,0.45511869917529085,1638,1962,0,,WHITE,,,0,,WHITE,True,CORRECT,1.4184853000006115,1418.4853000006115
6,20260325_140431,D,J,False,CALIBRATION,1,165,165,staircase,,,0.05256058212964916,0.04418367346938785,0.001,0.004000000000000001,0.44743941787035085,1611,1989,0,,WHITE,,,0,,WHITE,True,CORRECT,1.125105999999505,1125.105999999505
6,20260325_140431,D,J,False,CALIBRATION,1,166,166,staircase,,,0.053708825660908205,0.04318367346938785,0.001,0.004000000000000001,0.4462911743390918,1607,1993,0,,WHITE,,,0,,WHITE,True,CORRECT,1.561129699999583,1561.129699999583
6,20260325_140431,D,J,False,CALIBRATION,1,167,167,staircase,,,0.044966311812193266,0.042183673469387846,0.001,0.004000000000000001,0.45503368818780676,1638,1962,0,,WHITE,,,0,,WHITE,True,CORRECT,1.2801662999991095,1280.1662999991095
6,20260325_140431,D,J,False,CALIBRATION,1,168,168,staircase,,,0.04291887006280945,0.041183673469387845,0.001,0.004000000000000001,0.4570811299371905,1645,1955,0,,WHITE,,,0,,WHITE,True,CORRECT,0.876450499999919,876.450499999919
6,20260325_140431,D,J,False,CALIBRATION,1,169,169,staircase,,,0.020856934180345173,0.04518367346938785,0.001,0.004000000000000001,0.4791430658196548,1725,1875,0,,WHITE,,,0,,BLACK,False,INCORRECT,1.18873430000167,1188.73430000167
6,20260325_140431,D,J,False,CALIBRATION,1,170,170,staircase,,,0.0484358506408099,0.04418367346938785,0.001,0.004000000000000001,0.4515641493591901,1626,1974,0,,WHITE,,,0,,WHITE,True,CORRECT,0.9742203000023437,974.2203000023437
6,20260325_140431,D,J,False,CALIBRATION,1,171,171,staircase,,,0.02977199879953597,0.04318367346938785,0.001,0.004000000000000001,0.47022800120046404,1693,1907,0,,WHITE,,,0,,WHITE,True,CORRECT,1.3834055000006629,1383.4055000006629
6,20260325_140431,D,J,False,CALIBRATION,1,172,172,staircase,,,0.0383166112715325,0.042183673469387846,0.001,0.004000000000000001,0.5383166112715325,1938,1662,0,,BLACK,,,0,,BLACK,True,CORRECT,1.2721574000024702,1272.1574000024702
6,20260325_140431,D,J,False,CALIBRATION,1,173,173,staircase,,,0.05072643552270528,0.041183673469387845,0.001,0.004000000000000001,0.5507264355227053,1983,1617,0,,BLACK,,,0,,BLACK,True,CORRECT,1.1038850000004459,1103.8850000004459
6,20260325_140431,D,J,False,CALIBRATION,1,174,174,staircase,,,0.06436717193016489,0.040183673469387844,0.001,0.004000000000000001,0.4356328280698351,1568,2032,0,,WHITE,,,0,,WHITE,True,CORRECT,2.0175760999991326,2017.5760999991326
6,20260325_140431,D,J,False,CALIBRATION,1,175,175,staircase,,,0.05292922874361516,0.03918367346938784,0.001,0.004000000000000001,0.44707077125638484,1609,1991,0,,WHITE,,,0,,WHITE,True,CORRECT,1.975703699998121,1975.703699998121
6,20260325_140431,D,J,False,CALIBRATION,1,176,176,staircase,,,0.06564831142983536,0.03818367346938784,0.001,0.004000000000000001,0.5656483114298354,2036,1564,0,,BLACK,,,0,,BLACK,True,CORRECT,0.990109800000937,990.109800000937
6,20260325_140431,D,J,False,CALIBRATION,1,177,177,staircase,,,0.055376997031517085,0.03718367346938784,0.001,0.004000000000000001,0.4446230029684829,1601,1999,0,,WHITE,,,0,,WHITE,True,CORRECT,1.4301711000007344,1430.1711000007344
6,20260325_140431,D,J,False,CALIBRATION,1,178,178,staircase,,,0.05395343773431645,0.03618367346938784,0.001,0.004000000000000001,0.5539534377343165,1994,1606,0,,BLACK,,,0,,BLACK,True,CORRECT,1.04623569999967,1046.23569999967
6,20260325_140431,D,J,False,CALIBRATION,1,179,179,staircase,,,0.045737382527114914,0.03518367346938784,0.001,0.004000000000000001,0.4542626174728851,1635,1965,0,,WHITE,,,0,,WHITE,True,CORRECT,0.9471032000001287,947.1032000001287
6,20260325_140431,D,J,False,CALIBRATION,1,180,180,staircase,,,0.032325011613665806,0.03418367346938784,0.001,0.004000000000000001,0.4676749883863342,1684,1916,0,,WHITE,,,0,,WHITE,True,CORRECT,2.1233487999998033,2123.3487999998033
6,20260325_140431,D,J,False,CALIBRATION,1,181,181,staircase,,,0.030207038213844607,0.03318367346938784,0.001,0.004000000000000001,0.5302070382138446,1909,1691,0,,BLACK,,,0,,BLACK,True,CORRECT,1.7140990999978385,1714.0990999978385
6,20260325_140431,D,J,False,CALIBRATION,1,182,182,staircase,,,0.028206494385085545,0.03718367346938784,0.001,0.004000000000000001,0.5282064943850855,1902,1698,0,,BLACK,,,0,,WHITE,False,INCORRECT,1.4458983000004082,1445.8983000004082
6,20260325_140431,D,J,False,CALIBRATION,1,183,183,staircase,,,0.03189716154833024,0.03618367346938784,0.001,0.004000000000000001,0.5318971615483302,1915,1685,0,,BLACK,,,0,,BLACK,True,CORRECT,0.9213425000016287,921.3425000016287
6,20260325_140431,D,J,False,CALIBRATION,1,184,184,staircase,,,0.03584936555483015,0.040183673469387844,0.001,0.004000000000000001,0.5358493655548302,1929,1671,0,,BLACK,,,0,,WHITE,False,INCORRECT,1.327477099999669,1327.477099999669
6,20260325_140431,D,J,False,CALIBRATION,1,185,185,staircase,,,0.029586365197526276,0.04418367346938785,0.001,0.004000000000000001,0.5295863651975263,1907,1693,0,,BLACK,,,0,,WHITE,False,INCORRECT,2.9547848000001977,2954.7848000001977
6,20260325_140431,D,J,False,CALIBRATION,1,186,186,staircase,,,0.035524388363385104,0.04818367346938785,0.001,0.004000000000000001,0.4644756116366149,1672,1928,0,,WHITE,,,0,,BLACK,False,INCORRECT,2.1210245000002033,2121.0245000002033
6,20260325_140431,D,J,False,CALIBRATION,1,187,187,staircase,,,0.05251739490360401,0.04718367346938785,0.001,0.004000000000000001,0.447482605096396,1611,1989,0,,WHITE,,,0,,WHITE,True,CORRECT,0.7684250999991491,768.4250999991491
6,20260325_140431,D,J,False,CALIBRATION,1,188,188,staircase,,,0.058222413860666816,0.04618367346938785,0.001,0.004000000000000001,0.44177758613933316,1590,2010,0,,WHITE,,,0,,WHITE,True,CORRECT,1.294276100001298,1294.276100001298
6,20260325_140431,D,J,False,CALIBRATION,1,189,189,staircase,,,0.0425994874116393,0.04518367346938785,0.001,0.004000000000000001,0.4574005125883607,1647,1953,0,,WHITE,,,0,,WHITE,True,CORRECT,1.7457055000013497,1745.7055000013497
6,20260325_140431,D,J,False,CALIBRATION,1,190,190,staircase,,,0.052210081908509606,0.04418367346938785,0.001,0.004000000000000001,0.5522100819085096,1988,1612,0,,BLACK,,,0,,BLACK,True,CORRECT,1.6065784999991592,1606.5784999991592
6,20260325_140431,D,J,False,CALIBRATION,1,191,191,staircase,,,0.03800805679359055,0.04818367346938785,0.001,0.004000000000000001,0.5380080567935905,1937,1663,0,,BLACK,,,0,,WHITE,False,INCORRECT,3.2394501000017044,3239.4501000017044
6,20260325_140431,D,J,False,CALIBRATION,1,192,192,staircase,,,0.05736730108002189,0.04718367346938785,0.001,0.004000000000000001,0.5573673010800219,2007,1593,0,,BLACK,,,0,,BLACK,True,CORRECT,3.2680321999978332,3268.0321999978332
6,20260325_140431,D,J,False,CALIBRATION,1,193,193,staircase,,,0.038273697189272746,0.04618367346938785,0.001,0.004000000000000001,0.5382736971892728,1938,1662,0,,BLACK,,,0,,BLACK,True,CORRECT,1.8610411999979988,1861.0411999979988
6,20260325_140431,D,J,False,CALIBRATION,1,194,194,staircase,,,0.04605632530680488,0.04518367346938785,0.001,0.004000000000000001,0.45394367469319513,1634,1966,0,,WHITE,,,0,,WHITE,True,CORRECT,1.3384789000010642,1338.4789000010642
6,20260325_140431,D,J,False,CALIBRATION,1,195,195,staircase,,,0.04456547936082064,0.04418367346938785,0.001,0.004000000000000001,0.45543452063917933,1640,1960,0,,WHITE,,,0,,WHITE,True,CORRECT,0.9968846000010672,996.8846000010672
6,20260325_140431,D,J,False,CALIBRATION,1,196,196,staircase,,,0.051974117906880814,0.04318367346938785,0.001,0.004000000000000001,0.5519741179068808,1987,1613,0,,BLACK,,,0,,BLACK,True,CORRECT,1.8442449000031047,1844.2449000031047
6,20260325_140431,D,J,False,CALIBRATION,1,197,197,staircase,,,0.0364805043988484,0.042183673469387846,0.001,0.004000000000000001,0.4635194956011516,1669,1931,0,,WHITE,,,0,,WHITE,True,CORRECT,0.8700740999993286,870.0740999993286
6,20260325_140431,D,J,False,CALIBRATION,1,198,198,staircase,,,0.03295838058810789,0.041183673469387845,0.001,0.004000000000000001,0.4670416194118921,1681,1919,0,,WHITE,,,0,,WHITE,True,CORRECT,0.8272737999977835,827.2737999977835
6,20260325_140431,D,J,False,CALIBRATION,1,199,199,staircase,,,0.04831310778255017,0.04518367346938785,0.001,0.004000000000000001,0.5483131077825502,1974,1626,0,,BLACK,,,0,,WHITE,False,INCORRECT,4.506138100001408,4506.138100001408
6,20260325_140431,D,J,False,CALIBRATION,1,200,200,staircase,,,0.028863921811035614,0.04418367346938785,0.001,0.004000000000000001,0.4711360781889644,1696,1904,0,,WHITE,,,0,,WHITE,True,CORRECT,1.1431630999977642,1143.1630999977642
6,20260325_140431,D,J,False,CALIBRATION,1,201,201,staircase,,,0.036941508021065474,0.04818367346938785,0.001,0.004000000000000001,0.5369415080210654,1933,1667,0,,BLACK,,,0,,WHITE,False,INCORRECT,0.8228381000008085,822.8381000008085
6,20260325_140431,D,J,False,CALIBRATION,1,202,202,staircase,,,0.043388304506182175,0.04718367346938785,0.001,0.004000000000000001,0.5433883045061821,1956,1644,0,,BLACK,,,0,,BLACK,True,CORRECT,0.8731463999974949,873.1463999974949
6,20260325_140431,D,J,False,CALIBRATION,1,203,203,staircase,,,0.06346203457565405,0.04618367346938785,0.001,0.004000000000000001,0.436537965424346,1572,2028,0,,WHITE,,,0,,WHITE,True,CORRECT,1.5562690000006114,1556.2690000006114
6,20260325_140431,D,J,False,CALIBRATION,1,204,204,staircase,,,0.039261635653699334,0.04518367346938785,0.001,0.004000000000000001,0.5392616356536993,1941,1659,0,,BLACK,,,0,,BLACK,True,CORRECT,0.7374897000008787,737.4897000008787
6,20260325_140431,D,J,False,CALIBRATION,1,205,205,staircase,,,0.021375635552120166,0.04918367346938785,0.001,0.004000000000000001,0.5213756355521202,1877,1723,0,,BLACK,,,0,,WHITE,False,INCORRECT,2.0770943999996234,2077.0943999996234
6,20260325_140431,D,J,False,CALIBRATION,1,206,206,staircase,,,0.051477627293798435,0.04818367346938785,0.001,0.004000000000000001,0.44852237270620154,1615,1985,0,,WHITE,,,0,,WHITE,True,CORRECT,0.8009695000000647,800.9695000000647
6,20260325_140431,D,J,False,CALIBRATION,1,207,207,staircase,,,0.07281013012002814,0.04718367346938785,0.001,0.004000000000000001,0.4271898698799719,1538,2062,0,,WHITE,,,0,,WHITE,True,CORRECT,0.7679782000013802,767.9782000013802
6,20260325_140431,D,J,False,CALIBRATION,1,208,208,staircase,,,0.039798496044533886,0.04618367346938785,0.001,0.004000000000000001,0.5397984960445339,1943,1657,0,,BLACK,,,0,,BLACK,True,CORRECT,0.8010768999993161,801.0768999993161
6,20260325_140431,D,J,False,CALIBRATION,1,209,209,staircase,,,0.03834822158196589,0.05018367346938785,0.001,0.004000000000000001,0.5383482215819659,1938,1662,0,,BLACK,,,0,,WHITE,False,INCORRECT,1.2394884999994247,1239.4884999994247
6,20260325_140431,D,J,False,CALIBRATION,1,210,210,staircase,,,0.050077510471935004,0.04918367346938785,0.001,0.004000000000000001,0.550077510471935,1980,1620,0,,BLACK,,,0,,BLACK,True,CORRECT,0.7247553000015614,724.7553000015614
6,20260325_140431,D,J,False,CALIBRATION,1,211,211,staircase,,,0.054736822947900575,0.04818367346938785,0.001,0.004000000000000001,0.5547368229479006,1997,1603,0,,BLACK,,,0,,BLACK,True,CORRECT,1.6755709999997634,1675.5709999997634
6,20260325_140431,D,J,False,CALIBRATION,1,212,212,staircase,,,0.04359230461463223,0.04718367346938785,0.001,0.004000000000000001,0.5435923046146323,1957,1643,0,,BLACK,,,0,,BLACK,True,CORRECT,0.802041899998585,802.041899998585
6,20260325_140431,D,J,False,CALIBRATION,1,213,213,staircase,,,0.0397916867919989,0.051183673469387854,0.001,0.004000000000000001,0.5397916867919988,1943,1657,0,,BLACK,,,0,,WHITE,False,INCORRECT,1.1460353000002215,1146.0353000002215
6,20260325_140431,D,J,False,CALIBRATION,1,214,214,staircase,,,0.051656906406565034,0.05018367346938785,0.001,0.004000000000000001,0.44834309359343494,1614,1986,0,,WHITE,,,0,,WHITE,True,CORRECT,0.8496338000004471,849.6338000004471
6,20260325_140431,D,J,False,CALIBRATION,1,215,215,staircase,,,0.03838352694914079,0.04918367346938785,0.001,0.004000000000000001,0.5383835269491408,1938,1662,0,,BLACK,,,0,,BLACK,True,CORRECT,1.0426311999981408,1042.6311999981408
6,20260325_140431,D,J,False,CALIBRATION,1,216,216,staircase,,,0.053237590706907666,0.053183673469387856,0.001,0.004000000000000001,0.5532375907069077,1992,1608,0,,BLACK,,,0,,WHITE,False,INCORRECT,1.4402265999997326,1440.2265999997326
6,20260325_140431,D,J,False,CALIBRATION,1,217,217,staircase,,,0.05620780454261036,0.052183673469387855,0.001,0.004000000000000001,0.5562078045426103,2002,1598,0,,BLACK,,,0,,BLACK,True,CORRECT,1.5554344000011042,1555.4344000011042
6,20260325_140431,D,J,False,CALIBRATION,1,218,218,staircase,,,0.05175415724436133,0.051183673469387854,0.001,0.004000000000000001,0.5517541572443614,1986,1614,0,,BLACK,,,0,,BLACK,True,CORRECT,2.6262735999989673,2626.2735999989673
6,20260325_140431,D,J,False,CALIBRATION,1,219,219,staircase,,,0.027811234023457847,0.05518367346938786,0.001,0.004000000000000001,0.5278112340234579,1900,1700,0,,BLACK,,,0,,WHITE,False,INCORRECT,2.856239699998696,2856.239699998696
6,20260325_140431,D,J,False,CALIBRATION,1,220,220,staircase,,,0.07287051543133517,0.05418367346938786,0.001,0.004000000000000001,0.42712948456866484,1538,2062,0,,WHITE,,,0,,WHITE,True,CORRECT,1.6705836000001,1670.5836000001
6,20260325_140431,D,J,False,CALIBRATION,1,221,221,staircase,,,0.07604622516686299,0.053183673469387856,0.001,0.004000000000000001,0.423953774833137,1526,2074,0,,WHITE,,,0,,WHITE,True,CORRECT,2.7027758000003814,2702.7758000003814
6,20260325_140431,D,J,False,CALIBRATION,1,222,222,staircase,,,0.04329598146119617,0.052183673469387855,0.001,0.004000000000000001,0.5432959814611962,1956,1644,0,,BLACK,,,0,,BLACK,True,CORRECT,0.9906616000007489,990.6616000007489
6,20260325_140431,D,J,False,CALIBRATION,1,223,223,staircase,,,0.04388600748963742,0.051183673469387854,0.001,0.004000000000000001,0.5438860074896374,1958,1642,0,,BLACK,,,0,,BLACK,True,CORRECT,1.941548499999044,1941.548499999044
6,20260325_140431,D,J,False,CALIBRATION,1,224,224,staircase,,,0.06127643744813629,0.05018367346938785,0.001,0.004000000000000001,0.5612764374481363,2021,1579,0,,BLACK,,,0,,BLACK,True,CORRECT,0.8130410999983724,813.0410999983724
6,20260325_140431,D,J,False,CALIBRATION,1,225,225,staircase,,,0.05482508363826319,0.04918367346938785,0.001,0.004000000000000001,0.5548250836382632,1997,1603,0,,BLACK,,,0,,BLACK,True,CORRECT,1.730585199999041,1730.585199999041
6,20260325_140431,D,J,False,CALIBRATION,1,226,226,staircase,,,0.03367688701833042,0.04818367346938785,0.001,0.004000000000000001,0.46632311298166956,1679,1921,0,,WHITE,,,0,,WHITE,True,CORRECT,0.7041434999991907,704.1434999991907
6,20260325_140431,D,J,False,CALIBRATION,1,227,227,staircase,,,0.060434237974871276,0.04718367346938785,0.001,0.004000000000000001,0.4395657620251287,1582,2018,0,,WHITE,,,0,,WHITE,True,CORRECT,0.8830553000007058,883.0553000007058
6,20260325_140431,D,J,False,CALIBRATION,1,228,228,staircase,,,0.05865843781415892,0.04618367346938785,0.001,0.004000000000000001,0.4413415621858411,1589,2011,0,,WHITE,,,0,,WHITE,True,CORRECT,0.6842303999983415,684.2303999983415
6,20260325_140431,D,J,False,CALIBRATION,1,229,229,staircase,,,0.061290876193369835,0.04518367346938785,0.001,0.004000000000000001,0.5612908761933698,2021,1579,0,,BLACK,,,0,,BLACK,True,CORRECT,1.4494424999975308,1449.4424999975308
6,20260325_140431,D,J,False,CALIBRATION,1,230,230,staircase,,,0.05227883127924821,0.04418367346938785,0.001,0.004000000000000001,0.4477211687207518,1612,1988,0,,WHITE,,,0,,WHITE,True,CORRECT,0.6314585000000079,631.4585000000079
6,20260325_140431,D,J,False,CALIBRATION,1,231,231,staircase,,,0.042709827801010854,0.04318367346938785,0.001,0.004000000000000001,0.5427098278010108,1954,1646,0,,BLACK,,,0,,BLACK,True,CORRECT,1.0678781000024173,1067.8781000024173
6,20260325_140431,D,J,False,CALIBRATION,1,232,232,staircase,,,0.04852644178411309,0.042183673469387846,0.001,0.004000000000000001,0.4514735582158869,1625,1975,0,,WHITE,,,0,,WHITE,True,CORRECT,0.6590877999988152,659.0877999988152
6,20260325_140431,D,J,False,CALIBRATION,1,233,233,staircase,,,0.043437011490529955,0.041183673469387845,0.001,0.004000000000000001,0.45656298850947,1644,1956,0,,WHITE,,,0,,WHITE,True,CORRECT,0.6781588999983796,678.1588999983796
6,20260325_140431,D,J,False,CALIBRATION,1,234,234,staircase,,,0.054398759237918065,0.040183673469387844,0.001,0.004000000000000001,0.44560124076208196,1604,1996,0,,WHITE,,,0,,WHITE,True,CORRECT,0.6839046999994025,683.9046999994025
6,20260325_140431,D,J,False,CALIBRATION,1,235,235,staircase,,,0.04983947949167432,0.03918367346938784,0.001,0.004000000000000001,0.45016052050832567,1621,1979,0,,WHITE,,,0,,WHITE,True,CORRECT,0.6372238000003563,637.2238000003563
6,20260325_140431,D,J,False,CALIBRATION,1,236,236,staircase,,,0.04216106014930551,0.03818367346938784,0.001,0.004000000000000001,0.45783893985069446,1648,1952,0,,WHITE,,,0,,WHITE,True,CORRECT,0.5702089000005799,570.2089000005799
6,20260325_140431,D,J,False,CALIBRATION,1,237,237,staircase,,,0.030787705301178324,0.03718367346938784,0.001,0.004000000000000001,0.4692122946988217,1689,1911,0,,WHITE,,,0,,WHITE,True,CORRECT,0.5263983000004373,526.3983000004373
6,20260325_140431,D,J,False,CALIBRATION,1,238,238,staircase,,,0.03484465471785301,0.03618367346938784,0.001,0.004000000000000001,0.534844654717853,1925,1675,0,,BLACK,,,0,,BLACK,True,CORRECT,2.276198799998383,2276.198799998383
6,20260325_140431,D,J,False,CALIBRATION,1,239,239,staircase,,,0.023191453787346272,0.03518367346938784,0.001,0.004000000000000001,0.4768085462126537,1717,1883,0,,WHITE,,,0,,WHITE,True,CORRECT,1.1621451999999408,1162.1451999999408
6,20260325_140431,D,J,False,CALIBRATION,1,240,240,staircase,,,0.041420594874310324,0.03418367346938784,0.001,0.004000000000000001,0.4585794051256897,1651,1949,0,,WHITE,,,0,,WHITE,True,CORRECT,1.0664141000015661,1066.414100001566
6,20260325_140431,D,J,False,CALIBRATION,1,241,241,staircase,,,0.02508742321570373,0.03318367346938784,0.001,0.004000000000000001,0.5250874232157037,1890,1710,0,,BLACK,,,0,,BLACK,True,CORRECT,1.555039900002157,1555.039900002157
6,20260325_140431,D,J,False,CALIBRATION,1,242,242,staircase,,,0.03223176052035094,0.03218367346938784,0.001,0.004000000000000001,0.4677682394796491,1684,1916,0,,WHITE,,,0,,WHITE,True,CORRECT,1.0090319000009913,1009.0319000009913
6,20260325_140431,D,J,False,CALIBRATION,1,243,243,staircase,,,0.04665350762114955,0.031183673469387836,0.001,0.004000000000000001,0.5466535076211495,1968,1632,0,,BLACK,,,0,,BLACK,True,CORRECT,0.8687018999989959,868.7018999989959
6,20260325_140431,D,J,False,CALIBRATION,1,244,244,staircase,,,0.03627387138466359,0.030183673469387835,0.001,0.004000000000000001,0.4637261286153364,1669,1931,0,,WHITE,,,0,,WHITE,True,CORRECT,2.440470000001369,2440.470000001369
6,20260325_140431,D,J,False,CALIBRATION,1,245,245,staircase,,,0.029756260556980857,0.029183673469387834,0.001,0.004000000000000001,0.5297562605569809,1907,1693,0,,BLACK,,,0,,BLACK,True,CORRECT,1.2521448000006785,1252.1448000006785
6,20260325_140431,D,J,False,CALIBRATION,1,246,246,staircase,,,0.030361941075641417,0.03318367346938784,0.001,0.004000000000000001,0.5303619410756414,1909,1691,0,,BLACK,,,0,,WHITE,False,INCORRECT,2.607939699999406,2607.939699999406
6,20260325_140431,D,J,False,CALIBRATION,1,247,247,staircase,,,0.027398214842856587,0.03218367346938784,0.001,0.004000000000000001,0.4726017851571434,1701,1899,0,,WHITE,,,0,,WHITE,True,CORRECT,1.1906886999968265,1190.6886999968265
6,20260325_140431,D,J,False,CALIBRATION,1,248,248,staircase,,,0.02858716749962729,0.03618367346938784,0.001,0.004000000000000001,0.4714128325003727,1697,1903,0,,WHITE,,,0,,BLACK,False,INCORRECT,1.3759879999997793,1375.9879999997793
6,20260325_140431,D,J,False,CALIBRATION,1,249,249,staircase,,,0.022948719852087164,0.03518367346938784,0.001,0.004000000000000001,0.5229487198520871,1883,1717,0,,BLACK,,,0,,BLACK,True,CORRECT,1.0335487000011199,1033.5487000011199
6,20260325_140431,D,J,False,CALIBRATION,1,250,250,staircase,,,0.0204702485142017,0.03418367346938784,0.001,0.004000000000000001,0.4795297514857983,1726,1874,0,,WHITE,,,0,,WHITE,True,CORRECT,0.8447599999999511,844.7599999999511
6,20260325_140431,D,J,False,CALIBRATION,1,251,251,staircase,,,0.038581281761832696,0.03318367346938784,0.001,0.004000000000000001,0.5385812817618327,1939,1661,0,,BLACK,,,0,,BLACK,True,CORRECT,1.2485317999999097,1248.5317999999097
6,20260325_140431,D,J,False,CALIBRATION,1,252,252,staircase,,,0.02346537639923679,0.03718367346938784,0.001,0.004000000000000001,0.5234653763992367,1884,1716,0,,BLACK,,,0,,WHITE,False,INCORRECT,2.0832679999984975,2083.2679999984975
6,20260325_140431,D,J,False,CALIBRATION,1,253,253,staircase,,,0.05704719574381224,0.03618367346938784,0.001,0.004000000000000001,0.5570471957438122,2005,1595,0,,BLACK,,,0,,BLACK,True,CORRECT,2.381582599999092,2381.582599999092
6,20260325_140431,D,J,False,CALIBRATION,1,254,254,staircase,,,0.04010899463537064,0.03518367346938784,0.001,0.004000000000000001,0.45989100536462935,1656,1944,0,,WHITE,,,0,,WHITE,True,CORRECT,1.0441421000032278,1044.1421000032278
6,20260325_140431,D,J,False,CALIBRATION,1,255,255,staircase,,,0.04228336211995352,0.03918367346938784,0.001,0.004000000000000001,0.5422833621199535,1952,1648,0,,BLACK,,,0,,WHITE,False,INCORRECT,3.2309917000020505,3230.9917000020505
6,20260325_140431,D,J,False,CALIBRATION,1,256,256,staircase,,,0.04243550915412378,0.03818367346938784,0.001,0.004000000000000001,0.5424355091541238,1953,1647,0,,BLACK,,,0,,BLACK,True,CORRECT,1.052658299999166,1052.658299999166
6,20260325_140431,D,J,False,CALIBRATION,1,257,257,staircase,,,0.045114171624685215,0.03718367346938784,0.001,0.004000000000000001,0.45488582837531477,1638,1962,0,,WHITE,,,0,,WHITE,True,CORRECT,0.8649369999984629,864.9369999984629
6,20260325_140431,D,J,False,CALIBRATION,1,258,258,staircase,,,0.017232212395226983,0.03618367346938784,0.001,0.004000000000000001,0.482767787604773,1738,1862,0,,WHITE,,,0,,WHITE,True,CORRECT,1.1969902999990154,1196.9902999990154
6,20260325_140431,D,J,False,CALIBRATION,1,259,259,staircase,,,0.035990045583736745,0.03518367346938784,0.001,0.004000000000000001,0.5359900455837368,1930,1670,0,,BLACK,,,0,,BLACK,True,CORRECT,1.7508494000030623,1750.8494000030623
6,20260325_140431,D,J,False,CALIBRATION,1,260,260,staircase,,,0.02862221175636328,0.03418367346938784,0.001,0.004000000000000001,0.47137778824363674,1697,1903,0,,WHITE,,,0,,WHITE,True,CORRECT,2.7677965000002587,2767.7965000002587
6,20260325_140431,D,J,False,CALIBRATION,1,261,261,staircase,,,0.06133979180764346,0.03318367346938784,0.001,0.004000000000000001,0.4386602081923565,1579,2021,0,,WHITE,,,0,,WHITE,True,CORRECT,1.0326922999993258,1032.6922999993258
6,20260325_140431,D,J,False,CALIBRATION,1,262,262,staircase,,,0.03219110322767402,0.03218367346938784,0.001,0.004000000000000001,0.532191103227674,1916,1684,0,,BLACK,,,0,,BLACK,True,CORRECT,1.6185194999998203,1618.5194999998203
6,20260325_140431,D,J,False,CALIBRATION,1,263,263,staircase,,,0.02577458222271302,0.031183673469387836,0.001,0.004000000000000001,0.474225417777287,1707,1893,0,,WHITE,,,0,,WHITE,True,CORRECT,0.9295152000013331,929.5152000013331
6,20260325_140431,D,J,False,CALIBRATION,1,264,264,staircase,,,0.01817619042194397,0.03518367346938784,0.001,0.004000000000000001,0.518176190421944,1865,1735,0,,BLACK,,,0,,WHITE,False,INCORRECT,1.2996836999991501,1299.6836999991501
6,20260325_140431,D,J,False,CALIBRATION,1,265,265,staircase,,,0.04943450838557198,0.03418367346938784,0.001,0.004000000000000001,0.549434508385572,1978,1622,0,,BLACK,,,0,,BLACK,True,CORRECT,1.5197473000007449,1519.7473000007449
6,20260325_140431,D,J,False,CALIBRATION,1,266,266,staircase,,,0.036682754915470454,0.03318367346938784,0.001,0.004000000000000001,0.5366827549154705,1932,1668,0,,BLACK,,,0,,BLACK,True,CORRECT,1.7875717999995686,1787.5717999995686
6,20260325_140431,D,J,False,CALIBRATION,1,267,267,staircase,,,0.035501964766289425,0.03218367346938784,0.001,0.004000000000000001,0.4644980352337106,1672,1928,0,,WHITE,,,0,,WHITE,True,CORRECT,1.6087841000007757,1608.7841000007757
6,20260325_140431,D,J,False,CALIBRATION,1,268,268,staircase,,,0.0395621654215804,0.031183673469387836,0.001,0.004000000000000001,0.5395621654215804,1942,1658,0,,BLACK,,,0,,BLACK,True,CORRECT,1.3758376999976463,1375.8376999976463
6,20260325_140431,D,J,False,CALIBRATION,1,269,269,staircase,,,0.05548464088755417,0.030183673469387835,0.001,0.004000000000000001,0.44451535911244583,1600,2000,0,,WHITE,,,0,,WHITE,True,CORRECT,2.1773300999993808,2177.3300999993808
6,20260325_140431,D,J,False,CALIBRATION,1,270,270,staircase,,,0.030830697997504923,0.03418367346938784,0.001,0.004000000000000001,0.5308306979975049,1911,1689,0,,BLACK,,,0,,WHITE,False,INCORRECT,2.6434964000000036,2643.4964000000036
6,20260325_140431,D,J,False,CALIBRATION,1,271,271,staircase,,,0.05551874012240248,0.03818367346938784,0.001,0.004000000000000001,0.4444812598775975,1600,2000,0,,WHITE,,,0,,BLACK,False,INCORRECT,1.4559000000008382,1455.9000000008382
6,20260325_140431,D,J,False,CALIBRATION,1,272,272,staircase,,,0.01964647108615841,0.042183673469387846,0.001,0.004000000000000001,0.5196464710861584,1871,1729,0,,BLACK,,,0,,WHITE,False,INCORRECT,0.8936764000027324,893.6764000027324
6,20260325_140431,D,J,False,CALIBRATION,1,273,273,staircase,,,0.03300905784923922,0.041183673469387845,0.001,0.004000000000000001,0.5330090578492392,1919,1681,0,,BLACK,,,0,,BLACK,True,CORRECT,1.1731109000029392,1173.1109000029392
6,20260325_140431,D,J,False,CALIBRATION,1,274,274,staircase,,,0.03722703809236113,0.040183673469387844,0.001,0.004000000000000001,0.4627729619076389,1666,1934,0,,WHITE,,,0,,WHITE,True,CORRECT,0.7699915999983205,769.9915999983205
6,20260325_140431,D,J,False,CALIBRATION,1,275,275,staircase,,,0.02515821685439144,0.04418367346938785,0.001,0.004000000000000001,0.47484178314560854,1709,1891,0,,WHITE,,,0,,BLACK,False,INCORRECT,1.7382637000009709,1738.2637000009709
6,20260325_140431,D,J,False,CALIBRATION,1,276,276,staircase,,,0.04377105625572569,0.04318367346938785,0.001,0.004000000000000001,0.5437710562557256,1958,1642,0,,BLACK,,,0,,BLACK,True,CORRECT,3.2742130999977235,3274.2130999977235
6,20260325_140431,D,J,False,CALIBRATION,1,277,277,staircase,,,0.04162533211334363,0.042183673469387846,0.001,0.004000000000000001,0.5416253321133436,1950,1650,0,,BLACK,,,0,,BLACK,True,CORRECT,2.756981200000155,2756.981200000155
6,20260325_140431,D,J,False,CALIBRATION,1,278,278,staircase,,,0.03331050325219341,0.041183673469387845,0.001,0.004000000000000001,0.5333105032521934,1920,1680,0,,BLACK,,,0,,BLACK,True,CORRECT,1.6449498000001768,1644.9498000001768
6,20260325_140431,D,J,False,CALIBRATION,1,279,279,staircase,,,0.03507701881205569,0.040183673469387844,0.001,0.004000000000000001,0.4649229811879443,1674,1926,0,,WHITE,,,0,,WHITE,True,CORRECT,1.039340600000287,1039.340600000287
6,20260325_140431,D,J,False,CALIBRATION,1,280,280,staircase,,,0.04553497484471333,0.03918367346938784,0.001,0.004000000000000001,0.45446502515528664,1636,1964,0,,WHITE,,,0,,WHITE,True,CORRECT,1.736952499999461,1736.952499999461
6,20260325_140431,D,J,False,CALIBRATION,1,281,281,staircase,,,0.035995124372495496,0.03818367346938784,0.001,0.004000000000000001,0.4640048756275045,1670,1930,0,,WHITE,,,0,,WHITE,True,CORRECT,1.799998800001049,1799.998800001049
6,20260325_140431,D,J,False,CALIBRATION,1,282,282,staircase,,,0.055974086938361076,0.03718367346938784,0.001,0.004000000000000001,0.4440259130616389,1598,2002,0,,WHITE,,,0,,WHITE,True,CORRECT,1.1049198000000615,1104.9198000000615
6,20260325_140431,D,J,False,CALIBRATION,1,283,283,staircase,,,0.042138868773391944,0.03618367346938784,0.001,0.004000000000000001,0.5421388687733919,1952,1648,0,,BLACK,,,0,,BLACK,True,CORRECT,1.0257399000001897,1025.7399000001897
6,20260325_140431,D,J,False,CALIBRATION,1,284,284,staircase,,,0.04244978477735195,0.03518367346938784,0.001,0.004000000000000001,0.45755021522264805,1647,1953,0,,WHITE,,,0,,WHITE,True,CORRECT,1.1440425000000687,1144.0425000000687
6,20260325_140431,D,J,False,CALIBRATION,1,285,285,staircase,,,0.04271875371920959,0.03418367346938784,0.001,0.004000000000000001,0.5427187537192096,1954,1646,0,,BLACK,,,0,,BLACK,True,CORRECT,1.823809400000755,1823.809400000755
6,20260325_140431,D,J,False,CALIBRATION,1,286,286,staircase,,,0.02398840474354825,0.03318367346938784,0.001,0.004000000000000001,0.47601159525645176,1714,1886,0,,WHITE,,,0,,WHITE,True,CORRECT,0.8055563999987498,805.5563999987498
6,20260325_140431,D,J,False,CALIBRATION,1,287,287,staircase,,,0.02731895958949017,0.03218367346938784,0.001,0.004000000000000001,0.5273189595894902,1898,1702,0,,BLACK,,,0,,BLACK,True,CORRECT,1.58140640000056,1581.40640000056
6,20260325_140431,D,J,False,CALIBRATION,1,288,288,staircase,,,0.03429632376009567,0.031183673469387836,0.001,0.004000000000000001,0.46570367623990433,1677,1923,0,,WHITE,,,0,,WHITE,True,CORRECT,2.1039228000008734,2103.9228000008734
6,20260325_140431,D,J,False,CALIBRATION,1,289,289,staircase,,,0.01202017365078429,0.03518367346938784,0.001,0.004000000000000001,0.4879798263492157,1757,1843,0,,WHITE,,,0,,BLACK,False,INCORRECT,2.4058150999990175,2405.8150999990175
6,20260325_140431,D,J,False,CALIBRATION,1,290,290,staircase,,,0.02276618977985183,0.03418367346938784,0.001,0.004000000000000001,0.47723381022014816,1718,1882,0,,WHITE,,,0,,WHITE,True,CORRECT,1.9209602000009909,1920.9602000009909
6,20260325_140431,D,J,False,CALIBRATION,1,291,291,staircase,,,0.020806876455714073,0.03318367346938784,0.001,0.004000000000000001,0.47919312354428595,1725,1875,0,,WHITE,,,0,,WHITE,True,CORRECT,1.4939008000001195,1493.9008000001195
6,20260325_140431,D,J,False,CALIBRATION,1,292,292,staircase,,,0.02442587639866061,0.03218367346938784,0.001,0.004000000000000001,0.5244258763986606,1888,1712,0,,BLACK,,,0,,BLACK,True,CORRECT,1.435002700000041,1435.002700000041
6,20260325_140431,D,J,False,CALIBRATION,1,293,293,staircase,,,0.04352889434553358,0.031183673469387836,0.001,0.004000000000000001,0.5435288943455335,1957,1643,0,,BLACK,,,0,,BLACK,True,CORRECT,3.3188965000008466,3318.8965000008466
6,20260325_140431,D,J,False,CALIBRATION,1,294,294,staircase,,,0.019072481856304134,0.030183673469387835,0.001,0.004000000000000001,0.5190724818563042,1869,1731,0,,BLACK,,,0,,BLACK,True,CORRECT,3.01147729999866,3011.47729999866
6,20260325_140431,D,J,False,CALIBRATION,1,295,295,staircase,,,0.036713387729231876,0.03418367346938784,0.001,0.004000000000000001,0.5367133877292318,1932,1668,0,,BLACK,,,0,,WHITE,False,INCORRECT,3.3011457000029623,3301.1457000029623
6,20260325_140431,D,J,False,CALIBRATION,1,296,296,staircase,,,0.04316982234990261,0.03318367346938784,0.001,0.004000000000000001,0.5431698223499026,1955,1645,0,,BLACK,,,0,,BLACK,True,CORRECT,1.7914533000002848,1791.4533000002848
6,20260325_140431,D,J,False,CALIBRATION,1,297,297,staircase,,,0.02664157543258229,0.03718367346938784,0.001,0.004000000000000001,0.5266415754325823,1896,1704,0,,BLACK,,,0,,WHITE,False,INCORRECT,1.7998422000018763,1799.8422000018763
6,20260325_140431,D,J,False,CALIBRATION,1,298,298,staircase,,,0.0421592990722564,0.03618367346938784,0.001,0.004000000000000001,0.4578407009277436,1648,1952,0,,WHITE,,,0,,WHITE,True,CORRECT,1.1894353999996383,1189.4353999996383
6,20260325_140431,D,J,False,CALIBRATION,1,299,299,staircase,,,0.030745518398119575,0.03518367346938784,0.001,0.004000000000000001,0.46925448160188044,1689,1911,0,,WHITE,,,0,,WHITE,True,CORRECT,0.8046527999977116,804.6527999977116
6,20260325_140431,D,J,False,CALIBRATION,1,300,300,staircase,,,0.03238284932776851,0.03418367346938784,0.001,0.004000000000000001,0.4676171506722315,1683,1917,0,,WHITE,,,0,,WHITE,True,CORRECT,1.0616238999973575,1061.6238999973575
6,20260325_140431,D,J,False,AUTOMATION2,2,1,301,fixed_delta,0.04169584712997743,0.012883078076194597,,,,,0.5347004812081045,1925,1675,1,0.65,BLACK,BLACK,True,0,0.0032000025385059416,BLACK,True,CORRECT,1.7121028000001388,1712.1028000001388
6,20260325_140431,D,J,False,AUTOMATION2,2,2,302,fixed_delta,0.04169584712997743,0.012883078076194597,,,,,0.4538741047086349,1634,1966,1,0.65,WHITE,WHITE,True,0,0.0017999991541728377,WHITE,True,CORRECT,0.6326880999986315,632.6880999986315
6,20260325_140431,D,J,False,AUTOMATION2,2,3,303,fixed_delta,0.04169584712997743,0.012883078076194597,,,,,0.4573850531798838,1647,1953,1,0.65,WHITE,BLACK,False,0,0.0013999997463542968,WHITE,True,CORRECT,1.9362599000014598,1936.2599000014598
6,20260325_140431,D,J,False,AUTOMATION2,2,4,304,fixed_delta,0.04169584712997743,0.012883078076194597,,,,,0.45916912257620257,1653,1947,1,0.65,WHITE,BLACK,False,0,0.0011999982234556228,WHITE,True,CORRECT,2.960113999997702,2960.113999997702
6,20260325_140431,D,J,False,AUTOMATION2,2,5,305,fixed_delta,0.04169584712997743,0.012883078076194597,,,,,0.5173754575285923,1863,1737,1,0.65,BLACK,BLACK,True,0,0.016400001186411828,BLACK,True,CORRECT,1.0376284000012674,1037.6284000012674
6,20260325_140431,D,J,False,AUTOMATION2,2,6,306,fixed_delta,0.04169584712997743,0.012883078076194597,,,,,0.5376668097468448,1936,1664,1,0.65,BLACK,BLACK,True,0,0.0015999976312741637,BLACK,True,CORRECT,0.9247912999999244,924.7912999999244
6,20260325_140431,D,J,False,AUTOMATION2,2,7,307,fixed_delta,0.04169584712997743,0.012883078076194597,,,,,0.4601409152796687,1657,1943,1,0.65,WHITE,WHITE,True,0,0.0016000012692529708,WHITE,True,CORRECT,0.8098241000006965,809.8241000006965
6,20260325_140431,D,J,False,AUTOMATION2,2,8,308,fixed_delta,0.04169584712997743,0.012883078076194597,,,,,0.453255148029712,1632,1968,1,0.65,WHITE,WHITE,True,0,0.0016000012692529708,WHITE,True,CORRECT,0.76197559999855,761.97559999855
6,20260325_140431,D,J,False,AUTOMATION2,2,9,309,fixed_delta,0.04169584712997743,0.012883078076194597,,,,,0.5280723939916865,1901,1699,1,0.65,BLACK,BLACK,True,0,0.0011000010999850929,BLACK,True,CORRECT,1.8747780000012426,1874.7780000012426
6,20260325_140431,D,J,False,AUTOMATION2,2,10,310,fixed_delta,0.04169584712997743,0.012883078076194597,,,,,0.46229118790771456,1664,1936,1,0.65,WHITE,WHITE,True,0,0.0012999989849049598,WHITE,True,CORRECT,1.2358196999994107,1235.8196999994107
6,20260325_140431,D,J,False,AUTOMATION2,2,11,311,fixed_delta,0.04169584712997743,0.012883078076194597,,,,,0.4576744164308236,1648,1952,1,0.65,WHITE,WHITE,True,0,0.0013999997463542968,WHITE,True,CORRECT,2.0187230999981693,2018.7230999981693
6,20260325_140431,D,J,False,AUTOMATION2,2,12,312,fixed_delta,0.04169584712997743,0.012883078076194597,,,,,0.5451582288572836,1963,1637,1,0.65,BLACK,BLACK,True,0,0.0016999983927235007,BLACK,True,CORRECT,0.7500013999997464,750.0013999997464
6,20260325_140431,D,J,False,AUTOMATION2,2,13,313,fixed_delta,0.04169584712997743,0.012883078076194597,,,,,0.45522266878391693,1639,1961,1,0.65,WHITE,WHITE,True,0,0.0015999976312741637,WHITE,True,CORRECT,1.3360993999995117,1336.0993999995117
6,20260325_140431,D,J,False,AUTOMATION2,2,14,314,fixed_delta,0.04169584712997743,0.012883078076194597,,,,,0.5435720830897732,1957,1643,1,0.65,BLACK,BLACK,True,0,0.0017000020307023078,WHITE,False,INCORRECT,5.06849350000266,5068.49350000266
6,20260325_140431,D,J,False,AUTOMATION2,2,15,315,fixed_delta,0.04169584712997743,0.012883078076194597,,,,,0.4489244605185183,1616,1984,1,0.65,WHITE,WHITE,True,0,0.0012999989849049598,WHITE,True,CORRECT,0.7934577999985777,793.4577999985777
6,20260325_140431,D,J,False,AUTOMATION2,2,16,316,fixed_delta,0.04169584712997743,0.012883078076194597,,,,,0.5639538447263208,2030,1570,1,0.65,BLACK,WHITE,False,0,0.0012999989849049598,WHITE,False,INCORRECT,1.7864254000014625,1786.4254000014625
6,20260325_140431,D,J,False,AUTOMATION2,2,17,317,fixed_delta,0.04169584712997743,0.012883078076194597,,,,,0.44404185698241355,1599,2001,1,0.65,WHITE,WHITE,True,0,0.0013999997463542968,WHITE,True,CORRECT,0.941142799998488,941.142799998488
6,20260325_140431,D,J,False,AUTOMATION2,2,18,318,fixed_delta,0.04169584712997743,0.012883078076194597,,,,,0.4362031047331444,1570,2030,1,0.65,WHITE,WHITE,True,0,0.0016999983927235007,WHITE,True,CORRECT,1.021806500000821,1021.806500000821
6,20260325_140431,D,J,False,AUTOMATION2,2,19,319,fixed_delta,0.04169584712997743,0.012883078076194597,,,,,0.5643809333300276,2032,1568,1,0.65,BLACK,WHITE,False,0,0.0012000018614344299,BLACK,True,CORRECT,1.0716425999999046,1071.6425999999046
6,20260325_140431,D,J,False,AUTOMATION2,2,20,320,fixed_delta,0.04169584712997743,0.012883078076194597,,,,,0.46814133847577194,1685,1915,1,0.65,WHITE,BLACK,False,0,0.0015000005078036338,WHITE,True,CORRECT,1.8754258000008122,1875.4258000008122
6,20260325_140431,D,J,False,AUTOMATION2,2,21,321,fixed_delta,0.04169584712997743,0.012883078076194597,,,,,0.4375510996460995,1575,2025,1,0.65,WHITE,WHITE,True,0,0.0013999997463542968,WHITE,True,CORRECT,0.6534591999989061,653.4591999989061
6,20260325_140431,D,J,False,AUTOMATION2,2,22,322,fixed_delta,0.04169584712997743,0.012883078076194597,,,,,0.5442825297960688,1959,1641,1,0.65,BLACK,WHITE,False,0,0.0013999997463542968,BLACK,True,CORRECT,0.7635083999994094,763.5083999994094
6,20260325_140431,D,J,False,AUTOMATION2,2,23,323,fixed_delta,0.04169584712997743,0.012883078076194597,,,,,0.4741894633846735,1707,1893,1,0.65,WHITE,WHITE,True,0,0.0012999989849049598,BLACK,False,INCORRECT,1.987617599999794,1987.617599999794
6,20260325_140431,D,J,False,AUTOMATION2,2,24,324,fixed_delta,0.04169584712997743,0.012883078076194597,,,,,0.4414085826800476,1589,2011,1,0.65,WHITE,WHITE,True,0,0.0014999968698248267,WHITE,True,CORRECT,0.7147563999969861,714.7563999969861
6,20260325_140431,D,J,False,AUTOMATION2,2,25,325,fixed_delta,0.04169584712997743,0.012883078076194597,,,,,0.46450810723920277,1672,1928,1,0.65,WHITE,WHITE,True,0,0.0013999997463542968,WHITE,True,CORRECT,3.447069999998348,3447.069999998348
6,20260325_140431,D,J,False,AUTOMATION2,2,26,326,fixed_delta,0.04169584712997743,0.012883078076194597,,,,,0.5456516025274312,1964,1636,1,0.65,BLACK,WHITE,False,0,0.0015000005078036338,BLACK,True,CORRECT,0.9320250000018859,932.0250000018859
6,20260325_140431,D,J,False,AUTOMATION2,2,27,327,fixed_delta,0.04169584712997743,0.012883078076194597,,,,,0.4511420072339565,1624,1976,1,0.65,WHITE,WHITE,True,0,0.0016999983927235007,WHITE,True,CORRECT,0.8559304999980668,855.9304999980668
6,20260325_140431,D,J,False,AUTOMATION2,2,28,328,fixed_delta,0.04169584712997743,0.012883078076194597,,,,,0.5269870170162042,1897,1703,1,0.65,BLACK,BLACK,True,0,0.0016000012692529708,BLACK,True,CORRECT,0.7670395000022836,767.0395000022836
6,20260325_140431,D,J,False,AUTOMATION2,2,29,329,fixed_delta,0.04169584712997743,0.012883078076194597,,,,,0.5359980821203109,1930,1670,1,0.65,BLACK,WHITE,False,0,0.0013999997463542968,BLACK,True,CORRECT,1.9990474000005634,1999.0474000005634
6,20260325_140431,D,J,False,AUTOMATION2,2,30,330,fixed_delta,0.04169584712997743,0.012883078076194597,,,,,0.44639544380985635,1607,1993,1,0.65,WHITE,WHITE,True,0,0.0011999982234556228,WHITE,True,CORRECT,1.0285602999974799,1028.56029999748
6,20260325_140431,D,J,False,AUTOMATION2,2,31,331,fixed_delta,0.04169584712997743,0.012883078076194597,,,,,0.5473665088057178,1971,1629,1,0.65,BLACK,WHITE,False,0,0.0013999997463542968,BLACK,True,CORRECT,1.00135070000033,1001.3507000003301
6,20260325_140431,D,J,False,AUTOMATION2,2,32,332,fixed_delta,0.04169584712997743,0.012883078076194597,,,,,0.5421012640153394,1952,1648,1,0.65,BLACK,BLACK,True,0,0.0012000018614344299,BLACK,True,CORRECT,0.5799404000026698,579.9404000026698
6,20260325_140431,D,J,False,AUTOMATION2,2,33,333,fixed_delta,0.04169584712997743,0.012883078076194597,,,,,0.4807093738797254,1731,1869,1,0.65,WHITE,WHITE,True,0,0.0015000005078036338,WHITE,True,CORRECT,0.5205573999992339,520.5573999992339
6,20260325_140431,D,J,False,AUTOMATION2,2,34,334,fixed_delta,0.04169584712997743,0.012883078076194597,,,,,0.5334615389175255,1920,1680,1,0.65,BLACK,WHITE,False,0,0.0013999997463542968,BLACK,True,CORRECT,0.6245725999979186,624.5725999979186
6,20260325_140431,D,J,False,AUTOMATION2,2,35,335,fixed_delta,0.04169584712997743,0.012883078076194597,,,,,0.47272684151553546,1702,1898,1,0.65,WHITE,WHITE,True,0,0.0013999997463542968,WHITE,True,CORRECT,0.6262528999977803,626.2528999977803
6,20260325_140431,D,J,False,AUTOMATION2,2,36,336,fixed_delta,0.04169584712997743,0.012883078076194597,,,,,0.5549427492143214,1998,1602,1,0.65,BLACK,BLACK,True,0,0.0012999989849049598,BLACK,True,CORRECT,0.5193332999988343,519.3332999988343
6,20260325_140431,D,J,False,AUTOMATION2,2,37,337,fixed_delta,0.04169584712997743,0.012883078076194597,,,,,0.5456802947857171,1964,1636,1,0.65,BLACK,BLACK,True,0,0.0013999997463542968,BLACK,True,CORRECT,0.5526814000004379,552.6814000004379
6,20260325_140431,D,J,False,AUTOMATION2,2,38,338,fixed_delta,0.04169584712997743,0.012883078076194597,,,,,0.529010926269022,1904,1696,1,0.65,BLACK,BLACK,True,0,0.0016000012692529708,BLACK,True,CORRECT,0.823161500000424,823.161500000424
6,20260325_140431,D,J,False,AUTOMATION2,2,39,339,fixed_delta,0.04169584712997743,0.012883078076194597,,,,,0.4928976629877221,1774,1826,1,0.65,WHITE,WHITE,True,0,0.0015000005078036338,WHITE,True,CORRECT,0.5256565000017872,525.6565000017872
6,20260325_140431,D,J,False,AUTOMATION2,2,40,340,fixed_delta,0.04169584712997743,0.012883078076194597,,,,,0.5277974669603773,1900,1700,1,0.65,BLACK,BLACK,True,0,0.0018999999156221747,BLACK,True,CORRECT,0.7076844000002893,707.6844000002893
6,20260325_140431,D,J,False,AUTOMATION2,2,41,341,fixed_delta,0.04169584712997743,0.012883078076194597,,,,,0.43801215699927765,1577,2023,1,0.65,WHITE,WHITE,True,0,0.0012999989849049598,WHITE,True,CORRECT,0.6030949000014516,603.0949000014516
6,20260325_140431,D,J,False,AUTOMATION2,2,42,342,fixed_delta,0.04169584712997743,0.012883078076194597,,,,,0.46378743649766224,1670,1930,1,0.65,WHITE,WHITE,True,0,0.0010999974620062858,WHITE,True,CORRECT,2.858320100000128,2858.320100000128
6,20260325_140431,D,J,False,AUTOMATION2,2,43,343,fixed_delta,0.04169584712997743,0.012883078076194597,,,,,0.5299932518614364,1908,1692,1,0.65,BLACK,BLACK,True,0,0.0015000005078036338,WHITE,False,INCORRECT,0.9758159999983036,975.8159999983036
6,20260325_140431,D,J,False,AUTOMATION2,2,44,344,fixed_delta,0.04169584712997743,0.012883078076194597,,,,,0.5482799589296543,1974,1626,1,0.65,BLACK,WHITE,False,0,0.0015000005078036338,WHITE,False,INCORRECT,0.7829430999991018,782.9430999991018
6,20260325_140431,D,J,False,AUTOMATION2,2,45,345,fixed_delta,0.04169584712997743,0.012883078076194597,,,,,0.5463201177829727,1967,1633,1,0.65,BLACK,BLACK,True,0,0.0013999997463542968,BLACK,True,CORRECT,2.740132899998571,2740.132899998571
6,20260325_140431,D,J,False,AUTOMATION2,2,46,346,fixed_delta,0.04169584712997743,0.012883078076194597,,,,,0.44757060977857,1611,1989,1,0.65,WHITE,BLACK,False,0,0.0015000005078036338,WHITE,True,CORRECT,0.7366270999991684,736.6270999991684
6,20260325_140431,D,J,False,AUTOMATION2,2,47,347,fixed_delta,0.04169584712997743,0.012883078076194597,,,,,0.46044414843832965,1658,1942,1,0.65,WHITE,BLACK,False,0,0.0013000026228837669,WHITE,True,CORRECT,1.091392199999973,1091.392199999973
6,20260325_140431,D,J,False,AUTOMATION2,2,48,348,fixed_delta,0.04169584712997743,0.012883078076194597,,,,,0.46014501889382603,1657,1943,1,0.65,WHITE,WHITE,True,0,0.0013999997463542968,WHITE,True,CORRECT,0.8579294999981357,857.9294999981357
6,20260325_140431,D,J,False,AUTOMATION2,2,49,349,fixed_delta,0.04169584712997743,0.012883078076194597,,,,,0.4613614449182902,1661,1939,1,0.65,WHITE,WHITE,True,0,0.0017999991541728377,WHITE,True,CORRECT,0.762590000002092,762.590000002092
6,20260325_140431,D,J,False,AUTOMATION2,2,50,350,fixed_delta,0.04169584712997743,0.012883078076194597,,,,,0.4617523198247957,1662,1938,1,0.65,WHITE,WHITE,True,0,0.0013000026228837669,WHITE,True,CORRECT,0.7104524000023957,710.4524000023957
6,20260325_140431,D,J,False,AUTOMATION2,2,51,351,fixed_delta,0.04169584712997743,0.012883078076194597,,,,,0.4405888750623556,1586,2014,1,0.65,WHITE,WHITE,True,0,0.0017999991541728377,WHITE,True,CORRECT,0.5817061999987345,581.7061999987345
6,20260325_140431,D,J,False,AUTOMATION2,2,52,352,fixed_delta,0.04169584712997743,0.012883078076194597,,,,,0.5433674698401442,1956,1644,1,0.65,BLACK,BLACK,True,0,0.0017999991541728377,BLACK,True,CORRECT,1.6825088999976288,1682.5088999976288
6,20260325_140431,D,J,False,AUTOMATION2,2,53,353,fixed_delta,0.04169584712997743,0.012883078076194597,,,,,0.5272283070479812,1898,1702,1,0.65,BLACK,WHITE,False,0,0.0011000010999850929,WHITE,False,INCORRECT,0.9990857000011601,999.0857000011601
6,20260325_140431,D,J,False,AUTOMATION2,2,54,354,fixed_delta,0.04169584712997743,0.012883078076194597,,,,,0.5343706287544627,1924,1676,1,0.65,BLACK,BLACK,True,0,0.0017000020307023078,BLACK,True,CORRECT,1.4656512000001385,1465.6512000001385
6,20260325_140431,D,J,False,AUTOMATION2,2,55,355,fixed_delta,0.04169584712997743,0.012883078076194597,,,,,0.4497895471419262,1619,1981,1,0.65,WHITE,WHITE,True,0,0.0022999993234407157,WHITE,True,CORRECT,0.789934299999004,789.934299999004
6,20260325_140431,D,J,False,AUTOMATION2,2,56,356,fixed_delta,0.04169584712997743,0.012883078076194597,,,,,0.45957979000743326,1654,1946,1,0.65,WHITE,BLACK,False,0,0.0021999985619913787,WHITE,True,CORRECT,3.065934499998548,3065.934499998548
6,20260325_140431,D,J,False,AUTOMATION2,2,57,357,fixed_delta,0.04169584712997743,0.012883078076194597,,,,,0.45237055037101914,1629,1971,1,0.65,WHITE,BLACK,False,0,0.0018999999156221747,BLACK,False,INCORRECT,1.226457400000072,1226.457400000072
6,20260325_140431,D,J,False,AUTOMATION2,2,58,358,fixed_delta,0.04169584712997743,0.012883078076194597,,,,,0.44953918939120097,1618,1982,1,0.65,WHITE,WHITE,True,0,0.0022999993234407157,WHITE,True,CORRECT,0.7719790999981342,771.9790999981342
6,20260325_140431,D,J,False,AUTOMATION2,2,59,359,fixed_delta,0.04169584712997743,0.012883078076194597,,,,,0.44798147799341453,1613,1987,1,0.65,WHITE,WHITE,True,0,0.0011000010999850929,WHITE,True,CORRECT,1.033554900001036,1033.554900001036
6,20260325_140431,D,J,False,AUTOMATION2,2,60,360,fixed_delta,0.04169584712997743,0.012883078076194597,,,,,0.46447467929072883,1672,1928,1,0.65,WHITE,WHITE,True,0,0.0015000005078036338,WHITE,True,CORRECT,0.9175285999990592,917.5285999990592
6,20260325_140431,D,J,False,AUTOMATION2,2,61,361,fixed_delta,0.04169584712997743,0.012883078076194597,,,,,0.525971173051733,1893,1707,1,0.65,BLACK,WHITE,False,0,0.0011000010999850929,BLACK,True,CORRECT,2.042721800000436,2042.721800000436
6,20260325_140431,D,J,False,AUTOMATION2,2,62,362,fixed_delta,0.04169584712997743,0.012883078076194597,,,,,0.46263729499199835,1665,1935,1,0.65,WHITE,WHITE,True,0,0.0012999989849049598,WHITE,True,CORRECT,0.678551699998934,678.551699998934
6,20260325_140431,D,J,False,AUTOMATION2,2,63,363,fixed_delta,0.04169584712997743,0.012883078076194597,,,,,0.46089572096161535,1659,1941,1,0.65,WHITE,WHITE,True,0,0.0012999989849049598,WHITE,True,CORRECT,0.7403276000004553,740.3276000004553
6,20260325_140431,D,J,False,AUTOMATION2,2,64,364,fixed_delta,0.04169584712997743,0.012883078076194597,,,,,0.5216717763735864,1878,1722,1,0.65,BLACK,WHITE,False,0,0.0013999997463542968,WHITE,False,INCORRECT,1.0873271000018576,1087.3271000018576
6,20260325_140431,D,J,False,AUTOMATION2,2,65,365,fixed_delta,0.04169584712997743,0.012883078076194597,,,,,0.5286858421759281,1903,1697,1,0.65,BLACK,BLACK,True,0,0.0017999991541728377,BLACK,True,CORRECT,0.877084299998387,877.084299998387
6,20260325_140431,D,J,False,AUTOMATION2,2,66,366,fixed_delta,0.04169584712997743,0.012883078076194597,,,,,0.4676897527596757,1684,1916,1,0.65,WHITE,WHITE,True,0,0.0015000005078036338,WHITE,True,CORRECT,0.8611851999994542,861.1851999994542
6,20260325_140431,D,J,False,AUTOMATION2,2,67,367,fixed_delta,0.04169584712997743,0.012883078076194597,,,,,0.45181655019795364,1627,1973,1,0.65,WHITE,WHITE,True,0,0.0012999989849049598,WHITE,True,CORRECT,0.8205162000012933,820.5162000012933
6,20260325_140431,D,J,False,AUTOMATION2,2,68,368,fixed_delta,0.04169584712997743,0.012883078076194597,,,,,0.52421601149051,1887,1713,1,0.65,BLACK,BLACK,True,0,0.001400003384333104,BLACK,True,CORRECT,1.4572084000028553,1457.2084000028553
6,20260325_140431,D,J,False,AUTOMATION2,2,69,369,fixed_delta,0.04169584712997743,0.012883078076194597,,,,,0.5080323643124578,1829,1771,1,0.65,BLACK,BLACK,True,0,0.0018000027921516448,BLACK,True,CORRECT,1.3967597000009846,1396.7597000009846
6,20260325_140431,D,J,False,AUTOMATION2,2,70,370,fixed_delta,0.04169584712997743,0.012883078076194597,,,,,0.4413611234679327,1589,2011,1,0.65,WHITE,BLACK,False,0,0.0012999989849049598,WHITE,True,CORRECT,0.7712819999978819,771.2819999978819
6,20260325_140431,D,J,False,AUTOMATION2,2,71,371,fixed_delta,0.04169584712997743,0.012883078076194597,,,,,0.536970779724421,1933,1667,1,0.65,BLACK,BLACK,True,0,0.0012999989849049598,BLACK,True,CORRECT,1.1640995000016119,1164.099500001612
6,20260325_140431,D,J,False,AUTOMATION2,2,72,372,fixed_delta,0.04169584712997743,0.012883078076194597,,,,,0.5363597634751056,1931,1669,1,0.65,BLACK,WHITE,False,0,0.0015000005078036338,WHITE,False,INCORRECT,0.7057714000002306,705.7714000002306
6,20260325_140431,D,J,False,AUTOMATION2,2,73,373,fixed_delta,0.04169584712997743,0.012883078076194597,,,,,0.4533336192975247,1632,1968,1,0.65,WHITE,WHITE,True,0,0.0014999968698248267,WHITE,True,CORRECT,1.5009424999989278,1500.9424999989278
6,20260325_140431,D,J,False,AUTOMATION2,2,74,374,fixed_delta,0.04169584712997743,0.012883078076194597,,,,,0.48204720983239224,1735,1865,1,0.65,WHITE,WHITE,True,0,0.0016000012692529708,BLACK,False,INCORRECT,1.3968438000010792,1396.8438000010792
6,20260325_140431,D,J,False,AUTOMATION2,2,75,375,fixed_delta,0.04169584712997743,0.012883078076194597,,,,,0.5452171350161215,1963,1637,1,0.65,BLACK,WHITE,False,0,0.0012000018614344299,WHITE,False,INCORRECT,0.737196900001436,737.196900001436
6,20260325_140431,D,J,False,AUTOMATION2,2,76,376,fixed_delta,0.04169584712997743,0.012883078076194597,,,,,0.4730429499626116,1703,1897,1,0.65,WHITE,WHITE,True,0,0.0011999982234556228,WHITE,True,CORRECT,0.7308402999988175,730.8402999988175
6,20260325_140431,D,J,False,AUTOMATION2,2,77,377,fixed_delta,0.04169584712997743,0.012883078076194597,,,,,0.5387465114527732,1939,1661,1,0.65,BLACK,BLACK,True,0,0.0016000012692529708,BLACK,True,CORRECT,0.8130168999996386,813.0168999996386
6,20260325_140431,D,J,False,AUTOMATION2,2,78,378,fixed_delta,0.04169584712997743,0.012883078076194597,,,,,0.5454000832476114,1963,1637,1,0.65,BLACK,BLACK,True,0,0.0013999997463542968,BLACK,True,CORRECT,1.0129983999977412,1012.9983999977412
6,20260325_140431,D,J,False,AUTOMATION2,2,79,379,fixed_delta,0.04169584712997743,0.012883078076194597,,,,,0.4585977634355645,1651,1949,1,0.65,WHITE,WHITE,True,0,0.0015000005078036338,WHITE,True,CORRECT,1.2941733000006934,1294.1733000006934
6,20260325_140431,D,J,False,AUTOMATION2,2,80,380,fixed_delta,0.04169584712997743,0.012883078076194597,,,,,0.4647744210907258,1673,1927,1,0.65,WHITE,WHITE,True,0,0.0013999997463542968,WHITE,True,CORRECT,0.7454184999987774,745.4184999987774
6,20260325_140431,D,J,False,AUTOMATION2,2,81,381,fixed_delta,0.04169584712997743,0.012883078076194597,,,,,0.4509318922824928,1623,1977,1,0.65,WHITE,WHITE,True,0,0.0013999997463542968,WHITE,True,CORRECT,0.9977103999990504,997.7103999990504
6,20260325_140431,D,J,False,AUTOMATION2,2,82,382,fixed_delta,0.04169584712997743,0.012883078076194597,,,,,0.523309757311942,1884,1716,1,0.65,BLACK,BLACK,True,0,0.0018999999156221747,BLACK,True,CORRECT,0.5421284000003652,542.1284000003652
6,20260325_140431,D,J,False,AUTOMATION2,2,83,383,fixed_delta,0.04169584712997743,0.012883078076194597,,,,,0.5732858816440222,2064,1536,1,0.65,BLACK,BLACK,True,0,0.0013999997463542968,BLACK,True,CORRECT,1.02047279999897,1020.47279999897
6,20260325_140431,D,J,False,AUTOMATION2,2,84,384,fixed_delta,0.04169584712997743,0.012883078076194597,,,,,0.5601923489881274,2017,1583,1,0.65,BLACK,BLACK,True,0,0.0015999976312741637,WHITE,False,INCORRECT,1.095617899998615,1095.617899998615
6,20260325_140431,D,J,False,AUTOMATION2,2,85,385,fixed_delta,0.04169584712997743,0.012883078076194597,,,,,0.45832041440282106,1650,1950,1,0.65,WHITE,WHITE,True,0,0.0013999997463542968,WHITE,True,CORRECT,0.7552853999986837,755.2853999986837
6,20260325_140431,D,J,False,AUTOMATION2,2,86,386,fixed_delta,0.04169584712997743,0.012883078076194597,,,,,0.526402837007407,1895,1705,1,0.65,BLACK,BLACK,True,0,0.0016000012692529708,BLACK,True,CORRECT,1.31099660000109,1310.99660000109
6,20260325_140431,D,J,False,AUTOMATION2,2,87,387,fixed_delta,0.04169584712997743,0.012883078076194597,,,,,0.45458403202124376,1637,1963,1,0.65,WHITE,WHITE,True,0,0.0017999991541728377,WHITE,True,CORRECT,0.8562892999980249,856.289299998025
6,20260325_140431,D,J,False,AUTOMATION2,2,88,388,fixed_delta,0.04169584712997743,0.012883078076194597,,,,,0.4618228750507354,1663,1937,1,0.65,WHITE,WHITE,True,0,0.0011999982234556228,WHITE,True,CORRECT,0.851428499998292,851.428499998292
6,20260325_140431,D,J,False,AUTOMATION2,2,89,389,fixed_delta,0.04169584712997743,0.012883078076194597,,,,,0.44342912095204895,1596,2004,1,0.65,WHITE,BLACK,False,0,0.0012999989849049598,WHITE,True,CORRECT,0.6217333999993571,621.7333999993571
6,20260325_140431,D,J,False,AUTOMATION2,2,90,390,fixed_delta,0.04169584712997743,0.012883078076194597,,,,,0.5379918080446633,1937,1663,1,0.65,BLACK,BLACK,True,0,0.0015000005078036338,BLACK,True,CORRECT,0.900510999999824,900.510999999824
6,20260325_140431,D,J,False,AUTOMATION2,2,91,391,fixed_delta,0.04169584712997743,0.012883078076194597,,,,,0.5552162984722336,1999,1601,1,0.65,BLACK,BLACK,True,0,0.0013999997463542968,BLACK,True,CORRECT,0.7997953000012785,799.7953000012785
6,20260325_140431,D,J,False,AUTOMATION2,2,92,392,fixed_delta,0.04169584712997743,0.012883078076194597,,,,,0.5512653755930923,1985,1615,1,0.65,BLACK,BLACK,True,0,0.0011000010999850929,BLACK,True,CORRECT,1.2293246000008367,1229.3246000008367
6,20260325_140431,D,J,False,AUTOMATION2,2,93,393,fixed_delta,0.04169584712997743,0.012883078076194597,,,,,0.4720207269367655,1699,1901,1,0.65,WHITE,WHITE,True,0,0.0011999982234556228,WHITE,True,CORRECT,0.9244600999991235,924.4600999991235
6,20260325_140431,D,J,False,AUTOMATION2,2,94,394,fixed_delta,0.04169584712997743,0.012883078076194597,,,,,0.4472066042630247,1610,1990,1,0.65,WHITE,WHITE,True,0,0.0012000018614344299,WHITE,True,CORRECT,0.8286007000024256,828.6007000024256
6,20260325_140431,D,J,False,AUTOMATION2,2,95,395,fixed_delta,0.04169584712997743,0.012883078076194597,,,,,0.5423421540000819,1952,1648,1,0.65,BLACK,BLACK,True,0,0.0016999983927235007,BLACK,True,CORRECT,0.8027194999995118,802.7194999995118
6,20260325_140431,D,J,False,AUTOMATION2,2,96,396,fixed_delta,0.04169584712997743,0.012883078076194597,,,,,0.45039705329475116,1621,1979,1,0.65,WHITE,WHITE,True,0,0.0012999989849049598,WHITE,True,CORRECT,0.5997884999997041,599.7884999997041
6,20260325_140431,D,J,False,AUTOMATION2,2,97,397,fixed_delta,0.04169584712997743,0.012883078076194597,,,,,0.5410155053951878,1948,1652,1,0.65,BLACK,WHITE,False,0,0.0015000005078036338,BLACK,True,CORRECT,0.8359345999997458,835.9345999997458
6,20260325_140431,D,J,False,AUTOMATION2,2,98,398,fixed_delta,0.04169584712997743,0.012883078076194597,,,,,0.44671437828678406,1608,1992,1,0.65,WHITE,BLACK,False,0,0.0017999991541728377,WHITE,True,CORRECT,0.7918751999968663,791.8751999968663
6,20260325_140431,D,J,False,AUTOMATION2,2,99,399,fixed_delta,0.04169584712997743,0.012883078076194597,,,,,0.4566009262025367,1644,1956,1,0.65,WHITE,BLACK,False,0,0.0012999989849049598,WHITE,True,CORRECT,0.6692322999988392,669.2322999988392
6,20260325_140431,D,J,False,AUTOMATION2,2,100,400,fixed_delta,0.04169584712997743,0.012883078076194597,,,,,0.45305761486542095,1631,1969,1,0.65,WHITE,WHITE,True,0,0.0013000026228837669,WHITE,True,CORRECT,0.5146150000000489,514.6150000000489
6,20260325_140431,D,J,False,AUTOMATION2,2,101,401,fixed_delta,0.04169584712997743,0.012883078076194597,,,,,0.5295302552343273,1906,1694,1,0.65,BLACK,BLACK,True,0,0.0012999989849049598,WHITE,False,INCORRECT,0.5890325000000303,589.0325000000303
6,20260325_140431,D,J,False,AUTOMATION2,2,102,402,fixed_delta,0.04169584712997743,0.012883078076194597,,,,,0.45859929456429366,1651,1949,1,0.65,WHITE,WHITE,True,0,0.0011999982234556228,WHITE,True,CORRECT,0.6049807999988843,604.9807999988843
6,20260325_140431,D,J,False,AUTOMATION2,2,103,403,fixed_delta,0.04169584712997743,0.012883078076194597,,,,,0.45610070685968385,1642,1958,1,0.65,WHITE,WHITE,True,0,0.0017000020307023078,WHITE,True,CORRECT,0.5723464000002423,572.3464000002423
6,20260325_140431,D,J,False,AUTOMATION2,2,104,404,fixed_delta,0.04169584712997743,0.012883078076194597,,,,,0.45795879498948333,1649,1951,1,0.65,WHITE,WHITE,True,0,0.0016999983927235007,WHITE,True,CORRECT,0.6557704999977432,655.7704999977432
6,20260325_140431,D,J,False,AUTOMATION2,2,105,405,fixed_delta,0.04169584712997743,0.012883078076194597,,,,,0.4626992634522013,1666,1934,1,0.65,WHITE,WHITE,True,0,0.0013999997463542968,WHITE,True,CORRECT,0.7755299999989802,775.5299999989802
6,20260325_140431,D,J,False,AUTOMATION2,2,106,406,fixed_delta,0.04169584712997743,0.012883078076194597,,,,,0.5627025079744947,2026,1574,1,0.65,BLACK,WHITE,False,0,0.0017000020307023078,BLACK,True,CORRECT,0.5875327000030666,587.5327000030666
6,20260325_140431,D,J,False,AUTOMATION2,2,107,407,fixed_delta,0.04169584712997743,0.012883078076194597,,,,,0.479985903989949,1728,1872,1,0.65,WHITE,WHITE,True,0,0.0016000012692529708,WHITE,True,CORRECT,1.4930758000009519,1493.0758000009519
6,20260325_140431,D,J,False,AUTOMATION2,2,108,408,fixed_delta,0.04169584712997743,0.012883078076194597,,,,,0.5267072023728709,1896,1704,1,0.65,BLACK,BLACK,True,0,0.0013999997463542968,BLACK,True,CORRECT,1.246400200001517,1246.400200001517
6,20260325_140431,D,J,False,AUTOMATION2,2,109,409,fixed_delta,0.04169584712997743,0.012883078076194597,,,,,0.5597957717881004,2015,1585,1,0.65,BLACK,BLACK,True,0,0.0016999983927235007,BLACK,True,CORRECT,0.7151064999998198,715.1064999998198
6,20260325_140431,D,J,False,AUTOMATION2,2,110,410,fixed_delta,0.04169584712997743,0.012883078076194597,,,,,0.4459323337188891,1605,1995,1,0.65,WHITE,BLACK,False,0,0.001400003384333104,WHITE,True,CORRECT,0.6582799000025261,658.2799000025261
6,20260325_140431,D,J,False,AUTOMATION2,2,111,411,fixed_delta,0.04169584712997743,0.012883078076194597,,,,,0.47822841537687444,1722,1878,1,0.65,WHITE,WHITE,True,0,0.0016000012692529708,WHITE,True,CORRECT,2.1504104000014195,2150.4104000014195
6,20260325_140431,D,J,False,AUTOMATION2,2,112,412,fixed_delta,0.04169584712997743,0.012883078076194597,,,,,0.4754216771605574,1712,1888,1,0.65,WHITE,WHITE,True,0,0.0016000012692529708,BLACK,False,INCORRECT,1.9843672000024526,1984.3672000024526
6,20260325_140431,D,J,False,AUTOMATION2,2,113,413,fixed_delta,0.04169584712997743,0.012883078076194597,,,,,0.46731151209313204,1682,1918,1,0.65,WHITE,BLACK,False,0,0.0013000026228837669,WHITE,True,CORRECT,0.7540585000024294,754.0585000024294
6,20260325_140431,D,J,False,AUTOMATION2,2,114,414,fixed_delta,0.04169584712997743,0.012883078076194597,,,,,0.5564778470820427,2003,1597,1,0.65,BLACK,WHITE,False,0,0.0013999997463542968,BLACK,True,CORRECT,1.1334528000006685,1133.4528000006685
6,20260325_140431,D,J,False,AUTOMATION2,2,115,415,fixed_delta,0.04169584712997743,0.012883078076194597,,,,,0.46651524850000514,1679,1921,1,0.65,WHITE,WHITE,True,0,0.0013999997463542968,WHITE,True,CORRECT,0.7347918999985268,734.7918999985268
6,20260325_140431,D,J,False,AUTOMATION2,2,116,416,fixed_delta,0.04169584712997743,0.012883078076194597,,,,,0.46723751574859207,1682,1918,1,0.65,WHITE,WHITE,True,0,0.0013000026228837669,WHITE,True,CORRECT,1.1423214999995253,1142.3214999995253
6,20260325_140431,D,J,False,AUTOMATION2,2,117,417,fixed_delta,0.04169584712997743,0.012883078076194597,,,,,0.5528190421772751,1990,1610,1,0.65,BLACK,BLACK,True,0,0.0017000020307023078,BLACK,True,CORRECT,1.4054715999991458,1405.4715999991458
6,20260325_140431,D,J,False,AUTOMATION2,2,118,418,fixed_delta,0.04169584712997743,0.012883078076194597,,,,,0.4521622808696608,1628,1972,1,0.65,WHITE,WHITE,True,0,0.0012999989849049598,WHITE,True,CORRECT,0.6963861000003817,696.3861000003817
6,20260325_140431,D,J,False,AUTOMATION2,2,119,419,fixed_delta,0.04169584712997743,0.012883078076194597,,,,,0.45797759871799815,1649,1951,1,0.65,WHITE,WHITE,True,0,0.015300000086426735,WHITE,True,CORRECT,2.179871100001037,2179.871100001037
6,20260325_140431,D,J,False,AUTOMATION2,2,120,420,fixed_delta,0.04169584712997743,0.012883078076194597,,,,,0.5371325406533197,1934,1666,1,0.65,BLACK,BLACK,True,0,0.0012999989849049598,BLACK,True,CORRECT,3.8441122000003816,3844.1122000003816
6,20260325_140431,D,J,False,AUTOMATION2,2,121,421,fixed_delta,0.04169584712997743,0.012883078076194597,,,,,0.5666078755965628,2040,1560,1,0.65,BLACK,BLACK,True,0,0.0023000029614195228,BLACK,True,CORRECT,1.0750134000008984,1075.0134000008984
6,20260325_140431,D,J,False,AUTOMATION2,2,122,422,fixed_delta,0.04169584712997743,0.012883078076194597,,,,,0.4639398938939134,1670,1930,1,0.65,WHITE,BLACK,False,0,0.0016999983927235007,WHITE,True,CORRECT,1.7819601999981387,1781.9601999981387
6,20260325_140431,D,J,False,AUTOMATION2,2,123,423,fixed_delta,0.04169584712997743,0.012883078076194597,,,,,0.5475311991663471,1971,1629,1,0.65,BLACK,BLACK,True,0,0.0017999991541728377,BLACK,True,CORRECT,0.8166931999985536,816.6931999985536
6,20260325_140431,D,J,False,AUTOMATION2,2,124,424,fixed_delta,0.04169584712997743,0.012883078076194597,,,,,0.5220099848423915,1879,1721,1,0.65,BLACK,BLACK,True,0,0.0013999997463542968,BLACK,True,CORRECT,1.3181368000005023,1318.1368000005023
