participant_id,run_timestamp,key_black,key_white,keymap_flip,block,block_idx,trial,global_trial,difficulty_mode,delta_fixed_mean,delta_fixed_sd,delta_stair_realised,delta_stair_mean,delta_step_down_used,delta_step_up_used,vblack_prop,n_vblack,n_vwhite,auto_on,aid_accuracy_setting,stimulus,aid_label,aid_correct,aid_onset_ms,aid_onset_ms_rel,response,correct,feedback,rt_s,rt_ms
4,20260325_121644,D,J,False,AUTOMATION1,2,1,301,fixed_delta,0.04274353132498164,0.014104974879815414,,,,,0.460878117554799,1659,1941,1,0.95,WHITE,BLACK,False,0,0.0024000000848900527,BLACK,False,INCORRECT,6.179157900000064,6179.157900000064
4,20260325_121644,D,J,False,AUTOMATION1,2,2,302,fixed_delta,0.04274353132498164,0.014104974879815414,,,,,0.45582592029820346,1641,1959,1,0.95,WHITE,WHITE,True,0,0.0012999989849049598,WHITE,True,CORRECT,3.29722799999945,3297.22799999945
4,20260325_121644,D,J,False,AUTOMATION1,2,3,303,fixed_delta,0.04274353132498164,0.014104974879815414,,,,,0.4584625057080751,1650,1950,1,0.95,WHITE,WHITE,True,0,0.0014000015653437003,WHITE,True,CORRECT,1.538166700000147,1538.166700000147
4,20260325_121644,D,J,False,AUTOMATION1,2,4,304,fixed_delta,0.04274353132498164,0.014104974879815414,,,,,0.4682212615783068,1686,1914,1,0.95,WHITE,WHITE,True,0,0.0011000010999850929,WHITE,True,CORRECT,2.607648100000006,2607.648100000006
4,20260325_121644,D,J,False,AUTOMATION1,2,5,305,fixed_delta,0.04274353132498164,0.014104974879815414,,,,,0.5245771035746916,1888,1712,1,0.95,BLACK,BLACK,True,0,0.0010000003385357559,BLACK,True,CORRECT,2.1225128000005498,2122.5128000005498
4,20260325_121644,D,J,False,AUTOMATION1,2,6,306,fixed_delta,0.04274353132498164,0.014104974879815414,,,,,0.44302161495099857,1595,2005,1,0.95,WHITE,WHITE,True,0,0.0013999997463542968,WHITE,True,CORRECT,1.0973025000002963,1097.3025000002963
4,20260325_121644,D,J,False,AUTOMATION1,2,7,307,fixed_delta,0.04274353132498164,0.014104974879815414,,,,,0.46332578137441177,1668,1932,1,0.95,WHITE,WHITE,True,0,0.0016000012692529708,WHITE,True,CORRECT,2.4359143000001495,2435.9143000001495
4,20260325_121644,D,J,False,AUTOMATION1,2,8,308,fixed_delta,0.04274353132498164,0.014104974879815414,,,,,0.440081130218339,1584,2016,1,0.95,WHITE,WHITE,True,0,0.0013999997463542968,BLACK,False,INCORRECT,5.533888999998453,5533.888999998453
4,20260325_121644,D,J,False,AUTOMATION1,2,9,309,fixed_delta,0.04274353132498164,0.014104974879815414,,,,,0.5314865414605874,1913,1687,1,0.95,BLACK,BLACK,True,0,0.0018999999156221747,BLACK,True,CORRECT,0.9264043000002857,926.4043000002857
4,20260325_121644,D,J,False,AUTOMATION1,2,10,310,fixed_delta,0.04274353132498164,0.014104974879815414,,,,,0.46927868772942755,1689,1911,1,0.95,WHITE,WHITE,True,0,0.0012000000424450263,WHITE,True,CORRECT,0.959003500000108,959.003500000108
4,20260325_121644,D,J,False,AUTOMATION1,2,11,311,fixed_delta,0.04274353132498164,0.014104974879815414,,,,,0.526410124075935,1895,1705,1,0.95,BLACK,BLACK,True,0,0.0013999997463542968,BLACK,True,CORRECT,2.8866281999999046,2886.6281999999046
4,20260325_121644,D,J,False,AUTOMATION1,2,12,312,fixed_delta,0.04274353132498164,0.014104974879815414,,,,,0.5539547401104604,1994,1606,1,0.95,BLACK,BLACK,True,0,0.0012999989849049598,BLACK,True,CORRECT,3.2256240000006073,3225.6240000006073
4,20260325_121644,D,J,False,AUTOMATION1,2,13,313,fixed_delta,0.04274353132498164,0.014104974879815414,,,,,0.5541631119159377,1995,1605,1,0.95,BLACK,BLACK,True,0,0.0010000003385357559,BLACK,True,CORRECT,2.8638811000000715,2863.8811000000715
4,20260325_121644,D,J,False,AUTOMATION1,2,14,314,fixed_delta,0.04274353132498164,0.014104974879815414,,,,,0.521626561158533,1878,1722,1,0.95,BLACK,BLACK,True,0,0.0018000009731622413,BLACK,True,CORRECT,3.119210999999268,3119.210999999268
4,20260325_121644,D,J,False,AUTOMATION1,2,15,315,fixed_delta,0.04274353132498164,0.014104974879815414,,,,,0.4561146211775452,1642,1958,1,0.95,WHITE,WHITE,True,0,0.0015000005078036338,WHITE,True,CORRECT,1.5169053000008716,1516.9053000008716
4,20260325_121644,D,J,False,AUTOMATION1,2,16,316,fixed_delta,0.04274353132498164,0.014104974879815414,,,,,0.5459727512416168,1966,1634,1,0.95,BLACK,BLACK,True,0,0.0008999995770864189,BLACK,True,CORRECT,1.5664517000004707,1566.4517000004707
4,20260325_121644,D,J,False,AUTOMATION1,2,17,317,fixed_delta,0.04274353132498164,0.014104974879815414,,,,,0.44901052113430656,1616,1984,1,0.95,WHITE,WHITE,True,0,0.0012000000424450263,WHITE,True,CORRECT,0.688703700001497,688.703700001497
4,20260325_121644,D,J,False,AUTOMATION1,2,18,318,fixed_delta,0.04274353132498164,0.014104974879815414,,,,,0.5361706699783512,1930,1670,1,0.95,BLACK,BLACK,True,0,0.0012000000424450263,BLACK,True,CORRECT,1.2312551999984862,1231.2551999984862
4,20260325_121644,D,J,False,AUTOMATION1,2,19,319,fixed_delta,0.04274353132498164,0.014104974879815414,,,,,0.5490862726581336,1977,1623,1,0.95,BLACK,BLACK,True,0,0.0014999986888142303,BLACK,True,CORRECT,1.1277012999998988,1127.7012999998988
4,20260325_121644,D,J,False,AUTOMATION1,2,20,320,fixed_delta,0.04274353132498164,0.014104974879815414,,,,,0.4460211408143051,1606,1994,1,0.95,WHITE,WHITE,True,0,0.0008000006346264854,WHITE,True,CORRECT,0.9685804000000644,968.5804000000644
4,20260325_121644,D,J,False,AUTOMATION1,2,21,321,fixed_delta,0.04274353132498164,0.014104974879815414,,,,,0.4406977240208004,1587,2013,1,0.95,WHITE,WHITE,True,0,0.0015000005078036338,WHITE,True,CORRECT,1.2755562999991525,1275.5562999991525
4,20260325_121644,D,J,False,AUTOMATION1,2,22,322,fixed_delta,0.04274353132498164,0.014104974879815414,,,,,0.5720841851964154,2060,1540,1,0.95,BLACK,BLACK,True,0,0.0012000000424450263,BLACK,True,CORRECT,0.72098460000052,720.98460000052
4,20260325_121644,D,J,False,AUTOMATION1,2,23,323,fixed_delta,0.04274353132498164,0.014104974879815414,,,,,0.5449869194951436,1962,1638,1,0.95,BLACK,BLACK,True,0,0.0013000008038943633,BLACK,True,CORRECT,1.7820078000004287,1782.0078000004287
4,20260325_121644,D,J,False,AUTOMATION1,2,24,324,fixed_delta,0.04274353132498164,0.014104974879815414,,,,,0.4439602584294807,1598,2002,1,0.95,WHITE,WHITE,True,0,0.0011000010999850929,WHITE,True,CORRECT,0.6619177000011405,661.9177000011405
4,20260325_121644,D,J,False,AUTOMATION1,2,25,325,fixed_delta,0.04274353132498164,0.014104974879815414,,,,,0.45203007477452756,1627,1973,1,0.95,WHITE,WHITE,True,0,0.0008000006346264854,WHITE,True,CORRECT,0.9376143999998021,937.6143999998021
4,20260325_121644,D,J,False,AUTOMATION1,2,26,326,fixed_delta,0.04274353132498164,0.014104974879815414,,,,,0.4477487962650414,1612,1988,1,0.95,WHITE,WHITE,True,0,0.0012000000424450263,WHITE,True,CORRECT,0.8324200000006385,832.4200000006385
4,20260325_121644,D,J,False,AUTOMATION1,2,27,327,fixed_delta,0.04274353132498164,0.014104974879815414,,,,,0.5598974425599323,2016,1584,1,0.95,BLACK,BLACK,True,0,0.002099999619531445,BLACK,True,CORRECT,0.5406160999991698,540.6160999991698
4,20260325_121644,D,J,False,AUTOMATION1,2,28,328,fixed_delta,0.04274353132498164,0.014104974879815414,,,,,0.4571919551459045,1646,1954,1,0.95,WHITE,WHITE,True,0,0.0012000000424450263,WHITE,True,CORRECT,1.7687762999994447,1768.7762999994447
4,20260325_121644,D,J,False,AUTOMATION1,2,29,329,fixed_delta,0.04274353132498164,0.014104974879815414,,,,,0.45806000743375896,1649,1951,1,0.95,WHITE,WHITE,True,0,0.0010999992809956893,WHITE,True,CORRECT,1.1378635999990365,1137.8635999990365
4,20260325_121644,D,J,False,AUTOMATION1,2,30,330,fixed_delta,0.04274353132498164,0.014104974879815414,,,,,0.45200684482178843,1627,1973,1,0.95,WHITE,WHITE,True,0,0.0015999994502635673,WHITE,True,CORRECT,1.328219999999419,1328.219999999419
4,20260325_121644,D,J,False,AUTOMATION1,2,31,331,fixed_delta,0.04274353132498164,0.014104974879815414,,,,,0.5478681295602472,1972,1628,1,0.95,BLACK,BLACK,True,0,0.0017000002117129043,BLACK,True,CORRECT,0.5859915999990335,585.9915999990335
4,20260325_121644,D,J,False,AUTOMATION1,2,32,332,fixed_delta,0.04274353132498164,0.014104974879815414,,,,,0.5358655601081558,1929,1671,1,0.95,BLACK,BLACK,True,0,0.0010999992809956893,WHITE,False,INCORRECT,4.347703599998567,4347.703599998567
4,20260325_121644,D,J,False,AUTOMATION1,2,33,333,fixed_delta,0.04274353132498164,0.014104974879815414,,,,,0.5356279492046339,1928,1672,1,0.95,BLACK,BLACK,True,0,0.0009999985195463523,BLACK,True,CORRECT,2.969498399999793,2969.498399999793
4,20260325_121644,D,J,False,AUTOMATION1,2,34,334,fixed_delta,0.04274353132498164,0.014104974879815414,,,,,0.4534086797846727,1632,1968,1,0.95,WHITE,WHITE,True,0,0.0010000003385357559,WHITE,True,CORRECT,0.6919798999988416,691.9798999988416
4,20260325_121644,D,J,False,AUTOMATION1,2,35,335,fixed_delta,0.04274353132498164,0.014104974879815414,,,,,0.48564344877556936,1748,1852,1,0.95,WHITE,WHITE,True,0,0.0010000003385357559,WHITE,True,CORRECT,1.4969870000004448,1496.9870000004448
4,20260325_121644,D,J,False,AUTOMATION1,2,36,336,fixed_delta,0.04274353132498164,0.014104974879815414,,,,,0.576377455884245,2075,1525,1,0.95,BLACK,WHITE,False,0,0.0013999997463542968,BLACK,True,CORRECT,3.4403268000005482,3440.3268000005482
4,20260325_121644,D,J,False,AUTOMATION1,2,37,337,fixed_delta,0.04274353132498164,0.014104974879815414,,,,,0.44975409673255756,1619,1981,1,0.95,WHITE,BLACK,False,0,0.0015999994502635673,WHITE,True,CORRECT,2.4360489999999118,2436.0489999999118
4,20260325_121644,D,J,False,AUTOMATION1,2,38,338,fixed_delta,0.04274353132498164,0.014104974879815414,,,,,0.5445134892613337,1960,1640,1,0.95,BLACK,BLACK,True,0,0.0013999997463542968,BLACK,True,CORRECT,1.629345999999714,1629.345999999714
4,20260325_121644,D,J,False,AUTOMATION1,2,39,339,fixed_delta,0.04274353132498164,0.014104974879815414,,,,,0.5318819987890969,1915,1685,1,0.95,BLACK,BLACK,True,0,0.0011000010999850929,BLACK,True,CORRECT,1.2187849000001734,1218.7849000001734
4,20260325_121644,D,J,False,AUTOMATION1,2,40,340,fixed_delta,0.04274353132498164,0.014104974879815414,,,,,0.5689978386207086,2048,1552,1,0.95,BLACK,BLACK,True,0,0.0016000012692529708,BLACK,True,CORRECT,1.0159296000001632,1015.9296000001632
4,20260325_121644,D,J,False,AUTOMATION1,2,41,341,fixed_delta,0.04274353132498164,0.014104974879815414,,,,,0.5510160203823545,1984,1616,1,0.95,BLACK,BLACK,True,0,0.0012000000424450263,BLACK,True,CORRECT,5.678085400000782,5678.085400000782
4,20260325_121644,D,J,False,AUTOMATION1,2,42,342,fixed_delta,0.04274353132498164,0.014104974879815414,,,,,0.5444369240972844,1960,1640,1,0.95,BLACK,BLACK,True,0,0.0011000010999850929,BLACK,True,CORRECT,1.675546000000395,1675.546000000395
4,20260325_121644,D,J,False,AUTOMATION1,2,43,343,fixed_delta,0.04274353132498164,0.014104974879815414,,,,,0.4592726870236336,1653,1947,1,0.95,WHITE,BLACK,False,0,0.0013000008038943633,WHITE,True,CORRECT,2.386696999999913,2386.696999999913
4,20260325_121644,D,J,False,AUTOMATION1,2,44,344,fixed_delta,0.04274353132498164,0.014104974879815414,,,,,0.4734062643844318,1704,1896,1,0.95,WHITE,WHITE,True,0,0.0013000008038943633,WHITE,True,CORRECT,1.8085900000005495,1808.5900000005495
4,20260325_121644,D,J,False,AUTOMATION1,2,45,345,fixed_delta,0.04274353132498164,0.014104974879815414,,,,,0.4548461611781651,1637,1963,1,0.95,WHITE,WHITE,True,0,0.0010000003385357559,WHITE,True,CORRECT,2.369701100000384,2369.701100000384
4,20260325_121644,D,J,False,AUTOMATION1,2,46,346,fixed_delta,0.04274353132498164,0.014104974879815414,,,,,0.4573549608504255,1646,1954,1,0.95,WHITE,WHITE,True,0,0.0012999989849049598,WHITE,True,CORRECT,2.240191599999889,2240.191599999889
4,20260325_121644,D,J,False,AUTOMATION1,2,47,347,fixed_delta,0.04274353132498164,0.014104974879815414,,,,,0.5294351397650658,1906,1694,1,0.95,BLACK,BLACK,True,0,0.0013999997463542968,BLACK,True,CORRECT,0.9468741000000591,946.8741000000591
4,20260325_121644,D,J,False,AUTOMATION1,2,48,348,fixed_delta,0.04274353132498164,0.014104974879815414,,,,,0.44249108079665495,1593,2007,1,0.95,WHITE,WHITE,True,0,0.0011000010999850929,WHITE,True,CORRECT,0.6675238999996509,667.5238999996509
4,20260325_121644,D,J,False,AUTOMATION1,2,49,349,fixed_delta,0.04274353132498164,0.014104974879815414,,,,,0.5290326907526061,1905,1695,1,0.95,BLACK,BLACK,True,0,0.0012000000424450263,BLACK,True,CORRECT,0.842607800001133,842.607800001133
4,20260325_121644,D,J,False,AUTOMATION1,2,50,350,fixed_delta,0.04274353132498164,0.014104974879815414,,,,,0.451718731530674,1626,1974,1,0.95,WHITE,WHITE,True,0,0.0008999995770864189,WHITE,True,CORRECT,0.6756543999999849,675.6543999999849
4,20260325_121644,D,J,False,AUTOMATION1,2,51,351,fixed_delta,0.04274353132498164,0.014104974879815414,,,,,0.457240045814696,1646,1954,1,0.95,WHITE,WHITE,True,0,0.0017000002117129043,WHITE,True,CORRECT,0.8831016999993153,883.1016999993153
4,20260325_121644,D,J,False,AUTOMATION1,2,52,352,fixed_delta,0.04274353132498164,0.014104974879815414,,,,,0.553878787217332,1994,1606,1,0.95,BLACK,BLACK,True,0,0.0017000002117129043,BLACK,True,CORRECT,0.6735220999999001,673.5220999999001
4,20260325_121644,D,J,False,AUTOMATION1,2,53,353,fixed_delta,0.04274353132498164,0.014104974879815414,,,,,0.4587387429933511,1651,1949,1,0.95,WHITE,WHITE,True,0,0.0013999997463542968,WHITE,True,CORRECT,0.5940081999997346,594.0081999997346
4,20260325_121644,D,J,False,AUTOMATION1,2,54,354,fixed_delta,0.04274353132498164,0.014104974879815414,,,,,0.4524655777365062,1629,1971,1,0.95,WHITE,WHITE,True,0,0.0018999999156221747,WHITE,True,CORRECT,0.6553033999989566,655.3033999989566
4,20260325_121644,D,J,False,AUTOMATION1,2,55,355,fixed_delta,0.04274353132498164,0.014104974879815414,,,,,0.4545862913598865,1637,1963,1,0.95,WHITE,BLACK,False,0,0.0012999989849049598,WHITE,True,CORRECT,1.5482410000004165,1548.2410000004165
4,20260325_121644,D,J,False,AUTOMATION1,2,56,356,fixed_delta,0.04274353132498164,0.014104974879815414,,,,,0.44044123221434284,1586,2014,1,0.95,WHITE,WHITE,True,0,0.0014000015653437003,WHITE,True,CORRECT,1.3387304000007134,1338.7304000007134
4,20260325_121644,D,J,False,AUTOMATION1,2,57,357,fixed_delta,0.04274353132498164,0.014104974879815414,,,,,0.5589433191281854,2012,1588,1,0.95,BLACK,BLACK,True,0,0.0017000002117129043,BLACK,True,CORRECT,0.8950394999992568,895.0394999992568
4,20260325_121644,D,J,False,AUTOMATION1,2,58,358,fixed_delta,0.04274353132498164,0.014104974879815414,,,,,0.5419159383418216,1951,1649,1,0.95,BLACK,BLACK,True,0,0.0014000015653437003,BLACK,True,CORRECT,0.6073023000008106,607.3023000008106
4,20260325_121644,D,J,False,AUTOMATION1,2,59,359,fixed_delta,0.04274353132498164,0.014104974879815414,,,,,0.5232567336473601,1884,1716,1,0.95,BLACK,BLACK,True,0,0.0013999997463542968,WHITE,False,INCORRECT,0.891226399999141,891.226399999141
4,20260325_121644,D,J,False,AUTOMATION1,2,60,360,fixed_delta,0.04274353132498164,0.014104974879815414,,,,,0.5550409700926416,1998,1602,1,0.95,BLACK,WHITE,False,0,0.0013999997463542968,BLACK,True,CORRECT,2.5276283000002877,2527.6283000002877
4,20260325_121644,D,J,False,AUTOMATION1,2,61,361,fixed_delta,0.04274353132498164,0.014104974879815414,,,,,0.44530455556782345,1603,1997,1,0.95,WHITE,WHITE,True,0,0.0015999994502635673,WHITE,True,CORRECT,1.0257384999986243,1025.7384999986243
4,20260325_121644,D,J,False,AUTOMATION1,2,62,362,fixed_delta,0.04274353132498164,0.014104974879815414,,,,,0.5497458672646593,1979,1621,1,0.95,BLACK,BLACK,True,0,0.0006999998731771484,WHITE,False,INCORRECT,1.0454317000003357,1045.4317000003357
4,20260325_121644,D,J,False,AUTOMATION1,2,63,363,fixed_delta,0.04274353132498164,0.014104974879815414,,,,,0.47517835165953504,1711,1889,1,0.95,WHITE,WHITE,True,0,0.0012000000424450263,WHITE,True,CORRECT,0.8265377999996417,826.5377999996417
4,20260325_121644,D,J,False,AUTOMATION1,2,64,364,fixed_delta,0.04274353132498164,0.014104974879815414,,,,,0.5606267317590905,2018,1582,1,0.95,BLACK,BLACK,True,0,0.0016000012692529708,BLACK,True,CORRECT,0.798039900000731,798.039900000731
4,20260325_121644,D,J,False,AUTOMATION1,2,65,365,fixed_delta,0.04274353132498164,0.014104974879815414,,,,,0.5490446155782474,1977,1623,1,0.95,BLACK,BLACK,True,0,0.0013000008038943633,BLACK,True,CORRECT,1.2524580000008427,1252.4580000008427
4,20260325_121644,D,J,False,AUTOMATION1,2,66,366,fixed_delta,0.04274353132498164,0.014104974879815414,,,,,0.46468483868754873,1673,1927,1,0.95,WHITE,WHITE,True,0,0.0010999992809956893,WHITE,True,CORRECT,1.3075864000002184,1307.5864000002184
4,20260325_121644,D,J,False,AUTOMATION1,2,67,367,fixed_delta,0.04274353132498164,0.014104974879815414,,,,,0.5579473489998761,2009,1591,1,0.95,BLACK,BLACK,True,0,0.0018999999156221747,BLACK,True,CORRECT,3.5087355000014213,3508.7355000014213
4,20260325_121644,D,J,False,AUTOMATION1,2,68,368,fixed_delta,0.04274353132498164,0.014104974879815414,,,,,0.5348987766357506,1926,1674,1,0.95,BLACK,BLACK,True,0,0.0014000015653437003,BLACK,True,CORRECT,0.7722420999998576,772.2420999998576
4,20260325_121644,D,J,False,AUTOMATION1,2,69,369,fixed_delta,0.04274353132498164,0.014104974879815414,,,,,0.5679374092276815,2045,1555,1,0.95,BLACK,BLACK,True,0,0.0015000005078036338,BLACK,True,CORRECT,0.6527057000002969,652.7057000002969
4,20260325_121644,D,J,False,AUTOMATION1,2,70,370,fixed_delta,0.04274353132498164,0.014104974879815414,,,,,0.5206328575157585,1874,1726,1,0.95,BLACK,BLACK,True,0,0.0013999997463542968,BLACK,True,CORRECT,0.5953840999991371,595.3840999991371
4,20260325_121644,D,J,False,AUTOMATION1,2,71,371,fixed_delta,0.04274353132498164,0.014104974879815414,,,,,0.4783187684973136,1722,1878,1,0.95,WHITE,WHITE,True,0,0.0010000003385357559,WHITE,True,CORRECT,0.6833342999998422,683.3342999998422
4,20260325_121644,D,J,False,AUTOMATION1,2,72,372,fixed_delta,0.04274353132498164,0.014104974879815414,,,,,0.4383021241885555,1578,2022,1,0.95,WHITE,WHITE,True,0,0.0012000000424450263,BLACK,False,INCORRECT,1.0996964000005391,1099.6964000005391
4,20260325_121644,D,J,False,AUTOMATION1,2,73,373,fixed_delta,0.04274353132498164,0.014104974879815414,,,,,0.46274662248738685,1666,1934,1,0.95,WHITE,WHITE,True,0,0.0012000000424450263,WHITE,True,CORRECT,0.6840059999994992,684.0059999994992
4,20260325_121644,D,J,False,AUTOMATION1,2,74,374,fixed_delta,0.04274353132498164,0.014104974879815414,,,,,0.5729667077117222,2063,1537,1,0.95,BLACK,BLACK,True,0,0.0012000000424450263,BLACK,True,CORRECT,0.8378873000001477,837.8873000001477
4,20260325_121644,D,J,False,AUTOMATION1,2,75,375,fixed_delta,0.04274353132498164,0.014104974879815414,,,,,0.5371888140617553,1934,1666,1,0.95,BLACK,BLACK,True,0,0.0008999995770864189,BLACK,True,CORRECT,1.8904881999987992,1890.4881999987992
4,20260325_121644,D,J,False,AUTOMATION1,2,76,376,fixed_delta,0.04274353132498164,0.014104974879815414,,,,,0.4629531503713045,1667,1933,1,0.95,WHITE,WHITE,True,0,0.0015000005078036338,WHITE,True,CORRECT,1.00020670000049,1000.20670000049
4,20260325_121644,D,J,False,AUTOMATION1,2,77,377,fixed_delta,0.04274353132498164,0.014104974879815414,,,,,0.4668858611465347,1681,1919,1,0.95,WHITE,WHITE,True,0,0.0013000008038943633,WHITE,True,CORRECT,2.8173643999998603,2817.3643999998603
4,20260325_121644,D,J,False,AUTOMATION1,2,78,378,fixed_delta,0.04274353132498164,0.014104974879815414,,,,,0.4691969137268484,1689,1911,1,0.95,WHITE,BLACK,False,0,0.0012000000424450263,WHITE,True,CORRECT,3.2540509999998903,3254.0509999998903
4,20260325_121644,D,J,False,AUTOMATION1,2,79,379,fixed_delta,0.04274353132498164,0.014104974879815414,,,,,0.44569457594398054,1605,1995,1,0.95,WHITE,WHITE,True,0,0.0012000000424450263,WHITE,True,CORRECT,0.9240334000005532,924.0334000005532
4,20260325_121644,D,J,False,AUTOMATION1,2,80,380,fixed_delta,0.04274353132498164,0.014104974879815414,,,,,0.4514031086219231,1625,1975,1,0.95,WHITE,WHITE,True,0,0.0012000000424450263,WHITE,True,CORRECT,2.3706670999999915,2370.6670999999915
4,20260325_121644,D,J,False,AUTOMATION1,2,81,381,fixed_delta,0.04274353132498164,0.014104974879815414,,,,,0.5306322905989486,1910,1690,1,0.95,BLACK,BLACK,True,0,0.0012000000424450263,BLACK,True,CORRECT,0.7689243000004353,768.9243000004353
4,20260325_121644,D,J,False,AUTOMATION1,2,82,382,fixed_delta,0.04274353132498164,0.014104974879815414,,,,,0.5226583306050724,1882,1718,1,0.95,BLACK,BLACK,True,0,0.0013000008038943633,BLACK,True,CORRECT,1.274988299999677,1274.988299999677
4,20260325_121644,D,J,False,AUTOMATION1,2,83,383,fixed_delta,0.04274353132498164,0.014104974879815414,,,,,0.44413382425481607,1599,2001,1,0.95,WHITE,WHITE,True,0,0.0013000008038943633,WHITE,True,CORRECT,1.721921399999701,1721.921399999701
4,20260325_121644,D,J,False,AUTOMATION1,2,84,384,fixed_delta,0.04274353132498164,0.014104974879815414,,,,,0.4494514927343797,1618,1982,1,0.95,WHITE,WHITE,True,0,0.0009999985195463523,WHITE,True,CORRECT,0.7903753999999026,790.3753999999026
4,20260325_121644,D,J,False,AUTOMATION1,2,85,385,fixed_delta,0.04274353132498164,0.014104974879815414,,,,,0.46437076511879455,1672,1928,1,0.95,WHITE,WHITE,True,0,0.0012999989849049598,WHITE,True,CORRECT,1.0677510000004986,1067.7510000004986
4,20260325_121644,D,J,False,AUTOMATION1,2,86,386,fixed_delta,0.04274353132498164,0.014104974879815414,,,,,0.479870084404591,1728,1872,1,0.95,WHITE,WHITE,True,0,0.0012000000424450263,WHITE,True,CORRECT,0.6700830000008864,670.0830000008864
4,20260325_121644,D,J,False,AUTOMATION1,2,87,387,fixed_delta,0.04274353132498164,0.014104974879815414,,,,,0.5504785824721928,1982,1618,1,0.95,BLACK,BLACK,True,0,0.0013999997463542968,BLACK,True,CORRECT,0.8756068000002415,875.6068000002415
4,20260325_121644,D,J,False,AUTOMATION1,2,88,388,fixed_delta,0.04274353132498164,0.014104974879815414,,,,,0.5223509751223354,1880,1720,1,0.95,BLACK,BLACK,True,0,0.0010000003385357559,BLACK,True,CORRECT,0.8095327999999427,809.5327999999427
4,20260325_121644,D,J,False,AUTOMATION1,2,89,389,fixed_delta,0.04274353132498164,0.014104974879815414,,,,,0.46850648287701674,1687,1913,1,0.95,WHITE,WHITE,True,0,0.0011000010999850929,WHITE,True,CORRECT,0.665398200000709,665.398200000709
4,20260325_121644,D,J,False,AUTOMATION1,2,90,390,fixed_delta,0.04274353132498164,0.014104974879815414,,,,,0.44803250946184975,1613,1987,1,0.95,WHITE,WHITE,True,0,0.0011000010999850929,WHITE,True,CORRECT,0.9586219000011624,958.6219000011624
4,20260325_121644,D,J,False,AUTOMATION1,2,91,391,fixed_delta,0.04274353132498164,0.014104974879815414,,,,,0.5357215354650597,1929,1671,1,0.95,BLACK,BLACK,True,0,0.0012000000424450263,WHITE,False,INCORRECT,1.0880188999999518,1088.0188999999518
4,20260325_121644,D,J,False,AUTOMATION1,2,92,392,fixed_delta,0.04274353132498164,0.014104974879815414,,,,,0.5503429959234695,1981,1619,1,0.95,BLACK,BLACK,True,0,0.0015000005078036338,BLACK,True,CORRECT,0.719511400000556,719.511400000556
4,20260325_121644,D,J,False,AUTOMATION1,2,93,393,fixed_delta,0.04274353132498164,0.014104974879815414,,,,,0.560303768482839,2017,1583,1,0.95,BLACK,BLACK,True,0,0.0015000005078036338,BLACK,True,CORRECT,0.6958558000005723,695.8558000005723
4,20260325_121644,D,J,False,AUTOMATION1,2,94,394,fixed_delta,0.04274353132498164,0.014104974879815414,,,,,0.44783114189470513,1612,1988,1,0.95,WHITE,WHITE,True,0,0.0012000000424450263,WHITE,True,CORRECT,0.6740183999991132,674.0183999991132
4,20260325_121644,D,J,False,AUTOMATION1,2,95,395,fixed_delta,0.04274353132498164,0.014104974879815414,,,,,0.4721464268497749,1700,1900,1,0.95,WHITE,WHITE,True,0,0.0015999994502635673,WHITE,True,CORRECT,1.155375099999219,1155.375099999219
4,20260325_121644,D,J,False,AUTOMATION1,2,96,396,fixed_delta,0.04274353132498164,0.014104974879815414,,,,,0.4485049539667853,1615,1985,1,0.95,WHITE,WHITE,True,0,0.0013000008038943633,WHITE,True,CORRECT,1.5803646999993362,1580.3646999993362
4,20260325_121644,D,J,False,AUTOMATION1,2,97,397,fixed_delta,0.04274353132498164,0.014104974879815414,,,,,0.4530417362051685,1631,1969,1,0.95,WHITE,WHITE,True,0,0.0010000003385357559,WHITE,True,CORRECT,1.1742856000000756,1174.2856000000756
4,20260325_121644,D,J,False,AUTOMATION1,2,98,398,fixed_delta,0.04274353132498164,0.014104974879815414,,,,,0.5532865050445611,1992,1608,1,0.95,BLACK,BLACK,True,0,0.0013000008038943633,BLACK,True,CORRECT,0.866142700000637,866.142700000637
4,20260325_121644,D,J,False,AUTOMATION1,2,99,399,fixed_delta,0.04274353132498164,0.014104974879815414,,,,,0.549507205590702,1978,1622,1,0.95,BLACK,BLACK,True,0,0.0012000000424450263,BLACK,True,CORRECT,0.8012017000000924,801.2017000000924
4,20260325_121644,D,J,False,AUTOMATION1,2,100,400,fixed_delta,0.04274353132498164,0.014104974879815414,,,,,0.548861870296609,1976,1624,1,0.95,BLACK,BLACK,True,0,0.0009999985195463523,BLACK,True,CORRECT,0.7400143999984721,740.0143999984721
4,20260325_121644,D,J,False,AUTOMATION1,2,101,401,fixed_delta,0.04274353132498164,0.014104974879815414,,,,,0.5397346102719628,1943,1657,1,0.95,BLACK,BLACK,True,0,0.0016000012692529708,BLACK,True,CORRECT,0.6608897000005527,660.8897000005527
4,20260325_121644,D,J,False,AUTOMATION1,2,102,402,fixed_delta,0.04274353132498164,0.014104974879815414,,,,,0.5544362980577519,1996,1604,1,0.95,BLACK,BLACK,True,0,0.0013999997463542968,BLACK,True,CORRECT,0.7550527999992482,755.0527999992482
4,20260325_121644,D,J,False,AUTOMATION1,2,103,403,fixed_delta,0.04274353132498164,0.014104974879815414,,,,,0.5552100902320106,1999,1601,1,0.95,BLACK,BLACK,True,0,0.0009999985195463523,BLACK,True,CORRECT,0.7463905999993585,746.3905999993585
4,20260325_121644,D,J,False,AUTOMATION1,2,104,404,fixed_delta,0.04274353132498164,0.014104974879815414,,,,,0.4415587911234513,1590,2010,1,0.95,WHITE,WHITE,True,0,0.0017000002117129043,WHITE,True,CORRECT,1.2600186999989091,1260.0186999989091
4,20260325_121644,D,J,False,AUTOMATION1,2,105,405,fixed_delta,0.04274353132498164,0.014104974879815414,,,,,0.5302365884567986,1909,1691,1,0.95,BLACK,BLACK,True,0,0.0013999997463542968,BLACK,True,CORRECT,0.5348100999999588,534.8100999999588
4,20260325_121644,D,J,False,AUTOMATION1,2,106,406,fixed_delta,0.04274353132498164,0.014104974879815414,,,,,0.5472588509071303,1970,1630,1,0.95,BLACK,BLACK,True,0,0.0012999989849049598,BLACK,True,CORRECT,0.7170109999988199,717.0109999988199
4,20260325_121644,D,J,False,AUTOMATION1,2,107,407,fixed_delta,0.04274353132498164,0.014104974879815414,,,,,0.4778677952457236,1720,1880,1,0.95,WHITE,WHITE,True,0,0.0010999992809956893,WHITE,True,CORRECT,2.4980825999991794,2498.0825999991794
4,20260325_121644,D,J,False,AUTOMATION1,2,108,408,fixed_delta,0.04274353132498164,0.014104974879815414,,,,,0.46724099783261624,1682,1918,1,0.95,WHITE,WHITE,True,0,0.0013999997463542968,WHITE,True,CORRECT,0.8518100000001141,851.8100000001141
4,20260325_121644,D,J,False,AUTOMATION1,2,109,409,fixed_delta,0.04274353132498164,0.014104974879815414,,,,,0.47131876556980334,1697,1903,1,0.95,WHITE,WHITE,True,0,0.0014999986888142303,WHITE,True,CORRECT,1.02746549999938,1027.46549999938
4,20260325_121644,D,J,False,AUTOMATION1,2,110,410,fixed_delta,0.04274353132498164,0.014104974879815414,,,,,0.47468513791264627,1709,1891,1,0.95,WHITE,WHITE,True,0,0.0011000010999850929,BLACK,False,INCORRECT,4.702587600000697,4702.587600000697
4,20260325_121644,D,J,False,AUTOMATION1,2,111,411,fixed_delta,0.04274353132498164,0.014104974879815414,,,,,0.5435314750700989,1957,1643,1,0.95,BLACK,BLACK,True,0,0.0015000005078036338,BLACK,True,CORRECT,1.0893762000014249,1089.3762000014249
4,20260325_121644,D,J,False,AUTOMATION1,2,112,412,fixed_delta,0.04274353132498164,0.014104974879815414,,,,,0.5268066447700691,1897,1703,1,0.95,BLACK,BLACK,True,0,0.0012000000424450263,BLACK,True,CORRECT,0.9895253000013327,989.5253000013327
4,20260325_121644,D,J,False,AUTOMATION1,2,113,413,fixed_delta,0.04274353132498164,0.014104974879815414,,,,,0.45024122133631617,1621,1979,1,0.95,WHITE,WHITE,True,0,0.0015000005078036338,WHITE,True,CORRECT,1.5823696999996173,1582.3696999996173
4,20260325_121644,D,J,False,AUTOMATION1,2,114,414,fixed_delta,0.04274353132498164,0.014104974879815414,,,,,0.4420479337487093,1591,2009,1,0.95,WHITE,WHITE,True,0,0.0008999995770864189,WHITE,True,CORRECT,0.6247192999999243,624.7192999999243
4,20260325_121644,D,J,False,AUTOMATION1,2,115,415,fixed_delta,0.04274353132498164,0.014104974879815414,,,,,0.4694299393103828,1690,1910,1,0.95,WHITE,WHITE,True,0,0.0009000013960758224,BLACK,False,INCORRECT,0.5610053000000335,561.0053000000335
4,20260325_121644,D,J,False,AUTOMATION1,2,116,416,fixed_delta,0.04274353132498164,0.014104974879815414,,,,,0.436357614694338,1571,2029,1,0.95,WHITE,WHITE,True,0,0.0013000008038943633,WHITE,True,CORRECT,0.7510025000010501,751.0025000010501
4,20260325_121644,D,J,False,AUTOMATION1,2,117,417,fixed_delta,0.04274353132498164,0.014104974879815414,,,,,0.5299945213943709,1908,1692,1,0.95,BLACK,WHITE,False,0,0.0015000005078036338,BLACK,True,CORRECT,1.6190898000004381,1619.0898000004381
4,20260325_121644,D,J,False,AUTOMATION1,2,118,418,fixed_delta,0.04274353132498164,0.014104974879815414,,,,,0.5481162337614578,1973,1627,1,0.95,BLACK,BLACK,True,0,0.0013999997463542968,BLACK,True,CORRECT,1.4663230999994994,1466.3230999994994
4,20260325_121644,D,J,False,AUTOMATION1,2,119,419,fixed_delta,0.04274353132498164,0.014104974879815414,,,,,0.5389614362760772,1940,1660,1,0.95,BLACK,BLACK,True,0,0.0010000003385357559,BLACK,True,CORRECT,2.106802300000709,2106.802300000709
4,20260325_121644,D,J,False,AUTOMATION1,2,120,420,fixed_delta,0.04274353132498164,0.014104974879815414,,,,,0.4725947885423298,1701,1899,1,0.95,WHITE,BLACK,False,0,0.0008000006346264854,BLACK,False,INCORRECT,0.609346799999912,609.346799999912
4,20260325_121644,D,J,False,AUTOMATION1,2,121,421,fixed_delta,0.04274353132498164,0.014104974879815414,,,,,0.46718834262721065,1682,1918,1,0.95,WHITE,WHITE,True,0,0.0012999989849049598,WHITE,True,CORRECT,0.7669494999991002,766.9494999991002
4,20260325_121644,D,J,False,AUTOMATION1,2,122,422,fixed_delta,0.04274353132498164,0.014104974879815414,,,,,0.5522503262499266,1988,1612,1,0.95,BLACK,BLACK,True,0,0.0013999997463542968,BLACK,True,CORRECT,0.7180496999990282,718.0496999990282
4,20260325_121644,D,J,False,AUTOMATION1,2,123,423,fixed_delta,0.04274353132498164,0.014104974879815414,,,,,0.5351373963517186,1926,1674,1,0.95,BLACK,BLACK,True,0,0.0010999992809956893,BLACK,True,CORRECT,0.8796984999989945,879.6984999989945
4,20260325_121644,D,J,False,AUTOMATION1,2,124,424,fixed_delta,0.04274353132498164,0.014104974879815414,,,,,0.5590741021244628,2013,1587,1,0.95,BLACK,BLACK,True,0,0.0013000008038943633,BLACK,True,CORRECT,0.5293438999997306,529.3438999997306
4,20260325_121644,D,J,False,AUTOMATION1,2,125,425,fixed_delta,0.04274353132498164,0.014104974879815414,,,,,0.4595429950790353,1654,1946,1,0.95,WHITE,WHITE,True,0,0.0013000008038943633,WHITE,True,CORRECT,0.7522683000006509,752.2683000006509
4,20260325_121644,D,J,False,AUTOMATION1,2,126,426,fixed_delta,0.04274353132498164,0.014104974879815414,,,,,0.458983586378953,1652,1948,1,0.95,WHITE,WHITE,True,0,0.0015999994502635673,WHITE,True,CORRECT,2.992451500000243,2992.451500000243
4,20260325_121644,D,J,False,AUTOMATION1,2,127,427,fixed_delta,0.04274353132498164,0.014104974879815414,,,,,0.5511356707831604,1984,1616,1,0.95,BLACK,WHITE,False,0,0.0013000008038943633,BLACK,True,CORRECT,0.8758668000009493,875.8668000009493
4,20260325_121644,D,J,False,AUTOMATION1,2,128,428,fixed_delta,0.04274353132498164,0.014104974879815414,,,,,0.5368947815723613,1933,1667,1,0.95,BLACK,BLACK,True,0,0.0010000003385357559,BLACK,True,CORRECT,0.8535460000002786,853.5460000002786
4,20260325_121644,D,J,False,AUTOMATION1,2,129,429,fixed_delta,0.04274353132498164,0.014104974879815414,,,,,0.489922969830849,1764,1836,1,0.95,WHITE,WHITE,True,0,0.0010999992809956893,BLACK,False,INCORRECT,1.7946332999999868,1794.6332999999868
4,20260325_121644,D,J,False,AUTOMATION1,2,130,430,fixed_delta,0.04274353132498164,0.014104974879815414,,,,,0.47149255359451814,1697,1903,1,0.95,WHITE,WHITE,True,0,0.0029000002541579306,WHITE,True,CORRECT,0.8547643000001699,854.7643000001699
4,20260325_121644,D,J,False,AUTOMATION1,2,131,431,fixed_delta,0.04274353132498164,0.014104974879815414,,,,,0.5637426553521208,2029,1571,1,0.95,BLACK,BLACK,True,0,0.0012000000424450263,BLACK,True,CORRECT,2.3885694999989937,2388.5694999989937
4,20260325_121644,D,J,False,AUTOMATION1,2,132,432,fixed_delta,0.04274353132498164,0.014104974879815414,,,,,0.4720510338671619,1699,1901,1,0.95,WHITE,WHITE,True,0,0.0008999995770864189,WHITE,True,CORRECT,1.0388487000000168,1038.8487000000168
4,20260325_121644,D,J,False,AUTOMATION1,2,133,433,fixed_delta,0.04274353132498164,0.014104974879815414,,,,,0.4763585641037602,1715,1885,1,0.95,WHITE,WHITE,True,0,0.0008000006346264854,WHITE,True,CORRECT,1.6186030999997456,1618.6030999997456
4,20260325_121644,D,J,False,AUTOMATION1,2,134,434,fixed_delta,0.04274353132498164,0.014104974879815414,,,,,0.4734768500859235,1705,1895,1,0.95,WHITE,WHITE,True,0,0.0012000000424450263,WHITE,True,CORRECT,1.1245792000008805,1124.5792000008805
4,20260325_121644,D,J,False,AUTOMATION1,2,135,435,fixed_delta,0.04274353132498164,0.014104974879815414,,,,,0.4233041752631856,1524,2076,1,0.95,WHITE,WHITE,True,0,0.0010000003385357559,WHITE,True,CORRECT,0.8389062999995076,838.9062999995076
4,20260325_121644,D,J,False,AUTOMATION1,2,136,436,fixed_delta,0.04274353132498164,0.014104974879815414,,,,,0.5415506917885359,1950,1650,1,0.95,BLACK,BLACK,True,0,0.001999998858082108,BLACK,True,CORRECT,0.8192877999990742,819.2877999990742
4,20260325_121644,D,J,False,AUTOMATION1,2,137,437,fixed_delta,0.04274353132498164,0.014104974879815414,,,,,0.5378991724662339,1936,1664,1,0.95,BLACK,BLACK,True,0,0.0012999989849049598,BLACK,True,CORRECT,0.9589784999989206,958.9784999989206
4,20260325_121644,D,J,False,AUTOMATION1,2,138,438,fixed_delta,0.04274353132498164,0.014104974879815414,,,,,0.5556111724562041,2000,1600,1,0.95,BLACK,BLACK,True,0,0.0012999989849049598,BLACK,True,CORRECT,0.8289893999990454,828.9893999990454
4,20260325_121644,D,J,False,AUTOMATION1,2,139,439,fixed_delta,0.04274353132498164,0.014104974879815414,,,,,0.45199948266150025,1627,1973,1,0.95,WHITE,WHITE,True,0,0.0012000000424450263,WHITE,True,CORRECT,2.400458600001002,2400.458600001002
4,20260325_121644,D,J,False,AUTOMATION1,2,140,440,fixed_delta,0.04274353132498164,0.014104974879815414,,,,,0.4609467242716987,1659,1941,1,0.95,WHITE,WHITE,True,0,0.0011000010999850929,WHITE,True,CORRECT,0.9278764999999112,927.8764999999112
4,20260325_121644,D,J,False,AUTOMATION1,2,141,441,fixed_delta,0.04274353132498164,0.014104974879815414,,,,,0.46244952111150245,1665,1935,1,0.95,WHITE,WHITE,True,0,0.0012000000424450263,WHITE,True,CORRECT,4.384524299999612,4384.524299999612
4,20260325_121644,D,J,False,AUTOMATION1,2,142,442,fixed_delta,0.04274353132498164,0.014104974879815414,,,,,0.45024428117557164,1621,1979,1,0.95,WHITE,BLACK,False,0,0.0015000005078036338,WHITE,True,CORRECT,1.4049870999988343,1404.9870999988343
4,20260325_121644,D,J,False,AUTOMATION1,2,143,443,fixed_delta,0.04274353132498164,0.014104974879815414,,,,,0.4513683543613864,1625,1975,1,0.95,WHITE,WHITE,True,0,0.0009999985195463523,WHITE,True,CORRECT,0.8812499999985448,881.2499999985448
4,20260325_121644,D,J,False,AUTOMATION1,2,144,444,fixed_delta,0.04274353132498164,0.014104974879815414,,,,,0.4486032815197726,1615,1985,1,0.95,WHITE,WHITE,True,0,0.0010000003385357559,WHITE,True,CORRECT,0.800890000000436,800.890000000436
4,20260325_121644,D,J,False,AUTOMATION1,2,145,445,fixed_delta,0.04274353132498164,0.014104974879815414,,,,,0.5447146114372509,1961,1639,1,0.95,BLACK,BLACK,True,0,0.0009000013960758224,BLACK,True,CORRECT,3.6170170000004873,3617.0170000004873
4,20260325_121644,D,J,False,AUTOMATION1,2,146,446,fixed_delta,0.04274353132498164,0.014104974879815414,,,,,0.5282129346992014,1902,1698,1,0.95,BLACK,BLACK,True,0,0.0010000003385357559,WHITE,False,INCORRECT,1.591962299999068,1591.962299999068
4,20260325_121644,D,J,False,AUTOMATION1,2,147,447,fixed_delta,0.04274353132498164,0.014104974879815414,,,,,0.5246474560620236,1889,1711,1,0.95,BLACK,BLACK,True,0,0.0010000003385357559,BLACK,True,CORRECT,3.1761538999999175,3176.1538999999175
4,20260325_121644,D,J,False,AUTOMATION1,2,148,448,fixed_delta,0.04274353132498164,0.014104974879815414,,,,,0.5274455771934717,1899,1701,1,0.95,BLACK,BLACK,True,0,0.0012000000424450263,WHITE,False,INCORRECT,2.0019737999991776,2001.9737999991776
4,20260325_121644,D,J,False,AUTOMATION1,2,149,449,fixed_delta,0.04274353132498164,0.014104974879815414,,,,,0.451628041359767,1626,1974,1,0.95,WHITE,WHITE,True,0,0.002099999619531445,WHITE,True,CORRECT,0.9602548000002571,960.2548000002571
4,20260325_121644,D,J,False,AUTOMATION1,2,150,450,fixed_delta,0.04274353132498164,0.014104974879815414,,,,,0.47221360892973896,1700,1900,1,0.95,WHITE,WHITE,True,0,0.0013999997463542968,WHITE,True,CORRECT,0.6207047000007151,620.7047000007151
4,20260325_121644,D,J,False,AUTOMATION1,2,151,451,fixed_delta,0.04274353132498164,0.014104974879815414,,,,,0.541777028774324,1950,1650,1,0.95,BLACK,BLACK,True,0,0.0017000002117129043,BLACK,True,CORRECT,2.492836499999612,2492.836499999612
4,20260325_121644,D,J,False,AUTOMATION1,2,152,452,fixed_delta,0.04274353132498164,0.014104974879815414,,,,,0.4459602092075631,1605,1995,1,0.95,WHITE,WHITE,True,0,0.0020000006770715117,WHITE,True,CORRECT,0.8360926999994263,836.0926999994263
4,20260325_121644,D,J,False,AUTOMATION1,2,153,453,fixed_delta,0.04274353132498164,0.014104974879815414,,,,,0.56671850169281,2040,1560,1,0.95,BLACK,BLACK,True,0,0.0010999992809956893,BLACK,True,CORRECT,0.6781253999997716,678.1253999997716
4,20260325_121644,D,J,False,AUTOMATION1,2,154,454,fixed_delta,0.04274353132498164,0.014104974879815414,,,,,0.46605279059262494,1678,1922,1,0.95,WHITE,WHITE,True,0,0.0010000003385357559,WHITE,True,CORRECT,1.7985705999999482,1798.5705999999482
4,20260325_121644,D,J,False,AUTOMATION1,2,155,455,fixed_delta,0.04274353132498164,0.014104974879815414,,,,,0.5469546114575569,1969,1631,1,0.95,BLACK,BLACK,True,0,0.0010999992809956893,BLACK,True,CORRECT,1.615671999999904,1615.671999999904
4,20260325_121644,D,J,False,AUTOMATION1,2,156,456,fixed_delta,0.04274353132498164,0.014104974879815414,,,,,0.5416191602171572,1950,1650,1,0.95,BLACK,BLACK,True,0,0.0011000010999850929,BLACK,True,CORRECT,0.5185433999995439,518.5433999995439
4,20260325_121644,D,J,False,AUTOMATION1,2,157,457,fixed_delta,0.04274353132498164,0.014104974879815414,,,,,0.5405406169534435,1946,1654,1,0.95,BLACK,BLACK,True,0,0.0013999997463542968,BLACK,True,CORRECT,1.1679276999984722,1167.9276999984722
4,20260325_121644,D,J,False,AUTOMATION1,2,158,458,fixed_delta,0.04274353132498164,0.014104974879815414,,,,,0.44639168994492245,1607,1993,1,0.95,WHITE,WHITE,True,0,0.0012000000424450263,WHITE,True,CORRECT,1.1629587999996147,1162.9587999996147
4,20260325_121644,D,J,False,AUTOMATION1,2,159,459,fixed_delta,0.04274353132498164,0.014104974879815414,,,,,0.5781085097858065,2081,1519,1,0.95,BLACK,BLACK,True,0,0.0012999989849049598,BLACK,True,CORRECT,0.789728899999318,789.728899999318
4,20260325_121644,D,J,False,AUTOMATION1,2,160,460,fixed_delta,0.04274353132498164,0.014104974879815414,,,,,0.5204264110524739,1874,1726,1,0.95,BLACK,BLACK,True,0,0.0017000002117129043,BLACK,True,CORRECT,0.723993599998721,723.993599998721
4,20260325_121644,D,J,False,AUTOMATION1,2,161,461,fixed_delta,0.04274353132498164,0.014104974879815414,,,,,0.4368768106403729,1573,2027,1,0.95,WHITE,WHITE,True,0,0.0012000000424450263,WHITE,True,CORRECT,0.5923099000010552,592.3099000010552
4,20260325_121644,D,J,False,AUTOMATION1,2,162,462,fixed_delta,0.04274353132498164,0.014104974879815414,,,,,0.45497750942907544,1638,1962,1,0.95,WHITE,WHITE,True,0,0.0010000003385357559,WHITE,True,CORRECT,0.6323975000013888,632.3975000013888
4,20260325_121644,D,J,False,AUTOMATION1,2,163,463,fixed_delta,0.04274353132498164,0.014104974879815414,,,,,0.46631588115897527,1679,1921,1,0.95,WHITE,WHITE,True,0,0.0018999999156221747,WHITE,True,CORRECT,0.7800681999997323,780.0681999997323
4,20260325_121644,D,J,False,AUTOMATION1,2,164,464,fixed_delta,0.04274353132498164,0.014104974879815414,,,,,0.4444693034626096,1600,2000,1,0.95,WHITE,WHITE,True,0,0.0011000010999850929,WHITE,True,CORRECT,0.5759582000009686,575.9582000009686
4,20260325_121644,D,J,False,AUTOMATION1,2,165,465,fixed_delta,0.04274353132498164,0.014104974879815414,,,,,0.463981540795927,1670,1930,1,0.95,WHITE,WHITE,True,0,0.0010000003385357559,WHITE,True,CORRECT,0.6505228000005445,650.5228000005445
4,20260325_121644,D,J,False,AUTOMATION1,2,166,466,fixed_delta,0.04274353132498164,0.014104974879815414,,,,,0.4282380538542178,1542,2058,1,0.95,WHITE,WHITE,True,0,0.0010999992809956893,WHITE,True,CORRECT,0.5453397999990557,545.3397999990557
4,20260325_121644,D,J,False,AUTOMATION1,2,167,467,fixed_delta,0.04274353132498164,0.014104974879815414,,,,,0.4525225682600835,1629,1971,1,0.95,WHITE,WHITE,True,0,0.0010000003385357559,WHITE,True,CORRECT,0.5340082999991864,534.0082999991864
4,20260325_121644,D,J,False,AUTOMATION1,2,168,468,fixed_delta,0.04274353132498164,0.014104974879815414,,,,,0.4575559529156897,1647,1953,1,0.95,WHITE,BLACK,False,0,0.0012000000424450263,WHITE,True,CORRECT,3.651961100000335,3651.961100000335
4,20260325_121644,D,J,False,AUTOMATION1,2,169,469,fixed_delta,0.04274353132498164,0.014104974879815414,,,,,0.44494910778003877,1602,1998,1,0.95,WHITE,WHITE,True,0,0.0015000005078036338,WHITE,True,CORRECT,1.0065126000008604,1006.5126000008604
4,20260325_121644,D,J,False,AUTOMATION1,2,170,470,fixed_delta,0.04274353132498164,0.014104974879815414,,,,,0.5396408854290758,1943,1657,1,0.95,BLACK,BLACK,True,0,0.0012000000424450263,BLACK,True,CORRECT,0.6514305000000604,651.4305000000604
4,20260325_121644,D,J,False,AUTOMATION1,2,171,471,fixed_delta,0.04274353132498164,0.014104974879815414,,,,,0.4693620311085251,1690,1910,1,0.95,WHITE,WHITE,True,0,0.0015000005078036338,WHITE,True,CORRECT,0.8162542000009125,816.2542000009125
4,20260325_121644,D,J,False,AUTOMATION1,2,172,472,fixed_delta,0.04274353132498164,0.014104974879815414,,,,,0.5263604432203471,1895,1705,1,0.95,BLACK,BLACK,True,0,0.0009000013960758224,BLACK,True,CORRECT,0.7147827999997389,714.7827999997389
4,20260325_121644,D,J,False,AUTOMATION1,2,173,473,fixed_delta,0.04274353132498164,0.014104974879815414,,,,,0.5484745389712543,1975,1625,1,0.95,BLACK,BLACK,True,0,0.0013999997463542968,BLACK,True,CORRECT,0.8986810999995214,898.6810999995214
4,20260325_121644,D,J,False,AUTOMATION1,2,174,474,fixed_delta,0.04274353132498164,0.014104974879815414,,,,,0.434821029907416,1565,2035,1,0.95,WHITE,WHITE,True,0,0.0011000010999850929,WHITE,True,CORRECT,0.7436285000003409,743.6285000003409
4,20260325_121644,D,J,False,AUTOMATION1,2,175,475,fixed_delta,0.04274353132498164,0.014104974879815414,,,,,0.5412618439011674,1949,1651,1,0.95,BLACK,BLACK,True,0,0.0022999993234407157,BLACK,True,CORRECT,0.7164620999992621,716.4620999992621
4,20260325_121644,D,J,False,AUTOMATION1,2,176,476,fixed_delta,0.04274353132498164,0.014104974879815414,,,,,0.5426443450976906,1954,1646,1,0.95,BLACK,BLACK,True,0,0.0014999986888142303,BLACK,True,CORRECT,0.8126247999989573,812.6247999989573
4,20260325_121644,D,J,False,AUTOMATION1,2,177,477,fixed_delta,0.04274353132498164,0.014104974879815414,,,,,0.5301979446775112,1909,1691,1,0.95,BLACK,BLACK,True,0,0.0017000002117129043,BLACK,True,CORRECT,0.5611557000011089,561.1557000011089
4,20260325_121644,D,J,False,AUTOMATION1,2,178,478,fixed_delta,0.04274353132498164,0.014104974879815414,,,,,0.5285856793150039,1903,1697,1,0.95,BLACK,WHITE,False,0,0.0010000003385357559,BLACK,True,CORRECT,1.6046297000011691,1604.629700001169
4,20260325_121644,D,J,False,AUTOMATION1,2,179,479,fixed_delta,0.04274353132498164,0.014104974879815414,,,,,0.45297457072284253,1631,1969,1,0.95,WHITE,WHITE,True,0,0.0012999989849049598,WHITE,True,CORRECT,2.374217200000203,2374.217200000203
4,20260325_121644,D,J,False,AUTOMATION1,2,180,480,fixed_delta,0.04274353132498164,0.014104974879815414,,,,,0.45758887315937863,1647,1953,1,0.95,WHITE,WHITE,True,0,0.0013999997463542968,WHITE,True,CORRECT,1.2354866999994556,1235.4866999994556
4,20260325_121644,D,J,False,AUTOMATION1,2,181,481,fixed_delta,0.04274353132498164,0.014104974879815414,,,,,0.4598824394696273,1656,1944,1,0.95,WHITE,WHITE,True,0,0.0011000010999850929,WHITE,True,CORRECT,1.4558361000017612,1455.8361000017612
4,20260325_121644,D,J,False,AUTOMATION1,2,182,482,fixed_delta,0.04274353132498164,0.014104974879815414,,,,,0.5326595940543887,1918,1682,1,0.95,BLACK,BLACK,True,0,0.0011000010999850929,BLACK,True,CORRECT,2.3591559000014968,2359.155900001497
4,20260325_121644,D,J,False,AUTOMATION1,2,183,483,fixed_delta,0.04274353132498164,0.014104974879815414,,,,,0.47255957968919926,1701,1899,1,0.95,WHITE,WHITE,True,0,0.0012999989849049598,WHITE,True,CORRECT,1.6770120000001043,1677.0120000001043
4,20260325_121644,D,J,False,AUTOMATION1,2,184,484,fixed_delta,0.04274353132498164,0.014104974879815414,,,,,0.4606717685314679,1658,1942,1,0.95,WHITE,WHITE,True,0,0.0013999997463542968,BLACK,False,INCORRECT,1.8441641999997955,1844.1641999997955
4,20260325_121644,D,J,False,AUTOMATION1,2,185,485,fixed_delta,0.04274353132498164,0.014104974879815414,,,,,0.5673176454438231,2042,1558,1,0.95,BLACK,BLACK,True,0,0.0010999992809956893,BLACK,True,CORRECT,0.8881163000005472,888.1163000005472
4,20260325_121644,D,J,False,AUTOMATION1,2,186,486,fixed_delta,0.04274353132498164,0.014104974879815414,,,,,0.4606499712528354,1658,1942,1,0.95,WHITE,WHITE,True,0,0.0012000000424450263,WHITE,True,CORRECT,0.9611128999986249,961.1128999986249
4,20260325_121644,D,J,False,AUTOMATION1,2,187,487,fixed_delta,0.04274353132498164,0.014104974879815414,,,,,0.4492912089751225,1617,1983,1,0.95,WHITE,WHITE,True,0,0.0012999989849049598,WHITE,True,CORRECT,0.8726484999988315,872.6484999988315
4,20260325_121644,D,J,False,AUTOMATION1,2,188,488,fixed_delta,0.04274353132498164,0.014104974879815414,,,,,0.4553348673894945,1639,1961,1,0.95,WHITE,BLACK,False,0,0.0013000008038943633,WHITE,True,CORRECT,3.321963500000493,3321.963500000493
4,20260325_121644,D,J,False,AUTOMATION1,2,189,489,fixed_delta,0.04274353132498164,0.014104974879815414,,,,,0.5460097942302468,1966,1634,1,0.95,BLACK,BLACK,True,0,0.0010999992809956893,BLACK,True,CORRECT,1.3801691999997274,1380.1691999997274
4,20260325_121644,D,J,False,AUTOMATION1,2,190,490,fixed_delta,0.04274353132498164,0.014104974879815414,,,,,0.5468396744213558,1969,1631,1,0.95,BLACK,BLACK,True,0,0.0015000005078036338,BLACK,True,CORRECT,0.6396550999997999,639.6550999997999
4,20260325_121644,D,J,False,AUTOMATION1,2,191,491,fixed_delta,0.04274353132498164,0.014104974879815414,,,,,0.5438596292371011,1958,1642,1,0.95,BLACK,WHITE,False,0,0.0012000000424450263,BLACK,True,CORRECT,2.127255299999888,2127.255299999888
4,20260325_121644,D,J,False,AUTOMATION1,2,192,492,fixed_delta,0.04274353132498164,0.014104974879815414,,,,,0.4505768964243148,1622,1978,1,0.95,WHITE,WHITE,True,0,0.0013000008038943633,WHITE,True,CORRECT,0.9059942000003502,905.9942000003502
4,20260325_121644,D,J,False,AUTOMATION1,2,193,493,fixed_delta,0.04274353132498164,0.014104974879815414,,,,,0.5652518189015854,2035,1565,1,0.95,BLACK,BLACK,True,0,0.0010000003385357559,BLACK,True,CORRECT,1.5494232999990345,1549.4232999990345
4,20260325_121644,D,J,False,AUTOMATION1,2,194,494,fixed_delta,0.04274353132498164,0.014104974879815414,,,,,0.5370897623599276,1934,1666,1,0.95,BLACK,BLACK,True,0,0.0014999986888142303,BLACK,True,CORRECT,1.9334597999986727,1933.4597999986727
4,20260325_121644,D,J,False,AUTOMATION1,2,195,495,fixed_delta,0.04274353132498164,0.014104974879815414,,,,,0.5243408119568208,1888,1712,1,0.95,BLACK,BLACK,True,0,0.0015000005078036338,BLACK,True,CORRECT,0.7023815000011382,702.3815000011382
4,20260325_121644,D,J,False,AUTOMATION1,2,196,496,fixed_delta,0.04274353132498164,0.014104974879815414,,,,,0.564316437585877,2032,1568,1,0.95,BLACK,BLACK,True,0,0.0012999989849049598,BLACK,True,CORRECT,1.1029332999987673,1102.9332999987673
4,20260325_121644,D,J,False,AUTOMATION1,2,197,497,fixed_delta,0.04274353132498164,0.014104974879815414,,,,,0.526458349912559,1895,1705,1,0.95,BLACK,BLACK,True,0,0.0012000000424450263,BLACK,True,CORRECT,0.8775697999990371,877.5697999990371
4,20260325_121644,D,J,False,AUTOMATION1,2,198,498,fixed_delta,0.04274353132498164,0.014104974879815414,,,,,0.5531105873210188,1991,1609,1,0.95,BLACK,BLACK,True,0,0.0010000003385357559,BLACK,True,CORRECT,0.7075724999995145,707.5724999995145
4,20260325_121644,D,J,False,AUTOMATION1,2,199,499,fixed_delta,0.04274353132498164,0.014104974879815414,,,,,0.4723127573951336,1700,1900,1,0.95,WHITE,WHITE,True,0,0.0008000006346264854,WHITE,True,CORRECT,0.7522549000004801,752.2549000004801
4,20260325_121644,D,J,False,AUTOMATION1,2,200,500,fixed_delta,0.04274353132498164,0.014104974879815414,,,,,0.4766585923355763,1716,1884,1,0.95,WHITE,WHITE,True,0,0.0013000008038943633,WHITE,True,CORRECT,0.7113543000014033,711.3543000014033
4,20260325_121644,D,J,False,AUTOMATION1,2,201,501,fixed_delta,0.04274353132498164,0.014104974879815414,,,,,0.552053095524638,1987,1613,1,0.95,BLACK,BLACK,True,0,0.0010999992809956893,BLACK,True,CORRECT,0.8419354999987263,841.9354999987263
4,20260325_121644,D,J,False,AUTOMATION1,2,202,502,fixed_delta,0.04274353132498164,0.014104974879815414,,,,,0.5472796720604969,1970,1630,1,0.95,BLACK,BLACK,True,0,0.0017999991541728377,BLACK,True,CORRECT,1.5665503999989596,1566.5503999989596
4,20260325_121644,D,J,False,AUTOMATION1,2,203,503,fixed_delta,0.04274353132498164,0.014104974879815414,,,,,0.5407563090517415,1947,1653,1,0.95,BLACK,BLACK,True,0,0.0015999994502635673,BLACK,True,CORRECT,2.190705299999536,2190.705299999536
4,20260325_121644,D,J,False,AUTOMATION1,2,204,504,fixed_delta,0.04274353132498164,0.014104974879815414,,,,,0.5438533585604873,1958,1642,1,0.95,BLACK,BLACK,True,0,0.0015999994502635673,BLACK,True,CORRECT,1.148246200000358,1148.246200000358
4,20260325_121644,D,J,False,AUTOMATION1,2,205,505,fixed_delta,0.04274353132498164,0.014104974879815414,,,,,0.5581809794440445,2009,1591,1,0.95,BLACK,BLACK,True,0,0.0014999986888142303,BLACK,True,CORRECT,1.5002544999988459,1500.2544999988459
4,20260325_121644,D,J,False,AUTOMATION1,2,206,506,fixed_delta,0.04274353132498164,0.014104974879815414,,,,,0.42975694290206157,1547,2053,1,0.95,WHITE,WHITE,True,0,0.0011000010999850929,WHITE,True,CORRECT,0.8635463000009622,863.5463000009622
4,20260325_121644,D,J,False,AUTOMATION1,2,207,507,fixed_delta,0.04274353132498164,0.014104974879815414,,,,,0.531647249326172,1914,1686,1,0.95,BLACK,BLACK,True,0,0.0010999992809956893,BLACK,True,CORRECT,1.758602100000644,1758.602100000644
4,20260325_121644,D,J,False,AUTOMATION1,2,208,508,fixed_delta,0.04274353132498164,0.014104974879815414,,,,,0.5719535811230763,2059,1541,1,0.95,BLACK,BLACK,True,0,0.0012000000424450263,BLACK,True,CORRECT,0.6822279999996681,682.2279999996681
4,20260325_121644,D,J,False,AUTOMATION1,2,209,509,fixed_delta,0.04274353132498164,0.014104974879815414,,,,,0.5495029680463656,1978,1622,1,0.95,BLACK,BLACK,True,0,0.0012000000424450263,BLACK,True,CORRECT,0.6344982999999047,634.4982999999047
4,20260325_121644,D,J,False,AUTOMATION1,2,210,510,fixed_delta,0.04274353132498164,0.014104974879815414,,,,,0.5432194555597145,1956,1644,1,0.95,BLACK,BLACK,True,0,0.0014000015653437003,BLACK,True,CORRECT,2.4277164000013727,2427.7164000013727
4,20260325_121644,D,J,False,AUTOMATION1,2,211,511,fixed_delta,0.04274353132498164,0.014104974879815414,,,,,0.48341975952340727,1740,1860,1,0.95,WHITE,WHITE,True,0,0.0010999992809956893,WHITE,True,CORRECT,0.6731671999987157,673.1671999987157
4,20260325_121644,D,J,False,AUTOMATION1,2,212,512,fixed_delta,0.04274353132498164,0.014104974879815414,,,,,0.5314084249163141,1913,1687,1,0.95,BLACK,BLACK,True,0,0.0010000003385357559,BLACK,True,CORRECT,0.6286927000001015,628.6927000001015
4,20260325_121644,D,J,False,AUTOMATION1,2,213,513,fixed_delta,0.04274353132498164,0.014104974879815414,,,,,0.5621190351428315,2024,1576,1,0.95,BLACK,WHITE,False,0,0.0018999999156221747,BLACK,True,CORRECT,2.0245512000001327,2024.5512000001327
4,20260325_121644,D,J,False,AUTOMATION1,2,214,514,fixed_delta,0.04274353132498164,0.014104974879815414,,,,,0.5509368657932456,1983,1617,1,0.95,BLACK,BLACK,True,0,0.0013000008038943633,BLACK,True,CORRECT,0.8718869000003906,871.8869000003906
4,20260325_121644,D,J,False,AUTOMATION1,2,215,515,fixed_delta,0.04274353132498164,0.014104974879815414,,,,,0.46337977198506525,1668,1932,1,0.95,WHITE,WHITE,True,0,0.0015000005078036338,WHITE,True,CORRECT,0.7260936000002403,726.0936000002403
4,20260325_121644,D,J,False,AUTOMATION1,2,216,516,fixed_delta,0.04274353132498164,0.014104974879815414,,,,,0.5383418426551136,1938,1662,1,0.95,BLACK,BLACK,True,0,0.0015999994502635673,BLACK,True,CORRECT,1.611919000000853,1611.919000000853
4,20260325_121644,D,J,False,AUTOMATION1,2,217,517,fixed_delta,0.04274353132498164,0.014104974879815414,,,,,0.4621176561424424,1664,1936,1,0.95,WHITE,WHITE,True,0,0.0015999994502635673,WHITE,True,CORRECT,0.6168939999988652,616.8939999988652
4,20260325_121644,D,J,False,AUTOMATION1,2,218,518,fixed_delta,0.04274353132498164,0.014104974879815414,,,,,0.5641425694541597,2031,1569,1,0.95,BLACK,BLACK,True,0,0.0012000000424450263,BLACK,True,CORRECT,0.5436914000001707,543.6914000001707
4,20260325_121644,D,J,False,AUTOMATION1,2,219,519,fixed_delta,0.04274353132498164,0.014104974879815414,,,,,0.5072114557020553,1826,1774,1,0.95,BLACK,BLACK,True,0,0.0012999989849049598,WHITE,False,INCORRECT,0.82374019999952,823.74019999952
4,20260325_121644,D,J,False,AUTOMATION1,2,220,520,fixed_delta,0.04274353132498164,0.014104974879815414,,,,,0.560563781860293,2018,1582,1,0.95,BLACK,BLACK,True,0,0.0013999997463542968,BLACK,True,CORRECT,0.6243068000003404,624.3068000003404
4,20260325_121644,D,J,False,AUTOMATION1,2,221,521,fixed_delta,0.04274353132498164,0.014104974879815414,,,,,0.5421126015242107,1952,1648,1,0.95,BLACK,WHITE,False,0,0.0014999986888142303,BLACK,True,CORRECT,1.8166103999992629,1816.6103999992629
4,20260325_121644,D,J,False,AUTOMATION1,2,222,522,fixed_delta,0.04274353132498164,0.014104974879815414,,,,,0.4380103736007993,1577,2023,1,0.95,WHITE,WHITE,True,0,0.0013000008038943633,WHITE,True,CORRECT,0.5881220000010217,588.1220000010217
4,20260325_121644,D,J,False,AUTOMATION1,2,223,523,fixed_delta,0.04274353132498164,0.014104974879815414,,,,,0.44852023020497633,1615,1985,1,0.95,WHITE,WHITE,True,0,0.0015000005078036338,WHITE,True,CORRECT,0.494554099999732,494.554099999732
4,20260325_121644,D,J,False,AUTOMATION1,2,224,524,fixed_delta,0.04274353132498164,0.014104974879815414,,,,,0.4369857930885351,1573,2027,1,0.95,WHITE,WHITE,True,0,0.0010000003385357559,WHITE,True,CORRECT,0.5401873999999225,540.1873999999225
4,20260325_121644,D,J,False,AUTOMATION1,2,225,525,fixed_delta,0.04274353132498164,0.014104974879815414,,,,,0.5547088348001101,1997,1603,1,0.95,BLACK,BLACK,True,0,0.0010000003385357559,BLACK,True,CORRECT,1.8109776000001148,1810.9776000001148
4,20260325_121644,D,J,False,AUTOMATION1,2,226,526,fixed_delta,0.04274353132498164,0.014104974879815414,,,,,0.46832252413907405,1686,1914,1,0.95,WHITE,WHITE,True,0,0.0011000010999850929,WHITE,True,CORRECT,1.3396814999996423,1339.6814999996423
4,20260325_121644,D,J,False,AUTOMATION1,2,227,527,fixed_delta,0.04274353132498164,0.014104974879815414,,,,,0.46097973245945034,1660,1940,1,0.95,WHITE,WHITE,True,0,0.0014000015653437003,WHITE,True,CORRECT,0.5428729000013846,542.8729000013846
4,20260325_121644,D,J,False,AUTOMATION1,2,228,528,fixed_delta,0.04274353132498164,0.014104974879815414,,,,,0.5149169244200885,1854,1746,1,0.95,BLACK,BLACK,True,0,0.0008999995770864189,WHITE,False,INCORRECT,0.1262899000012112,126.28990000121121
4,20260325_121644,D,J,False,AUTOMATION1,2,229,529,fixed_delta,0.04274353132498164,0.014104974879815414,,,,,0.5400025556512046,1944,1656,1,0.95,BLACK,BLACK,True,0,0.0015999994502635673,WHITE,False,INCORRECT,0.8640596000004734,864.0596000004734
4,20260325_121644,D,J,False,AUTOMATION1,2,230,530,fixed_delta,0.04274353132498164,0.014104974879815414,,,,,0.4527616157127294,1630,1970,1,0.95,WHITE,WHITE,True,0,0.0008999995770864189,WHITE,True,CORRECT,0.6180696999999782,618.0696999999782
4,20260325_121644,D,J,False,AUTOMATION1,2,231,531,fixed_delta,0.04274353132498164,0.014104974879815414,,,,,0.5382104684986623,1938,1662,1,0.95,BLACK,BLACK,True,0,0.0012000000424450263,BLACK,True,CORRECT,0.8819643999995606,881.9643999995606
4,20260325_121644,D,J,False,AUTOMATION1,2,232,532,fixed_delta,0.04274353132498164,0.014104974879815414,,,,,0.44076142273055746,1587,2013,1,0.95,WHITE,WHITE,True,0,0.0013999997463542968,WHITE,True,CORRECT,0.8458826999994926,845.8826999994926
4,20260325_121644,D,J,False,AUTOMATION1,2,233,533,fixed_delta,0.04274353132498164,0.014104974879815414,,,,,0.4885923578544955,1759,1841,1,0.95,WHITE,WHITE,True,0,0.0012000000424450263,WHITE,True,CORRECT,0.7666554999996151,766.6554999996151
4,20260325_121644,D,J,False,AUTOMATION1,2,234,534,fixed_delta,0.04274353132498164,0.014104974879815414,,,,,0.5401244055433073,1944,1656,1,0.95,BLACK,BLACK,True,0,0.0012000000424450263,BLACK,True,CORRECT,1.867224499999793,1867.224499999793
4,20260325_121644,D,J,False,AUTOMATION1,2,235,535,fixed_delta,0.04274353132498164,0.014104974879815414,,,,,0.5392115463060224,1941,1659,1,0.95,BLACK,BLACK,True,0,0.0012000000424450263,BLACK,True,CORRECT,1.7443054000013944,1744.3054000013944
4,20260325_121644,D,J,False,AUTOMATION1,2,236,536,fixed_delta,0.04274353132498164,0.014104974879815414,,,,,0.46095286509459327,1659,1941,1,0.95,WHITE,WHITE,True,0,0.0010000003385357559,WHITE,True,CORRECT,0.7986782999996649,798.6782999996649
4,20260325_121644,D,J,False,AUTOMATION1,2,237,537,fixed_delta,0.04274353132498164,0.014104974879815414,,,,,0.5319719462829102,1915,1685,1,0.95,BLACK,BLACK,True,0,0.0012000000424450263,BLACK,True,CORRECT,1.4945107999992615,1494.5107999992615
4,20260325_121644,D,J,False,AUTOMATION1,2,238,538,fixed_delta,0.04274353132498164,0.014104974879815414,,,,,0.5535207894324875,1993,1607,1,0.95,BLACK,BLACK,True,0,0.0010999992809956893,BLACK,True,CORRECT,0.6746433999996952,674.6433999996952
4,20260325_121644,D,J,False,AUTOMATION1,2,239,539,fixed_delta,0.04274353132498164,0.014104974879815414,,,,,0.45343221694064945,1632,1968,1,0.95,WHITE,WHITE,True,0,0.0009999985195463523,WHITE,True,CORRECT,0.6895385999996506,689.5385999996506
4,20260325_121644,D,J,False,AUTOMATION1,2,240,540,fixed_delta,0.04274353132498164,0.014104974879815414,,,,,0.45309280636520843,1631,1969,1,0.95,WHITE,WHITE,True,0,0.0013999997463542968,WHITE,True,CORRECT,1.0194776999996975,1019.4776999996975
4,20260325_121644,D,J,False,AUTOMATION1,2,241,541,fixed_delta,0.04274353132498164,0.014104974879815414,,,,,0.5535372124119038,1993,1607,1,0.95,BLACK,BLACK,True,0,0.0016999983927235007,BLACK,True,CORRECT,1.2857227999993484,1285.7227999993484
4,20260325_121644,D,J,False,AUTOMATION1,2,242,542,fixed_delta,0.04274353132498164,0.014104974879815414,,,,,0.5612552690796938,2021,1579,1,0.95,BLACK,BLACK,True,0,0.0010000003385357559,BLACK,True,CORRECT,0.5535541000008379,553.5541000008379
4,20260325_121644,D,J,False,AUTOMATION1,2,243,543,fixed_delta,0.04274353132498164,0.014104974879815414,,,,,0.4373073441881544,1574,2026,1,0.95,WHITE,WHITE,True,0,0.0012999989849049598,WHITE,True,CORRECT,0.5756305999984761,575.6305999984761
4,20260325_121644,D,J,False,AUTOMATION1,2,244,544,fixed_delta,0.04274353132498164,0.014104974879815414,,,,,0.5496006395739739,1979,1621,1,0.95,BLACK,BLACK,True,0,0.0009999985195463523,BLACK,True,CORRECT,0.7677329999987705,767.7329999987705
4,20260325_121644,D,J,False,AUTOMATION1,2,245,545,fixed_delta,0.04274353132498164,0.014104974879815414,,,,,0.5376181094947746,1935,1665,1,0.95,BLACK,BLACK,True,0,0.0015999994502635673,BLACK,True,CORRECT,0.7415512999996281,741.5512999996281
4,20260325_121644,D,J,False,AUTOMATION1,2,246,546,fixed_delta,0.04274353132498164,0.014104974879815414,,,,,0.5435623683705499,1957,1643,1,0.95,BLACK,BLACK,True,0,0.0012000000424450263,BLACK,True,CORRECT,0.6926619999994728,692.6619999994728
4,20260325_121644,D,J,False,AUTOMATION1,2,247,547,fixed_delta,0.04274353132498164,0.014104974879815414,,,,,0.5686605155896578,2047,1553,1,0.95,BLACK,BLACK,True,0,0.0013000008038943633,BLACK,True,CORRECT,0.4656155000011495,465.6155000011495
4,20260325_121644,D,J,False,AUTOMATION1,2,248,548,fixed_delta,0.04274353132498164,0.014104974879815414,,,,,0.4462388377888671,1606,1994,1,0.95,WHITE,WHITE,True,0,0.0017000002117129043,WHITE,True,CORRECT,0.7690956999995251,769.0956999995251
4,20260325_121644,D,J,False,AUTOMATION1,2,249,549,fixed_delta,0.04274353132498164,0.014104974879815414,,,,,0.5378256127952397,1936,1664,1,0.95,BLACK,BLACK,True,0,0.0018000009731622413,BLACK,True,CORRECT,0.6251802000006137,625.1802000006137
4,20260325_121644,D,J,False,AUTOMATION1,2,250,550,fixed_delta,0.04274353132498164,0.014104974879815414,,,,,0.5376575267251026,1936,1664,1,0.95,BLACK,BLACK,True,0,0.0010000003385357559,BLACK,True,CORRECT,0.8958244000004925,895.8244000004925
4,20260325_121644,D,J,False,AUTOMATION1,2,251,551,fixed_delta,0.04274353132498164,0.014104974879815414,,,,,0.5532408955670154,1992,1608,1,0.95,BLACK,BLACK,True,0,0.0014000015653437003,BLACK,True,CORRECT,0.558557500000461,558.557500000461
4,20260325_121644,D,J,False,AUTOMATION1,2,252,552,fixed_delta,0.04274353132498164,0.014104974879815414,,,,,0.5127628408010606,1846,1754,1,0.95,BLACK,BLACK,True,0,0.0009000013960758224,BLACK,True,CORRECT,0.8009612000005291,800.9612000005291
4,20260325_121644,D,J,False,AUTOMATION1,2,253,553,fixed_delta,0.04274353132498164,0.014104974879815414,,,,,0.4835719118735833,1741,1859,1,0.95,WHITE,BLACK,False,0,0.0012000000424450263,BLACK,False,INCORRECT,0.4458223999990878,445.8223999990878
4,20260325_121644,D,J,False,AUTOMATION1,2,254,554,fixed_delta,0.04274353132498164,0.014104974879815414,,,,,0.452868441195723,1630,1970,1,0.95,WHITE,WHITE,True,0,0.0012000000424450263,WHITE,True,CORRECT,2.1104730000006384,2110.4730000006384
4,20260325_121644,D,J,False,AUTOMATION1,2,255,555,fixed_delta,0.04274353132498164,0.014104974879815414,,,,,0.5132391140341043,1848,1752,1,0.95,BLACK,BLACK,True,0,0.0012999989849049598,BLACK,True,CORRECT,0.8866497999988496,886.6497999988496
4,20260325_121644,D,J,False,AUTOMATION1,2,256,556,fixed_delta,0.04274353132498164,0.014104974879815414,,,,,0.5688872590152525,2048,1552,1,0.95,BLACK,BLACK,True,0,0.0010000003385357559,BLACK,True,CORRECT,0.6352607999997417,635.2607999997417
4,20260325_121644,D,J,False,AUTOMATION1,2,257,557,fixed_delta,0.04274353132498164,0.014104974879815414,,,,,0.46630578843745846,1679,1921,1,0.95,WHITE,WHITE,True,0,0.0015000005078036338,WHITE,True,CORRECT,0.721498300001258,721.498300001258
4,20260325_121644,D,J,False,AUTOMATION1,2,258,558,fixed_delta,0.04274353132498164,0.014104974879815414,,,,,0.546863300313717,1969,1631,1,0.95,BLACK,BLACK,True,0,0.0013999997463542968,BLACK,True,CORRECT,0.5307768000002397,530.7768000002397
4,20260325_121644,D,J,False,AUTOMATION1,2,259,559,fixed_delta,0.04274353132498164,0.014104974879815414,,,,,0.4552293931191789,1639,1961,1,0.95,WHITE,BLACK,False,0,0.0017999991541728377,WHITE,True,CORRECT,1.759486899998592,1759.486899998592
4,20260325_121644,D,J,False,AUTOMATION1,2,260,560,fixed_delta,0.04274353132498164,0.014104974879815414,,,,,0.4728672707240572,1702,1898,1,0.95,WHITE,WHITE,True,0,0.0014999986888142303,WHITE,True,CORRECT,1.1857146999991528,1185.7146999991528
4,20260325_121644,D,J,False,AUTOMATION1,2,261,561,fixed_delta,0.04274353132498164,0.014104974879815414,,,,,0.4609983037471092,1660,1940,1,0.95,WHITE,WHITE,True,0,0.0018000009731622413,WHITE,True,CORRECT,3.961760399999548,3961.760399999548
4,20260325_121644,D,J,False,AUTOMATION1,2,262,562,fixed_delta,0.04274353132498164,0.014104974879815414,,,,,0.5293038661629409,1905,1695,1,0.95,BLACK,BLACK,True,0,0.0012999989849049598,BLACK,True,CORRECT,0.6654139999991457,665.4139999991457
4,20260325_121644,D,J,False,AUTOMATION1,2,263,563,fixed_delta,0.04274353132498164,0.014104974879815414,,,,,0.5721327049460144,2060,1540,1,0.95,BLACK,BLACK,True,0,0.0012000000424450263,BLACK,True,CORRECT,0.5665358999995078,566.5358999995078
4,20260325_121644,D,J,False,AUTOMATION1,2,264,564,fixed_delta,0.04274353132498164,0.014104974879815414,,,,,0.4739810782471646,1706,1894,1,0.95,WHITE,WHITE,True,0,0.0012999989849049598,WHITE,True,CORRECT,0.7050418999988324,705.0418999988324
4,20260325_121644,D,J,False,AUTOMATION1,2,265,565,fixed_delta,0.04274353132498164,0.014104974879815414,,,,,0.5272731309428563,1898,1702,1,0.95,BLACK,BLACK,True,0,0.0013999997463542968,WHITE,False,INCORRECT,1.1311989999994694,1131.1989999994694
4,20260325_121644,D,J,False,AUTOMATION1,2,266,566,fixed_delta,0.04274353132498164,0.014104974879815414,,,,,0.44581419340085454,1605,1995,1,0.95,WHITE,WHITE,True,0,0.0010000003385357559,WHITE,True,CORRECT,0.6996890999998868,699.6890999998868
4,20260325_121644,D,J,False,AUTOMATION1,2,267,567,fixed_delta,0.04274353132498164,0.014104974879815414,,,,,0.5338448474831506,1922,1678,1,0.95,BLACK,BLACK,True,0,0.0013999997463542968,BLACK,True,CORRECT,0.6079036000010092,607.9036000010092
4,20260325_121644,D,J,False,AUTOMATION1,2,268,568,fixed_delta,0.04274353132498164,0.014104974879815414,,,,,0.47451479156483467,1708,1892,1,0.95,WHITE,WHITE,True,0,0.0014999986888142303,WHITE,True,CORRECT,2.4349511999989772,2434.9511999989772
4,20260325_121644,D,J,False,AUTOMATION1,2,269,569,fixed_delta,0.04274353132498164,0.014104974879815414,,,,,0.44764858576247324,1612,1988,1,0.95,WHITE,WHITE,True,0,0.0017000002117129043,WHITE,True,CORRECT,1.328567299999122,1328.567299999122
4,20260325_121644,D,J,False,AUTOMATION1,2,270,570,fixed_delta,0.04274353132498164,0.014104974879815414,,,,,0.5573931652612604,2007,1593,1,0.95,BLACK,BLACK,True,0,0.0015999994502635673,BLACK,True,CORRECT,0.44605459999911545,446.05459999911545
4,20260325_121644,D,J,False,AUTOMATION1,2,271,571,fixed_delta,0.04274353132498164,0.014104974879815414,,,,,0.4644779237744104,1672,1928,1,0.95,WHITE,WHITE,True,0,0.002599999788799323,WHITE,True,CORRECT,0.5720707000000402,572.0707000000402
4,20260325_121644,D,J,False,AUTOMATION1,2,272,572,fixed_delta,0.04274353132498164,0.014104974879815414,,,,,0.4478212922199557,1612,1988,1,0.95,WHITE,WHITE,True,0,0.0013999997463542968,WHITE,True,CORRECT,1.4740904000009323,1474.0904000009323
4,20260325_121644,D,J,False,AUTOMATION1,2,273,573,fixed_delta,0.04274353132498164,0.014104974879815414,,,,,0.5520564961269685,1987,1613,1,0.95,BLACK,BLACK,True,0,0.0012000000424450263,BLACK,True,CORRECT,0.710430199998882,710.430199998882
4,20260325_121644,D,J,False,AUTOMATION1,2,274,574,fixed_delta,0.04274353132498164,0.014104974879815414,,,,,0.520739589958035,1875,1725,1,0.95,BLACK,BLACK,True,0,0.0010999992809956893,BLACK,True,CORRECT,0.7801873999997042,780.1873999997042
4,20260325_121644,D,J,False,AUTOMATION1,2,275,575,fixed_delta,0.04274353132498164,0.014104974879815414,,,,,0.5416526896188164,1950,1650,1,0.95,BLACK,BLACK,True,0,0.0015999994502635673,WHITE,False,INCORRECT,1.122296199999255,1122.296199999255
4,20260325_121644,D,J,False,AUTOMATION1,2,276,576,fixed_delta,0.04274353132498164,0.014104974879815414,,,,,0.45172468450261793,1626,1974,1,0.95,WHITE,WHITE,True,0,0.0011000010999850929,WHITE,True,CORRECT,0.733788800000184,733.788800000184
4,20260325_121644,D,J,False,AUTOMATION1,2,277,577,fixed_delta,0.04274353132498164,0.014104974879815414,,,,,0.4511992949716624,1624,1976,1,0.95,WHITE,WHITE,True,0,0.0009999985195463523,WHITE,True,CORRECT,0.6371674999991228,637.1674999991228
4,20260325_121644,D,J,False,AUTOMATION1,2,278,578,fixed_delta,0.04274353132498164,0.014104974879815414,,,,,0.5355196105277105,1928,1672,1,0.95,BLACK,BLACK,True,0,0.0010999992809956893,BLACK,True,CORRECT,0.5857735000008688,585.7735000008688
4,20260325_121644,D,J,False,AUTOMATION1,2,279,579,fixed_delta,0.04274353132498164,0.014104974879815414,,,,,0.44359794140263875,1597,2003,1,0.95,WHITE,WHITE,True,0,0.0012000000424450263,WHITE,True,CORRECT,1.052061100001083,1052.061100001083
4,20260325_121644,D,J,False,AUTOMATION1,2,280,580,fixed_delta,0.04274353132498164,0.014104974879815414,,,,,0.5254575495037472,1892,1708,1,0.95,BLACK,BLACK,True,0,0.0008999995770864189,BLACK,True,CORRECT,1.6640210999994451,1664.0210999994451
4,20260325_121644,D,J,False,AUTOMATION1,2,281,581,fixed_delta,0.04274353132498164,0.014104974879815414,,,,,0.46795773143120023,1685,1915,1,0.95,WHITE,WHITE,True,0,0.0012999989849049598,WHITE,True,CORRECT,1.0455167000000074,1045.5167000000074
4,20260325_121644,D,J,False,AUTOMATION1,2,282,582,fixed_delta,0.04274353132498164,0.014104974879815414,,,,,0.5505807845498064,1982,1618,1,0.95,BLACK,BLACK,True,0,0.0012000000424450263,BLACK,True,CORRECT,0.6358741999993072,635.8741999993072
4,20260325_121644,D,J,False,AUTOMATION1,2,283,583,fixed_delta,0.04274353132498164,0.014104974879815414,,,,,0.44429685774256533,1599,2001,1,0.95,WHITE,WHITE,True,0,0.0012000000424450263,WHITE,True,CORRECT,1.0555798999994295,1055.5798999994295
4,20260325_121644,D,J,False,AUTOMATION1,2,284,584,fixed_delta,0.04274353132498164,0.014104974879815414,,,,,0.5153456823439784,1855,1745,1,0.95,BLACK,BLACK,True,0,0.0012000000424450263,BLACK,True,CORRECT,0.5460889000005409,546.0889000005409
4,20260325_121644,D,J,False,AUTOMATION1,2,285,585,fixed_delta,0.04274353132498164,0.014104974879815414,,,,,0.46317428479493694,1667,1933,1,0.95,WHITE,WHITE,True,0,0.0012999989849049598,WHITE,True,CORRECT,0.5299798999985796,529.9798999985796
4,20260325_121644,D,J,False,AUTOMATION1,2,286,586,fixed_delta,0.04274353132498164,0.014104974879815414,,,,,0.5557311080354066,2001,1599,1,0.95,BLACK,BLACK,True,0,0.0013000008038943633,BLACK,True,CORRECT,0.9023066999998264,902.3066999998264
4,20260325_121644,D,J,False,AUTOMATION1,2,287,587,fixed_delta,0.04274353132498164,0.014104974879815414,,,,,0.5351414139475262,1927,1673,1,0.95,BLACK,BLACK,True,0,0.0010000003385357559,BLACK,True,CORRECT,0.7293649000002915,729.3649000002915
4,20260325_121644,D,J,False,AUTOMATION1,2,288,588,fixed_delta,0.04274353132498164,0.014104974879815414,,,,,0.563147790897849,2027,1573,1,0.95,BLACK,WHITE,False,0,0.0015000005078036338,BLACK,True,CORRECT,1.041675899999973,1041.675899999973
4,20260325_121644,D,J,False,AUTOMATION1,2,289,589,fixed_delta,0.04274353132498164,0.014104974879815414,,,,,0.5490909319180842,1977,1623,1,0.95,BLACK,BLACK,True,0,0.0016000012692529708,BLACK,True,CORRECT,0.732639100000597,732.639100000597
4,20260325_121644,D,J,False,AUTOMATION1,2,290,590,fixed_delta,0.04274353132498164,0.014104974879815414,,,,,0.45098005995162355,1624,1976,1,0.95,WHITE,WHITE,True,0,0.0010999992809956893,WHITE,True,CORRECT,0.7056303999997908,705.6303999997908
4,20260325_121644,D,J,False,AUTOMATION1,2,291,591,fixed_delta,0.04274353132498164,0.014104974879815414,,,,,0.5572276831825372,2006,1594,1,0.95,BLACK,BLACK,True,0,0.0015000005078036338,BLACK,True,CORRECT,0.5889046000011149,588.9046000011149
4,20260325_121644,D,J,False,AUTOMATION1,2,292,592,fixed_delta,0.04274353132498164,0.014104974879815414,,,,,0.5608216982581994,2019,1581,1,0.95,BLACK,BLACK,True,0,0.0015999994502635673,BLACK,True,CORRECT,0.5906712999985757,590.6712999985757
4,20260325_121644,D,J,False,AUTOMATION1,2,293,593,fixed_delta,0.04274353132498164,0.014104974879815414,,,,,0.5327103962213608,1918,1682,1,0.95,BLACK,BLACK,True,0,0.0012000000424450263,BLACK,True,CORRECT,0.7919355999983964,791.9355999983964
4,20260325_121644,D,J,False,AUTOMATION1,2,294,594,fixed_delta,0.04274353132498164,0.014104974879815414,,,,,0.5515682916598644,1986,1614,1,0.95,BLACK,BLACK,True,0,0.0010000003385357559,BLACK,True,CORRECT,1.1825688000008086,1182.5688000008086
4,20260325_121644,D,J,False,AUTOMATION1,2,295,595,fixed_delta,0.04274353132498164,0.014104974879815414,,,,,0.5487258262904824,1975,1625,1,0.95,BLACK,BLACK,True,0,0.0010000003385357559,BLACK,True,CORRECT,0.6721037999996042,672.1037999996042
4,20260325_121644,D,J,False,AUTOMATION1,2,296,596,fixed_delta,0.04274353132498164,0.014104974879815414,,,,,0.4483562204430501,1614,1986,1,0.95,WHITE,WHITE,True,0,0.0012000000424450263,WHITE,True,CORRECT,0.7181257000011101,718.1257000011101
4,20260325_121644,D,J,False,AUTOMATION1,2,297,597,fixed_delta,0.04274353132498164,0.014104974879815414,,,,,0.5255650634458899,1892,1708,1,0.95,BLACK,BLACK,True,0,0.0010000003385357559,BLACK,True,CORRECT,0.4676240000007965,467.6240000007965
4,20260325_121644,D,J,False,AUTOMATION1,2,298,598,fixed_delta,0.04274353132498164,0.014104974879815414,,,,,0.5593427065830007,2014,1586,1,0.95,BLACK,BLACK,True,0,0.0014000015653437003,BLACK,True,CORRECT,0.623869700000796,623.869700000796
4,20260325_121644,D,J,False,AUTOMATION1,2,299,599,fixed_delta,0.04274353132498164,0.014104974879815414,,,,,0.5423589177879697,1952,1648,1,0.95,BLACK,BLACK,True,0,0.0013999997463542968,BLACK,True,CORRECT,0.5049889999991137,504.98899999911373
4,20260325_121644,D,J,False,AUTOMATION1,2,300,600,fixed_delta,0.04274353132498164,0.014104974879815414,,,,,0.5432840878968034,1956,1644,1,0.95,BLACK,BLACK,True,0,0.0010000003385357559,BLACK,True,CORRECT,1.6750565000002098,1675.0565000002098
4,20260325_121644,D,J,False,AUTOMATION1,2,301,601,fixed_delta,0.04274353132498164,0.014104974879815414,,,,,0.45742172976742923,1647,1953,1,0.95,WHITE,WHITE,True,0,0.0012999989849049598,WHITE,True,CORRECT,0.6666182999997545,666.6182999997545
4,20260325_121644,D,J,False,AUTOMATION1,2,302,602,fixed_delta,0.04274353132498164,0.014104974879815414,,,,,0.4659938838408155,1678,1922,1,0.95,WHITE,WHITE,True,0,0.0013000008038943633,WHITE,True,CORRECT,0.5761548000009498,576.1548000009498
4,20260325_121644,D,J,False,AUTOMATION1,2,303,603,fixed_delta,0.04274353132498164,0.014104974879815414,,,,,0.4547594296242748,1637,1963,1,0.95,WHITE,WHITE,True,0,0.0018000009731622413,WHITE,True,CORRECT,0.8795970000010129,879.5970000010129
4,20260325_121644,D,J,False,AUTOMATION1,2,304,604,fixed_delta,0.04274353132498164,0.014104974879815414,,,,,0.547807925317763,1972,1628,1,0.95,BLACK,BLACK,True,0,0.0014999986888142303,BLACK,True,CORRECT,0.6123542999994243,612.3542999994243
4,20260325_121644,D,J,False,AUTOMATION1,2,305,605,fixed_delta,0.04274353132498164,0.014104974879815414,,,,,0.5386234230542237,1939,1661,1,0.95,BLACK,BLACK,True,0,0.0013000008038943633,BLACK,True,CORRECT,0.5231113000008918,523.1113000008918
4,20260325_121644,D,J,False,AUTOMATION1,2,306,606,fixed_delta,0.04274353132498164,0.014104974879815414,,,,,0.5240530281150642,1887,1713,1,0.95,BLACK,BLACK,True,0,0.0016999983927235007,BLACK,True,CORRECT,0.863467799999853,863.467799999853
4,20260325_121644,D,J,False,AUTOMATION1,2,307,607,fixed_delta,0.04274353132498164,0.014104974879815414,,,,,0.5456041801966577,1964,1636,1,0.95,BLACK,BLACK,True,0,0.0013000008038943633,BLACK,True,CORRECT,0.6524929000006523,652.4929000006523
4,20260325_121644,D,J,False,AUTOMATION1,2,308,608,fixed_delta,0.04274353132498164,0.014104974879815414,,,,,0.43158514527073777,1554,2046,1,0.95,WHITE,WHITE,True,0,0.0018000009731622413,WHITE,True,CORRECT,0.6951840000001539,695.1840000001539
4,20260325_121644,D,J,False,AUTOMATION1,2,309,609,fixed_delta,0.04274353132498164,0.014104974879815414,,,,,0.532854244400758,1918,1682,1,0.95,BLACK,BLACK,True,0,0.0010000003385357559,BLACK,True,CORRECT,0.6149199000010412,614.9199000010412
4,20260325_121644,D,J,False,AUTOMATION1,2,310,610,fixed_delta,0.04274353132498164,0.014104974879815414,,,,,0.549949281944457,1980,1620,1,0.95,BLACK,BLACK,True,0,0.002800001311697997,BLACK,True,CORRECT,0.5304049000005762,530.4049000005762
4,20260325_121644,D,J,False,AUTOMATION1,2,311,611,fixed_delta,0.04274353132498164,0.014104974879815414,,,,,0.45767792725435985,1648,1952,1,0.95,WHITE,WHITE,True,0,0.0012000000424450263,WHITE,True,CORRECT,0.54682849999881,546.82849999881
4,20260325_121644,D,J,False,AUTOMATION1,2,312,612,fixed_delta,0.04274353132498164,0.014104974879815414,,,,,0.5633625486027668,2028,1572,1,0.95,BLACK,BLACK,True,0,0.0015000005078036338,BLACK,True,CORRECT,0.485352800000328,485.352800000328
4,20260325_121644,D,J,False,AUTOMATION1,2,313,613,fixed_delta,0.04274353132498164,0.014104974879815414,,,,,0.5220085332456502,1879,1721,1,0.95,BLACK,BLACK,True,0,0.0017999991541728377,BLACK,True,CORRECT,0.5392231999994692,539.2231999994692
4,20260325_121644,D,J,False,AUTOMATION1,2,314,614,fixed_delta,0.04274353132498164,0.014104974879815414,,,,,0.44736390884993393,1611,1989,1,0.95,WHITE,WHITE,True,0,0.0012000000424450263,WHITE,True,CORRECT,0.6034350000008999,603.4350000008999
4,20260325_121644,D,J,False,AUTOMATION1,2,315,615,fixed_delta,0.04274353132498164,0.014104974879815414,,,,,0.5202460401862709,1873,1727,1,0.95,BLACK,BLACK,True,0,0.0012999989849049598,BLACK,True,CORRECT,0.6430483000003733,643.0483000003733
4,20260325_121644,D,J,False,AUTOMATION1,2,316,616,fixed_delta,0.04274353132498164,0.014104974879815414,,,,,0.534032107014468,1923,1677,1,0.95,BLACK,BLACK,True,0,0.0017000002117129043,BLACK,True,CORRECT,0.46486209999966377,464.86209999966377
4,20260325_121644,D,J,False,AUTOMATION1,2,317,617,fixed_delta,0.04274353132498164,0.014104974879815414,,,,,0.4880539304178917,1757,1843,1,0.95,WHITE,WHITE,True,0,0.0010000003385357559,WHITE,True,CORRECT,0.9004105999993044,900.4105999993044
4,20260325_121644,D,J,False,AUTOMATION1,2,318,618,fixed_delta,0.04274353132498164,0.014104974879815414,,,,,0.45691372270542324,1645,1955,1,0.95,WHITE,WHITE,True,0,0.0013999997463542968,WHITE,True,CORRECT,1.0728484999999637,1072.8484999999637
4,20260325_121644,D,J,False,AUTOMATION1,2,319,619,fixed_delta,0.04274353132498164,0.014104974879815414,,,,,0.419328017220942,1510,2090,1,0.95,WHITE,WHITE,True,0,0.0012999989849049598,WHITE,True,CORRECT,0.7454316999992443,745.4316999992443
4,20260325_121644,D,J,False,AUTOMATION1,2,320,620,fixed_delta,0.04274353132498164,0.014104974879815414,,,,,0.47239489547313,1701,1899,1,0.95,WHITE,WHITE,True,0,0.0010000003385357559,WHITE,True,CORRECT,0.9265808000000106,926.5808000000106
4,20260325_121644,D,J,False,AUTOMATION1,2,321,621,fixed_delta,0.04274353132498164,0.014104974879815414,,,,,0.5258943229737258,1893,1707,1,0.95,BLACK,BLACK,True,0,0.0012000000424450263,BLACK,True,CORRECT,0.5946973000009166,594.6973000009166
4,20260325_121644,D,J,False,AUTOMATION1,2,322,622,fixed_delta,0.04274353132498164,0.014104974879815414,,,,,0.46489672047809316,1674,1926,1,0.95,WHITE,WHITE,True,0,0.0018000009731622413,WHITE,True,CORRECT,0.7346340000003693,734.6340000003693
4,20260325_121644,D,J,False,AUTOMATION1,2,323,623,fixed_delta,0.04274353132498164,0.014104974879815414,,,,,0.44216073590139005,1592,2008,1,0.95,WHITE,WHITE,True,0,0.0009999985195463523,WHITE,True,CORRECT,1.3323330999992322,1332.3330999992322
4,20260325_121644,D,J,False,AUTOMATION1,2,324,624,fixed_delta,0.04274353132498164,0.014104974879815414,,,,,0.5322366240438249,1916,1684,1,0.95,BLACK,BLACK,True,0,0.0010999992809956893,BLACK,True,CORRECT,0.5784406999991916,578.4406999991916
4,20260325_121644,D,J,False,AUTOMATION1,2,325,625,fixed_delta,0.04274353132498164,0.014104974879815414,,,,,0.4555941343313922,1640,1960,1,0.95,WHITE,WHITE,True,0,0.0015000005078036338,WHITE,True,CORRECT,0.660166499999832,660.166499999832
4,20260325_121644,D,J,False,AUTOMATION1,2,326,626,fixed_delta,0.04274353132498164,0.014104974879815414,,,,,0.5388482037558238,1940,1660,1,0.95,BLACK,BLACK,True,0,0.0013999997463542968,BLACK,True,CORRECT,0.49790960000063933,497.90960000063933
4,20260325_121644,D,J,False,AUTOMATION1,2,327,627,fixed_delta,0.04274353132498164,0.014104974879815414,,,,,0.5541598504076469,1995,1605,1,0.95,BLACK,BLACK,True,0,0.0012000000424450263,BLACK,True,CORRECT,0.579555000000255,579.555000000255
4,20260325_121644,D,J,False,AUTOMATION1,2,328,628,fixed_delta,0.04274353132498164,0.014104974879815414,,,,,0.4719680506376974,1699,1901,1,0.95,WHITE,WHITE,True,0,0.0012999989849049598,WHITE,True,CORRECT,0.9392633999996178,939.2633999996178
4,20260325_121644,D,J,False,AUTOMATION1,2,329,629,fixed_delta,0.04274353132498164,0.014104974879815414,,,,,0.5569575061534167,2005,1595,1,0.95,BLACK,BLACK,True,0,0.0017999991541728377,BLACK,True,CORRECT,0.44848429999910877,448.48429999910877
4,20260325_121644,D,J,False,AUTOMATION1,2,330,630,fixed_delta,0.04274353132498164,0.014104974879815414,,,,,0.45418520505551596,1635,1965,1,0.95,WHITE,WHITE,True,0,0.0010000003385357559,WHITE,True,CORRECT,0.49714529999982915,497.14529999982915
4,20260325_121644,D,J,False,AUTOMATION1,2,331,631,fixed_delta,0.04274353132498164,0.014104974879815414,,,,,0.5617801485183936,2022,1578,1,0.95,BLACK,WHITE,False,0,0.0014999986888142303,WHITE,False,INCORRECT,0.6171872999984771,617.1872999984771
4,20260325_121644,D,J,False,AUTOMATION1,2,332,632,fixed_delta,0.04274353132498164,0.014104974879815414,,,,,0.4659335719138436,1677,1923,1,0.95,WHITE,WHITE,True,0,0.0012000000424450263,WHITE,True,CORRECT,1.222677499999918,1222.677499999918
4,20260325_121644,D,J,False,AUTOMATION1,2,333,633,fixed_delta,0.04274353132498164,0.014104974879815414,,,,,0.5093248042218177,1834,1766,1,0.95,BLACK,BLACK,True,0,0.0016000012692529708,BLACK,True,CORRECT,1.4845581000008679,1484.5581000008679
4,20260325_121644,D,J,False,AUTOMATION1,2,334,634,fixed_delta,0.04274353132498164,0.014104974879815414,,,,,0.5607685584495533,2019,1581,1,0.95,BLACK,BLACK,True,0,0.0010999992809956893,BLACK,True,CORRECT,0.5661294999990787,566.1294999990787
4,20260325_121644,D,J,False,AUTOMATION1,2,335,635,fixed_delta,0.04274353132498164,0.014104974879815414,,,,,0.4689384656085087,1688,1912,1,0.95,WHITE,WHITE,True,0,0.0013000008038943633,WHITE,True,CORRECT,0.5789075000011508,578.9075000011508
4,20260325_121644,D,J,False,AUTOMATION1,2,336,636,fixed_delta,0.04274353132498164,0.014104974879815414,,,,,0.4406755677412318,1586,2014,1,0.95,WHITE,WHITE,True,0,0.0012999989849049598,WHITE,True,CORRECT,1.1328137000000424,1132.8137000000424
4,20260325_121644,D,J,False,AUTOMATION1,2,337,637,fixed_delta,0.04274353132498164,0.014104974879815414,,,,,0.5401618413005642,1945,1655,1,0.95,BLACK,BLACK,True,0,0.0014999986888142303,BLACK,True,CORRECT,0.6590572999994038,659.0572999994038
4,20260325_121644,D,J,False,AUTOMATION1,2,338,638,fixed_delta,0.04274353132498164,0.014104974879815414,,,,,0.44998371456613445,1620,1980,1,0.95,WHITE,WHITE,True,0,0.003899998773704283,WHITE,True,CORRECT,0.6405852999996569,640.5852999996569
4,20260325_121644,D,J,False,AUTOMATION1,2,339,639,fixed_delta,0.04274353132498164,0.014104974879815414,,,,,0.4712251624911721,1696,1904,1,0.95,WHITE,WHITE,True,0,0.0011000010999850929,WHITE,True,CORRECT,0.828203900000517,828.203900000517
4,20260325_121644,D,J,False,AUTOMATION1,2,340,640,fixed_delta,0.04274353132498164,0.014104974879815414,,,,,0.4607248517071437,1659,1941,1,0.95,WHITE,WHITE,True,0,0.0011000010999850929,WHITE,True,CORRECT,0.6583618000004208,658.3618000004208
4,20260325_121644,D,J,False,AUTOMATION1,2,341,641,fixed_delta,0.04274353132498164,0.014104974879815414,,,,,0.45976391297161057,1655,1945,1,0.95,WHITE,WHITE,True,0,0.0008999995770864189,WHITE,True,CORRECT,0.4178943999995681,417.8943999995681
4,20260325_121644,D,J,False,AUTOMATION1,2,342,642,fixed_delta,0.04274353132498164,0.014104974879815414,,,,,0.4535880956065171,1633,1967,1,0.95,WHITE,WHITE,True,0,0.0010000003385357559,WHITE,True,CORRECT,0.37244810000083817,372.44810000083817
4,20260325_121644,D,J,False,AUTOMATION1,2,343,643,fixed_delta,0.04274353132498164,0.014104974879815414,,,,,0.5668357909864948,2041,1559,1,0.95,BLACK,BLACK,True,0,0.0010999992809956893,BLACK,True,CORRECT,0.5790820999991411,579.0820999991411
4,20260325_121644,D,J,False,AUTOMATION1,2,344,644,fixed_delta,0.04274353132498164,0.014104974879815414,,,,,0.45998594060641584,1656,1944,1,0.95,WHITE,WHITE,True,0,0.0011000010999850929,WHITE,True,CORRECT,0.7875122000004922,787.5122000004922
4,20260325_121644,D,J,False,AUTOMATION1,2,345,645,fixed_delta,0.04274353132498164,0.014104974879815414,,,,,0.4488933126307464,1616,1984,1,0.95,WHITE,WHITE,True,0,0.0013999997463542968,WHITE,True,CORRECT,0.5438668999995571,543.8668999995571
4,20260325_121644,D,J,False,AUTOMATION1,2,346,646,fixed_delta,0.04274353132498164,0.014104974879815414,,,,,0.5748407004567633,2069,1531,1,0.95,BLACK,BLACK,True,0,0.0013000008038943633,BLACK,True,CORRECT,0.5512458000011975,551.2458000011975
4,20260325_121644,D,J,False,AUTOMATION1,2,347,647,fixed_delta,0.04274353132498164,0.014104974879815414,,,,,0.48696929433542513,1753,1847,1,0.95,WHITE,WHITE,True,0,0.0017999991541728377,WHITE,True,CORRECT,0.7259723000006488,725.9723000006488
4,20260325_121644,D,J,False,AUTOMATION1,2,348,648,fixed_delta,0.04274353132498164,0.014104974879815414,,,,,0.475869372495371,1713,1887,1,0.95,WHITE,WHITE,True,0,0.0012000000424450263,WHITE,True,CORRECT,0.44339380000019446,443.39380000019446
4,20260325_121644,D,J,False,AUTOMATION1,2,349,649,fixed_delta,0.04274353132498164,0.014104974879815414,,,,,0.46769132714986267,1684,1916,1,0.95,WHITE,WHITE,True,0,0.0013999997463542968,WHITE,True,CORRECT,0.41695289999915985,416.95289999915985
4,20260325_121644,D,J,False,AUTOMATION1,2,350,650,fixed_delta,0.04274353132498164,0.014104974879815414,,,,,0.541163329006173,1948,1652,1,0.95,BLACK,BLACK,True,0,0.0010999992809956893,BLACK,True,CORRECT,0.5326607999995758,532.6607999995758
4,20260325_121644,D,J,False,AUTOMATION1,2,351,651,fixed_delta,0.04274353132498164,0.014104974879815414,,,,,0.5413510183466994,1949,1651,1,0.95,BLACK,BLACK,True,0,0.0017000002117129043,BLACK,True,CORRECT,0.433707800000775,433.707800000775
4,20260325_121644,D,J,False,AUTOMATION1,2,352,652,fixed_delta,0.04274353132498164,0.014104974879815414,,,,,0.4575420629294602,1647,1953,1,0.95,WHITE,WHITE,True,0,0.0012000000424450263,WHITE,True,CORRECT,1.1498795000006794,1149.8795000006794
4,20260325_121644,D,J,False,AUTOMATION1,2,353,653,fixed_delta,0.04274353132498164,0.014104974879815414,,,,,0.4604169026294752,1658,1942,1,0.95,WHITE,WHITE,True,0,0.0014999986888142303,WHITE,True,CORRECT,0.5551309999991645,555.1309999991645
4,20260325_121644,D,J,False,AUTOMATION1,2,354,654,fixed_delta,0.04274353132498164,0.014104974879815414,,,,,0.4644153978589567,1672,1928,1,0.95,WHITE,WHITE,True,0,0.0013999997463542968,WHITE,True,CORRECT,0.4408621000002313,440.8621000002313
4,20260325_121644,D,J,False,AUTOMATION1,2,355,655,fixed_delta,0.04274353132498164,0.014104974879815414,,,,,0.5479861418865235,1973,1627,1,0.95,BLACK,BLACK,True,0,0.0009000013960758224,BLACK,True,CORRECT,0.5687651000007463,568.7651000007463
4,20260325_121644,D,J,False,AUTOMATION1,2,356,656,fixed_delta,0.04274353132498164,0.014104974879815414,,,,,0.4334556160034083,1560,2040,1,0.95,WHITE,WHITE,True,0,0.0010999992809956893,WHITE,True,CORRECT,0.509577699998772,509.577699998772
4,20260325_121644,D,J,False,AUTOMATION1,2,357,657,fixed_delta,0.04274353132498164,0.014104974879815414,,,,,0.5405398171632843,1946,1654,1,0.95,BLACK,BLACK,True,0,0.0012000000424450263,BLACK,True,CORRECT,0.5304089000001113,530.4089000001113
4,20260325_121644,D,J,False,AUTOMATION1,2,358,658,fixed_delta,0.04274353132498164,0.014104974879815414,,,,,0.45139212083329944,1625,1975,1,0.95,WHITE,WHITE,True,0,0.0012999989849049598,WHITE,True,CORRECT,0.4815273000003799,481.5273000003799
4,20260325_121644,D,J,False,AUTOMATION1,2,359,659,fixed_delta,0.04274353132498164,0.014104974879815414,,,,,0.4547576115204227,1637,1963,1,0.95,WHITE,WHITE,True,0,0.0010000003385357559,WHITE,True,CORRECT,0.6698560999993788,669.8560999993788
4,20260325_121644,D,J,False,AUTOMATION1,2,360,660,fixed_delta,0.04274353132498164,0.014104974879815414,,,,,0.44580614271397245,1605,1995,1,0.95,WHITE,WHITE,True,0,0.006000000212225132,WHITE,True,CORRECT,0.5290291999990586,529.0291999990586
4,20260325_121644,D,J,False,AUTOMATION1,2,361,661,fixed_delta,0.04274353132498164,0.014104974879815414,,,,,0.5399648671880098,1944,1656,1,0.95,BLACK,BLACK,True,0,0.0012000000424450263,BLACK,True,CORRECT,0.5268930000002001,526.8930000002001
4,20260325_121644,D,J,False,AUTOMATION1,2,362,662,fixed_delta,0.04274353132498164,0.014104974879815414,,,,,0.5414799135807062,1949,1651,1,0.95,BLACK,BLACK,True,0,0.0010999992809956893,BLACK,True,CORRECT,0.5917774999998073,591.7774999998073
4,20260325_121644,D,J,False,AUTOMATION1,2,363,663,fixed_delta,0.04274353132498164,0.014104974879815414,,,,,0.445628811911767,1604,1996,1,0.95,WHITE,WHITE,True,0,0.0008999995770864189,WHITE,True,CORRECT,1.7131580999994185,1713.1580999994185
4,20260325_121644,D,J,False,AUTOMATION1,2,364,664,fixed_delta,0.04274353132498164,0.014104974879815414,,,,,0.49411262063013267,1779,1821,1,0.95,WHITE,WHITE,True,0,0.0015999994502635673,WHITE,True,CORRECT,0.7576403999992181,757.6403999992181
4,20260325_121644,D,J,False,AUTOMATION1,2,365,665,fixed_delta,0.04274353132498164,0.014104974879815414,,,,,0.4759142665546652,1713,1887,1,0.95,WHITE,BLACK,False,0,0.0012999989849049598,BLACK,False,INCORRECT,0.5000413999987359,500.04139999873587
4,20260325_121644,D,J,False,AUTOMATION1,2,366,666,fixed_delta,0.04274353132498164,0.014104974879815414,,,,,0.5661694436598594,2038,1562,1,0.95,BLACK,BLACK,True,0,0.0015000005078036338,BLACK,True,CORRECT,0.5095445000006293,509.54450000062934
4,20260325_121644,D,J,False,AUTOMATION1,2,367,667,fixed_delta,0.04274353132498164,0.014104974879815414,,,,,0.46724107589952735,1682,1918,1,0.95,WHITE,WHITE,True,0,0.0013999997463542968,WHITE,True,CORRECT,1.073955500000011,1073.955500000011
4,20260325_121644,D,J,False,AUTOMATION1,2,368,668,fixed_delta,0.04274353132498164,0.014104974879815414,,,,,0.5639342622265506,2030,1570,1,0.95,BLACK,BLACK,True,0,0.0015000005078036338,BLACK,True,CORRECT,0.791912599999705,791.912599999705
4,20260325_121644,D,J,False,AUTOMATION1,2,369,669,fixed_delta,0.04274353132498164,0.014104974879815414,,,,,0.5334800441837549,1921,1679,1,0.95,BLACK,BLACK,True,0,0.0010999992809956893,BLACK,True,CORRECT,0.5260404000000563,526.0404000000563
4,20260325_121644,D,J,False,AUTOMATION1,2,370,670,fixed_delta,0.04274353132498164,0.014104974879815414,,,,,0.45160300316754814,1626,1974,1,0.95,WHITE,WHITE,True,0,0.0012000000424450263,WHITE,True,CORRECT,0.9105693000001338,910.5693000001338
4,20260325_121644,D,J,False,AUTOMATION1,2,371,671,fixed_delta,0.04274353132498164,0.014104974879815414,,,,,0.5188328867514151,1868,1732,1,0.95,BLACK,BLACK,True,0,0.0013000008038943633,BLACK,True,CORRECT,1.1619933000001765,1161.9933000001765
4,20260325_121644,D,J,False,AUTOMATION1,2,372,672,fixed_delta,0.04274353132498164,0.014104974879815414,,,,,0.43957599057360497,1582,2018,1,0.95,WHITE,WHITE,True,0,0.0008999995770864189,WHITE,True,CORRECT,0.9126154000005045,912.6154000005045
4,20260325_121644,D,J,False,AUTOMATION1,2,373,673,fixed_delta,0.04274353132498164,0.014104974879815414,,,,,0.5541070134674576,1995,1605,1,0.95,BLACK,BLACK,True,0,0.0013999997463542968,BLACK,True,CORRECT,0.51700720000008,517.00720000008
4,20260325_121644,D,J,False,AUTOMATION1,2,374,674,fixed_delta,0.04274353132498164,0.014104974879815414,,,,,0.47308522321757374,1703,1897,1,0.95,WHITE,WHITE,True,0,0.0012999989849049598,WHITE,True,CORRECT,0.8104724000004353,810.4724000004353
4,20260325_121644,D,J,False,AUTOMATION1,2,375,675,fixed_delta,0.04274353132498164,0.014104974879815414,,,,,0.5455472092660874,1964,1636,1,0.95,BLACK,BLACK,True,0,0.0013999997463542968,BLACK,True,CORRECT,0.4640909999998257,464.0909999998257
4,20260325_121644,D,J,False,AUTOMATION1,2,376,676,fixed_delta,0.04274353132498164,0.014104974879815414,,,,,0.45379476325599527,1634,1966,1,0.95,WHITE,WHITE,True,0,0.0016999983927235007,WHITE,True,CORRECT,0.4877948999983346,487.7948999983346
4,20260325_121644,D,J,False,AUTOMATION1,2,377,677,fixed_delta,0.04274353132498164,0.014104974879815414,,,,,0.4495202695219217,1618,1982,1,0.95,WHITE,WHITE,True,0,0.0013999997463542968,WHITE,True,CORRECT,1.9647729999996955,1964.7729999996955
4,20260325_121644,D,J,False,AUTOMATION1,2,378,678,fixed_delta,0.04274353132498164,0.014104974879815414,,,,,0.52857251670731,1903,1697,1,0.95,BLACK,BLACK,True,0,0.0012999989849049598,BLACK,True,CORRECT,0.4932948999994551,493.2948999994551
4,20260325_121644,D,J,False,AUTOMATION1,2,379,679,fixed_delta,0.04274353132498164,0.014104974879815414,,,,,0.448716663516845,1615,1985,1,0.95,WHITE,WHITE,True,0,0.0010000003385357559,WHITE,True,CORRECT,0.6315555999990465,631.5555999990465
4,20260325_121644,D,J,False,AUTOMATION1,2,380,680,fixed_delta,0.04274353132498164,0.014104974879815414,,,,,0.5538158131029378,1994,1606,1,0.95,BLACK,BLACK,True,0,0.0015000005078036338,BLACK,True,CORRECT,0.5846824000000197,584.6824000000197
4,20260325_121644,D,J,False,AUTOMATION1,2,381,681,fixed_delta,0.04274353132498164,0.014104974879815414,,,,,0.4567779690445125,1644,1956,1,0.95,WHITE,WHITE,True,0,0.0013999997463542968,WHITE,True,CORRECT,0.5438158999986626,543.8158999986626
4,20260325_121644,D,J,False,AUTOMATION1,2,382,682,fixed_delta,0.04274353132498164,0.014104974879815414,,,,,0.46857613015217014,1687,1913,1,0.95,WHITE,WHITE,True,0,0.0015999994502635673,WHITE,True,CORRECT,0.872806399998808,872.806399998808
4,20260325_121644,D,J,False,AUTOMATION1,2,383,683,fixed_delta,0.04274353132498164,0.014104974879815414,,,,,0.4730232143929598,1703,1897,1,0.95,WHITE,WHITE,True,0,0.0013999997463542968,WHITE,True,CORRECT,0.5992296999993414,599.2296999993414
4,20260325_121644,D,J,False,AUTOMATION1,2,384,684,fixed_delta,0.04274353132498164,0.014104974879815414,,,,,0.4475351831750854,1611,1989,1,0.95,WHITE,WHITE,True,0,0.0015000005078036338,WHITE,True,CORRECT,0.5584251000000222,558.4251000000222
4,20260325_121644,D,J,False,AUTOMATION1,2,385,685,fixed_delta,0.04274353132498164,0.014104974879815414,,,,,0.44887526638401515,1616,1984,1,0.95,WHITE,WHITE,True,0,0.0011000010999850929,WHITE,True,CORRECT,0.4447092000009434,444.7092000009434
4,20260325_121644,D,J,False,AUTOMATION1,2,386,686,fixed_delta,0.04274353132498164,0.014104974879815414,,,,,0.45359663649474913,1633,1967,1,0.95,WHITE,WHITE,True,0,0.0016999983927235007,WHITE,True,CORRECT,0.41488570000001346,414.88570000001346
4,20260325_121644,D,J,False,AUTOMATION1,2,387,687,fixed_delta,0.04274353132498164,0.014104974879815414,,,,,0.46415151082282186,1671,1929,1,0.95,WHITE,WHITE,True,0,0.0012999989849049598,WHITE,True,CORRECT,0.3598634999998467,359.8634999998467
4,20260325_121644,D,J,False,AUTOMATION1,2,388,688,fixed_delta,0.04274353132498164,0.014104974879815414,,,,,0.5467882425411815,1968,1632,1,0.95,BLACK,BLACK,True,0,0.0013999997463542968,BLACK,True,CORRECT,0.49786479999966105,497.86479999966105
4,20260325_121644,D,J,False,AUTOMATION1,2,389,689,fixed_delta,0.04274353132498164,0.014104974879815414,,,,,0.5341738377274767,1923,1677,1,0.95,BLACK,BLACK,True,0,0.00419999923906289,BLACK,True,CORRECT,0.6232447999991564,623.2447999991564
4,20260325_121644,D,J,False,AUTOMATION1,2,390,690,fixed_delta,0.04274353132498164,0.014104974879815414,,,,,0.47403272613761077,1707,1893,1,0.95,WHITE,WHITE,True,0,0.0015999994502635673,WHITE,True,CORRECT,2.2088705999995,2208.8705999995
4,20260325_121644,D,J,False,AUTOMATION1,2,391,691,fixed_delta,0.04274353132498164,0.014104974879815414,,,,,0.5467574332557418,1968,1632,1,0.95,BLACK,WHITE,False,0,0.0010000003385357559,WHITE,False,INCORRECT,0.5109637999994447,510.96379999944475
4,20260325_121644,D,J,False,AUTOMATION1,2,392,692,fixed_delta,0.04274353132498164,0.014104974879815414,,,,,0.4633607480639329,1668,1932,1,0.95,WHITE,WHITE,True,0,0.0013999997463542968,WHITE,True,CORRECT,1.5472160000008444,1547.2160000008444
4,20260325_121644,D,J,False,AUTOMATION1,2,393,693,fixed_delta,0.04274353132498164,0.014104974879815414,,,,,0.4589419318462132,1652,1948,1,0.95,WHITE,WHITE,True,0,0.0012000000424450263,WHITE,True,CORRECT,0.6548985999997967,654.8985999997967
4,20260325_121644,D,J,False,AUTOMATION1,2,394,694,fixed_delta,0.04274353132498164,0.014104974879815414,,,,,0.5496856863688959,1979,1621,1,0.95,BLACK,BLACK,True,0,0.0017999991541728377,BLACK,True,CORRECT,0.5080909999996948,508.09099999969476
4,20260325_121644,D,J,False,AUTOMATION1,2,395,695,fixed_delta,0.04274353132498164,0.014104974879815414,,,,,0.44749715968056797,1611,1989,1,0.95,WHITE,WHITE,True,0,0.0013999997463542968,WHITE,True,CORRECT,0.6126091999994969,612.6091999994969
4,20260325_121644,D,J,False,AUTOMATION1,2,396,696,fixed_delta,0.04274353132498164,0.014104974879815414,,,,,0.5282011155158934,1902,1698,1,0.95,BLACK,BLACK,True,0,0.0008999995770864189,BLACK,True,CORRECT,0.578702599999815,578.702599999815
4,20260325_121644,D,J,False,AUTOMATION1,2,397,697,fixed_delta,0.04274353132498164,0.014104974879815414,,,,,0.4471205334256022,1610,1990,1,0.95,WHITE,WHITE,True,0,0.0014000015653437003,WHITE,True,CORRECT,0.8438675000015792,843.8675000015792
4,20260325_121644,D,J,False,AUTOMATION1,2,398,698,fixed_delta,0.04274353132498164,0.014104974879815414,,,,,0.5431238262943235,1955,1645,1,0.95,BLACK,BLACK,True,0,0.0010999992809956893,BLACK,True,CORRECT,0.8004461999989871,800.4461999989871
4,20260325_121644,D,J,False,AUTOMATION1,2,399,699,fixed_delta,0.04274353132498164,0.014104974879815414,,,,,0.5241396208702149,1887,1713,1,0.95,BLACK,BLACK,True,0,0.0012000000424450263,BLACK,True,CORRECT,0.7946921000002476,794.6921000002476
4,20260325_121644,D,J,False,AUTOMATION1,2,400,700,fixed_delta,0.04274353132498164,0.014104974879815414,,,,,0.5400626077860056,1944,1656,1,0.95,BLACK,BLACK,True,0,0.0017000002117129043,BLACK,True,CORRECT,0.629593499999828,629.593499999828
4,20260325_121644,D,J,False,AUTOMATION1,2,401,701,fixed_delta,0.04274353132498164,0.014104974879815414,,,,,0.45454325412407215,1636,1964,1,0.95,WHITE,WHITE,True,0,0.0018000009731622413,WHITE,True,CORRECT,0.7434386999993876,743.4386999993876
4,20260325_121644,D,J,False,AUTOMATION1,2,402,702,fixed_delta,0.04274353132498164,0.014104974879815414,,,,,0.47683248757153746,1717,1883,1,0.95,WHITE,WHITE,True,0,0.0008000006346264854,WHITE,True,CORRECT,2.008403100000578,2008.403100000578
4,20260325_121644,D,J,False,AUTOMATION1,2,403,703,fixed_delta,0.04274353132498164,0.014104974879815414,,,,,0.47670595283945505,1716,1884,1,0.95,WHITE,WHITE,True,0,0.0011000010999850929,WHITE,True,CORRECT,1.632571400001325,1632.571400001325
4,20260325_121644,D,J,False,AUTOMATION1,2,404,704,fixed_delta,0.04274353132498164,0.014104974879815414,,,,,0.5307570434944183,1911,1689,1,0.95,BLACK,BLACK,True,0,0.0012999989849049598,BLACK,True,CORRECT,1.2682059999988269,1268.2059999988269
4,20260325_121644,D,J,False,AUTOMATION1,2,405,705,fixed_delta,0.04274353132498164,0.014104974879815414,,,,,0.5417713231122964,1950,1650,1,0.95,BLACK,BLACK,True,0,0.0010000003385357559,BLACK,True,CORRECT,1.0442536000009568,1044.2536000009568
4,20260325_121644,D,J,False,AUTOMATION1,2,406,706,fixed_delta,0.04274353132498164,0.014104974879815414,,,,,0.45854062804277185,1651,1949,1,0.95,WHITE,WHITE,True,0,0.0010000003385357559,WHITE,True,CORRECT,0.9074225000003935,907.4225000003935
4,20260325_121644,D,J,False,AUTOMATION1,2,407,707,fixed_delta,0.04274353132498164,0.014104974879815414,,,,,0.5346690535306907,1925,1675,1,0.95,BLACK,BLACK,True,0,0.0012999989849049598,BLACK,True,CORRECT,0.6874045999993541,687.4045999993541
4,20260325_121644,D,J,False,AUTOMATION1,2,408,708,fixed_delta,0.04274353132498164,0.014104974879815414,,,,,0.5716981140619609,2058,1542,1,0.95,BLACK,BLACK,True,0,0.0008999995770864189,BLACK,True,CORRECT,0.5055116000003181,505.51160000031814
4,20260325_121644,D,J,False,AUTOMATION1,2,409,709,fixed_delta,0.04274353132498164,0.014104974879815414,,,,,0.54845149437157,1974,1626,1,0.95,BLACK,BLACK,True,0,0.0012000000424450263,BLACK,True,CORRECT,0.4917454999995243,491.7454999995243
4,20260325_121644,D,J,False,AUTOMATION1,2,410,710,fixed_delta,0.04274353132498164,0.014104974879815414,,,,,0.5297435242360479,1907,1693,1,0.95,BLACK,BLACK,True,0,0.0012000000424450263,BLACK,True,CORRECT,0.5860420000008162,586.0420000008162
4,20260325_121644,D,J,False,AUTOMATION1,2,411,711,fixed_delta,0.04274353132498164,0.014104974879815414,,,,,0.5296091115652396,1907,1693,1,0.95,BLACK,BLACK,True,0,0.0011000010999850929,BLACK,True,CORRECT,0.7065944999994827,706.5944999994827
4,20260325_121644,D,J,False,AUTOMATION1,2,412,712,fixed_delta,0.04274353132498164,0.014104974879815414,,,,,0.5363288365535139,1931,1669,1,0.95,BLACK,BLACK,True,0,0.0009999985195463523,BLACK,True,CORRECT,0.6033643999999185,603.3643999999185
4,20260325_121644,D,J,False,AUTOMATION1,2,413,713,fixed_delta,0.04274353132498164,0.014104974879815414,,,,,0.4576872687334137,1648,1952,1,0.95,WHITE,WHITE,True,0,0.0013000008038943633,WHITE,True,CORRECT,1.155528499999491,1155.528499999491
