participant_id,run_timestamp,key_black,key_white,keymap_flip,block,block_idx,trial,global_trial,difficulty_mode,delta_fixed_mean,delta_fixed_sd,delta_stair_realised,delta_stair_mean,delta_step_down_used,delta_step_up_used,vblack_prop,n_vblack,n_vwhite,auto_on,aid_accuracy_setting,stimulus,aid_label,aid_correct,aid_onset_ms,aid_onset_ms_rel,response,correct,feedback,rt_s,rt_ms
6,20260325_140431,D,J,False,AUTOMATION2,2,1,301,fixed_delta,0.04169584712997743,0.012883078076194597,,,,,0.5347004812081045,1925,1675,1,0.65,BLACK,BLACK,True,0,0.0032000025385059416,BLACK,True,CORRECT,1.7121028000001388,1712.1028000001388
6,20260325_140431,D,J,False,AUTOMATION2,2,2,302,fixed_delta,0.04169584712997743,0.012883078076194597,,,,,0.4538741047086349,1634,1966,1,0.65,WHITE,WHITE,True,0,0.0017999991541728377,WHITE,True,CORRECT,0.6326880999986315,632.6880999986315
6,20260325_140431,D,J,False,AUTOMATION2,2,3,303,fixed_delta,0.04169584712997743,0.012883078076194597,,,,,0.4573850531798838,1647,1953,1,0.65,WHITE,BLACK,False,0,0.0013999997463542968,WHITE,True,CORRECT,1.9362599000014598,1936.2599000014598
6,20260325_140431,D,J,False,AUTOMATION2,2,4,304,fixed_delta,0.04169584712997743,0.012883078076194597,,,,,0.45916912257620257,1653,1947,1,0.65,WHITE,BLACK,False,0,0.0011999982234556228,WHITE,True,CORRECT,2.960113999997702,2960.113999997702
6,20260325_140431,D,J,False,AUTOMATION2,2,5,305,fixed_delta,0.04169584712997743,0.012883078076194597,,,,,0.5173754575285923,1863,1737,1,0.65,BLACK,BLACK,True,0,0.016400001186411828,BLACK,True,CORRECT,1.0376284000012674,1037.6284000012674
6,20260325_140431,D,J,False,AUTOMATION2,2,6,306,fixed_delta,0.04169584712997743,0.012883078076194597,,,,,0.5376668097468448,1936,1664,1,0.65,BLACK,BLACK,True,0,0.0015999976312741637,BLACK,True,CORRECT,0.9247912999999244,924.7912999999244
6,20260325_140431,D,J,False,AUTOMATION2,2,7,307,fixed_delta,0.04169584712997743,0.012883078076194597,,,,,0.4601409152796687,1657,1943,1,0.65,WHITE,WHITE,True,0,0.0016000012692529708,WHITE,True,CORRECT,0.8098241000006965,809.8241000006965
6,20260325_140431,D,J,False,AUTOMATION2,2,8,308,fixed_delta,0.04169584712997743,0.012883078076194597,,,,,0.453255148029712,1632,1968,1,0.65,WHITE,WHITE,True,0,0.0016000012692529708,WHITE,True,CORRECT,0.76197559999855,761.97559999855
6,20260325_140431,D,J,False,AUTOMATION2,2,9,309,fixed_delta,0.04169584712997743,0.012883078076194597,,,,,0.5280723939916865,1901,1699,1,0.65,BLACK,BLACK,True,0,0.0011000010999850929,BLACK,True,CORRECT,1.8747780000012426,1874.7780000012426
6,20260325_140431,D,J,False,AUTOMATION2,2,10,310,fixed_delta,0.04169584712997743,0.012883078076194597,,,,,0.46229118790771456,1664,1936,1,0.65,WHITE,WHITE,True,0,0.0012999989849049598,WHITE,True,CORRECT,1.2358196999994107,1235.8196999994107
6,20260325_140431,D,J,False,AUTOMATION2,2,11,311,fixed_delta,0.04169584712997743,0.012883078076194597,,,,,0.4576744164308236,1648,1952,1,0.65,WHITE,WHITE,True,0,0.0013999997463542968,WHITE,True,CORRECT,2.0187230999981693,2018.7230999981693
6,20260325_140431,D,J,False,AUTOMATION2,2,12,312,fixed_delta,0.04169584712997743,0.012883078076194597,,,,,0.5451582288572836,1963,1637,1,0.65,BLACK,BLACK,True,0,0.0016999983927235007,BLACK,True,CORRECT,0.7500013999997464,750.0013999997464
6,20260325_140431,D,J,False,AUTOMATION2,2,13,313,fixed_delta,0.04169584712997743,0.012883078076194597,,,,,0.45522266878391693,1639,1961,1,0.65,WHITE,WHITE,True,0,0.0015999976312741637,WHITE,True,CORRECT,1.3360993999995117,1336.0993999995117
6,20260325_140431,D,J,False,AUTOMATION2,2,14,314,fixed_delta,0.04169584712997743,0.012883078076194597,,,,,0.5435720830897732,1957,1643,1,0.65,BLACK,BLACK,True,0,0.0017000020307023078,WHITE,False,INCORRECT,5.06849350000266,5068.49350000266
6,20260325_140431,D,J,False,AUTOMATION2,2,15,315,fixed_delta,0.04169584712997743,0.012883078076194597,,,,,0.4489244605185183,1616,1984,1,0.65,WHITE,WHITE,True,0,0.0012999989849049598,WHITE,True,CORRECT,0.7934577999985777,793.4577999985777
6,20260325_140431,D,J,False,AUTOMATION2,2,16,316,fixed_delta,0.04169584712997743,0.012883078076194597,,,,,0.5639538447263208,2030,1570,1,0.65,BLACK,WHITE,False,0,0.0012999989849049598,WHITE,False,INCORRECT,1.7864254000014625,1786.4254000014625
6,20260325_140431,D,J,False,AUTOMATION2,2,17,317,fixed_delta,0.04169584712997743,0.012883078076194597,,,,,0.44404185698241355,1599,2001,1,0.65,WHITE,WHITE,True,0,0.0013999997463542968,WHITE,True,CORRECT,0.941142799998488,941.142799998488
6,20260325_140431,D,J,False,AUTOMATION2,2,18,318,fixed_delta,0.04169584712997743,0.012883078076194597,,,,,0.4362031047331444,1570,2030,1,0.65,WHITE,WHITE,True,0,0.0016999983927235007,WHITE,True,CORRECT,1.021806500000821,1021.806500000821
6,20260325_140431,D,J,False,AUTOMATION2,2,19,319,fixed_delta,0.04169584712997743,0.012883078076194597,,,,,0.5643809333300276,2032,1568,1,0.65,BLACK,WHITE,False,0,0.0012000018614344299,BLACK,True,CORRECT,1.0716425999999046,1071.6425999999046
6,20260325_140431,D,J,False,AUTOMATION2,2,20,320,fixed_delta,0.04169584712997743,0.012883078076194597,,,,,0.46814133847577194,1685,1915,1,0.65,WHITE,BLACK,False,0,0.0015000005078036338,WHITE,True,CORRECT,1.8754258000008122,1875.4258000008122
6,20260325_140431,D,J,False,AUTOMATION2,2,21,321,fixed_delta,0.04169584712997743,0.012883078076194597,,,,,0.4375510996460995,1575,2025,1,0.65,WHITE,WHITE,True,0,0.0013999997463542968,WHITE,True,CORRECT,0.6534591999989061,653.4591999989061
6,20260325_140431,D,J,False,AUTOMATION2,2,22,322,fixed_delta,0.04169584712997743,0.012883078076194597,,,,,0.5442825297960688,1959,1641,1,0.65,BLACK,WHITE,False,0,0.0013999997463542968,BLACK,True,CORRECT,0.7635083999994094,763.5083999994094
6,20260325_140431,D,J,False,AUTOMATION2,2,23,323,fixed_delta,0.04169584712997743,0.012883078076194597,,,,,0.4741894633846735,1707,1893,1,0.65,WHITE,WHITE,True,0,0.0012999989849049598,BLACK,False,INCORRECT,1.987617599999794,1987.617599999794
6,20260325_140431,D,J,False,AUTOMATION2,2,24,324,fixed_delta,0.04169584712997743,0.012883078076194597,,,,,0.4414085826800476,1589,2011,1,0.65,WHITE,WHITE,True,0,0.0014999968698248267,WHITE,True,CORRECT,0.7147563999969861,714.7563999969861
6,20260325_140431,D,J,False,AUTOMATION2,2,25,325,fixed_delta,0.04169584712997743,0.012883078076194597,,,,,0.46450810723920277,1672,1928,1,0.65,WHITE,WHITE,True,0,0.0013999997463542968,WHITE,True,CORRECT,3.447069999998348,3447.069999998348
6,20260325_140431,D,J,False,AUTOMATION2,2,26,326,fixed_delta,0.04169584712997743,0.012883078076194597,,,,,0.5456516025274312,1964,1636,1,0.65,BLACK,WHITE,False,0,0.0015000005078036338,BLACK,True,CORRECT,0.9320250000018859,932.0250000018859
6,20260325_140431,D,J,False,AUTOMATION2,2,27,327,fixed_delta,0.04169584712997743,0.012883078076194597,,,,,0.4511420072339565,1624,1976,1,0.65,WHITE,WHITE,True,0,0.0016999983927235007,WHITE,True,CORRECT,0.8559304999980668,855.9304999980668
6,20260325_140431,D,J,False,AUTOMATION2,2,28,328,fixed_delta,0.04169584712997743,0.012883078076194597,,,,,0.5269870170162042,1897,1703,1,0.65,BLACK,BLACK,True,0,0.0016000012692529708,BLACK,True,CORRECT,0.7670395000022836,767.0395000022836
6,20260325_140431,D,J,False,AUTOMATION2,2,29,329,fixed_delta,0.04169584712997743,0.012883078076194597,,,,,0.5359980821203109,1930,1670,1,0.65,BLACK,WHITE,False,0,0.0013999997463542968,BLACK,True,CORRECT,1.9990474000005634,1999.0474000005634
6,20260325_140431,D,J,False,AUTOMATION2,2,30,330,fixed_delta,0.04169584712997743,0.012883078076194597,,,,,0.44639544380985635,1607,1993,1,0.65,WHITE,WHITE,True,0,0.0011999982234556228,WHITE,True,CORRECT,1.0285602999974799,1028.56029999748
6,20260325_140431,D,J,False,AUTOMATION2,2,31,331,fixed_delta,0.04169584712997743,0.012883078076194597,,,,,0.5473665088057178,1971,1629,1,0.65,BLACK,WHITE,False,0,0.0013999997463542968,BLACK,True,CORRECT,1.00135070000033,1001.3507000003301
6,20260325_140431,D,J,False,AUTOMATION2,2,32,332,fixed_delta,0.04169584712997743,0.012883078076194597,,,,,0.5421012640153394,1952,1648,1,0.65,BLACK,BLACK,True,0,0.0012000018614344299,BLACK,True,CORRECT,0.5799404000026698,579.9404000026698
6,20260325_140431,D,J,False,AUTOMATION2,2,33,333,fixed_delta,0.04169584712997743,0.012883078076194597,,,,,0.4807093738797254,1731,1869,1,0.65,WHITE,WHITE,True,0,0.0015000005078036338,WHITE,True,CORRECT,0.5205573999992339,520.5573999992339
6,20260325_140431,D,J,False,AUTOMATION2,2,34,334,fixed_delta,0.04169584712997743,0.012883078076194597,,,,,0.5334615389175255,1920,1680,1,0.65,BLACK,WHITE,False,0,0.0013999997463542968,BLACK,True,CORRECT,0.6245725999979186,624.5725999979186
6,20260325_140431,D,J,False,AUTOMATION2,2,35,335,fixed_delta,0.04169584712997743,0.012883078076194597,,,,,0.47272684151553546,1702,1898,1,0.65,WHITE,WHITE,True,0,0.0013999997463542968,WHITE,True,CORRECT,0.6262528999977803,626.2528999977803
6,20260325_140431,D,J,False,AUTOMATION2,2,36,336,fixed_delta,0.04169584712997743,0.012883078076194597,,,,,0.5549427492143214,1998,1602,1,0.65,BLACK,BLACK,True,0,0.0012999989849049598,BLACK,True,CORRECT,0.5193332999988343,519.3332999988343
6,20260325_140431,D,J,False,AUTOMATION2,2,37,337,fixed_delta,0.04169584712997743,0.012883078076194597,,,,,0.5456802947857171,1964,1636,1,0.65,BLACK,BLACK,True,0,0.0013999997463542968,BLACK,True,CORRECT,0.5526814000004379,552.6814000004379
6,20260325_140431,D,J,False,AUTOMATION2,2,38,338,fixed_delta,0.04169584712997743,0.012883078076194597,,,,,0.529010926269022,1904,1696,1,0.65,BLACK,BLACK,True,0,0.0016000012692529708,BLACK,True,CORRECT,0.823161500000424,823.161500000424
6,20260325_140431,D,J,False,AUTOMATION2,2,39,339,fixed_delta,0.04169584712997743,0.012883078076194597,,,,,0.4928976629877221,1774,1826,1,0.65,WHITE,WHITE,True,0,0.0015000005078036338,WHITE,True,CORRECT,0.5256565000017872,525.6565000017872
6,20260325_140431,D,J,False,AUTOMATION2,2,40,340,fixed_delta,0.04169584712997743,0.012883078076194597,,,,,0.5277974669603773,1900,1700,1,0.65,BLACK,BLACK,True,0,0.0018999999156221747,BLACK,True,CORRECT,0.7076844000002893,707.6844000002893
6,20260325_140431,D,J,False,AUTOMATION2,2,41,341,fixed_delta,0.04169584712997743,0.012883078076194597,,,,,0.43801215699927765,1577,2023,1,0.65,WHITE,WHITE,True,0,0.0012999989849049598,WHITE,True,CORRECT,0.6030949000014516,603.0949000014516
6,20260325_140431,D,J,False,AUTOMATION2,2,42,342,fixed_delta,0.04169584712997743,0.012883078076194597,,,,,0.46378743649766224,1670,1930,1,0.65,WHITE,WHITE,True,0,0.0010999974620062858,WHITE,True,CORRECT,2.858320100000128,2858.320100000128
6,20260325_140431,D,J,False,AUTOMATION2,2,43,343,fixed_delta,0.04169584712997743,0.012883078076194597,,,,,0.5299932518614364,1908,1692,1,0.65,BLACK,BLACK,True,0,0.0015000005078036338,WHITE,False,INCORRECT,0.9758159999983036,975.8159999983036
6,20260325_140431,D,J,False,AUTOMATION2,2,44,344,fixed_delta,0.04169584712997743,0.012883078076194597,,,,,0.5482799589296543,1974,1626,1,0.65,BLACK,WHITE,False,0,0.0015000005078036338,WHITE,False,INCORRECT,0.7829430999991018,782.9430999991018
6,20260325_140431,D,J,False,AUTOMATION2,2,45,345,fixed_delta,0.04169584712997743,0.012883078076194597,,,,,0.5463201177829727,1967,1633,1,0.65,BLACK,BLACK,True,0,0.0013999997463542968,BLACK,True,CORRECT,2.740132899998571,2740.132899998571
6,20260325_140431,D,J,False,AUTOMATION2,2,46,346,fixed_delta,0.04169584712997743,0.012883078076194597,,,,,0.44757060977857,1611,1989,1,0.65,WHITE,BLACK,False,0,0.0015000005078036338,WHITE,True,CORRECT,0.7366270999991684,736.6270999991684
6,20260325_140431,D,J,False,AUTOMATION2,2,47,347,fixed_delta,0.04169584712997743,0.012883078076194597,,,,,0.46044414843832965,1658,1942,1,0.65,WHITE,BLACK,False,0,0.0013000026228837669,WHITE,True,CORRECT,1.091392199999973,1091.392199999973
6,20260325_140431,D,J,False,AUTOMATION2,2,48,348,fixed_delta,0.04169584712997743,0.012883078076194597,,,,,0.46014501889382603,1657,1943,1,0.65,WHITE,WHITE,True,0,0.0013999997463542968,WHITE,True,CORRECT,0.8579294999981357,857.9294999981357
6,20260325_140431,D,J,False,AUTOMATION2,2,49,349,fixed_delta,0.04169584712997743,0.012883078076194597,,,,,0.4613614449182902,1661,1939,1,0.65,WHITE,WHITE,True,0,0.0017999991541728377,WHITE,True,CORRECT,0.762590000002092,762.590000002092
6,20260325_140431,D,J,False,AUTOMATION2,2,50,350,fixed_delta,0.04169584712997743,0.012883078076194597,,,,,0.4617523198247957,1662,1938,1,0.65,WHITE,WHITE,True,0,0.0013000026228837669,WHITE,True,CORRECT,0.7104524000023957,710.4524000023957
6,20260325_140431,D,J,False,AUTOMATION2,2,51,351,fixed_delta,0.04169584712997743,0.012883078076194597,,,,,0.4405888750623556,1586,2014,1,0.65,WHITE,WHITE,True,0,0.0017999991541728377,WHITE,True,CORRECT,0.5817061999987345,581.7061999987345
6,20260325_140431,D,J,False,AUTOMATION2,2,52,352,fixed_delta,0.04169584712997743,0.012883078076194597,,,,,0.5433674698401442,1956,1644,1,0.65,BLACK,BLACK,True,0,0.0017999991541728377,BLACK,True,CORRECT,1.6825088999976288,1682.5088999976288
6,20260325_140431,D,J,False,AUTOMATION2,2,53,353,fixed_delta,0.04169584712997743,0.012883078076194597,,,,,0.5272283070479812,1898,1702,1,0.65,BLACK,WHITE,False,0,0.0011000010999850929,WHITE,False,INCORRECT,0.9990857000011601,999.0857000011601
6,20260325_140431,D,J,False,AUTOMATION2,2,54,354,fixed_delta,0.04169584712997743,0.012883078076194597,,,,,0.5343706287544627,1924,1676,1,0.65,BLACK,BLACK,True,0,0.0017000020307023078,BLACK,True,CORRECT,1.4656512000001385,1465.6512000001385
6,20260325_140431,D,J,False,AUTOMATION2,2,55,355,fixed_delta,0.04169584712997743,0.012883078076194597,,,,,0.4497895471419262,1619,1981,1,0.65,WHITE,WHITE,True,0,0.0022999993234407157,WHITE,True,CORRECT,0.789934299999004,789.934299999004
6,20260325_140431,D,J,False,AUTOMATION2,2,56,356,fixed_delta,0.04169584712997743,0.012883078076194597,,,,,0.45957979000743326,1654,1946,1,0.65,WHITE,BLACK,False,0,0.0021999985619913787,WHITE,True,CORRECT,3.065934499998548,3065.934499998548
6,20260325_140431,D,J,False,AUTOMATION2,2,57,357,fixed_delta,0.04169584712997743,0.012883078076194597,,,,,0.45237055037101914,1629,1971,1,0.65,WHITE,BLACK,False,0,0.0018999999156221747,BLACK,False,INCORRECT,1.226457400000072,1226.457400000072
6,20260325_140431,D,J,False,AUTOMATION2,2,58,358,fixed_delta,0.04169584712997743,0.012883078076194597,,,,,0.44953918939120097,1618,1982,1,0.65,WHITE,WHITE,True,0,0.0022999993234407157,WHITE,True,CORRECT,0.7719790999981342,771.9790999981342
6,20260325_140431,D,J,False,AUTOMATION2,2,59,359,fixed_delta,0.04169584712997743,0.012883078076194597,,,,,0.44798147799341453,1613,1987,1,0.65,WHITE,WHITE,True,0,0.0011000010999850929,WHITE,True,CORRECT,1.033554900001036,1033.554900001036
6,20260325_140431,D,J,False,AUTOMATION2,2,60,360,fixed_delta,0.04169584712997743,0.012883078076194597,,,,,0.46447467929072883,1672,1928,1,0.65,WHITE,WHITE,True,0,0.0015000005078036338,WHITE,True,CORRECT,0.9175285999990592,917.5285999990592
6,20260325_140431,D,J,False,AUTOMATION2,2,61,361,fixed_delta,0.04169584712997743,0.012883078076194597,,,,,0.525971173051733,1893,1707,1,0.65,BLACK,WHITE,False,0,0.0011000010999850929,BLACK,True,CORRECT,2.042721800000436,2042.721800000436
6,20260325_140431,D,J,False,AUTOMATION2,2,62,362,fixed_delta,0.04169584712997743,0.012883078076194597,,,,,0.46263729499199835,1665,1935,1,0.65,WHITE,WHITE,True,0,0.0012999989849049598,WHITE,True,CORRECT,0.678551699998934,678.551699998934
6,20260325_140431,D,J,False,AUTOMATION2,2,63,363,fixed_delta,0.04169584712997743,0.012883078076194597,,,,,0.46089572096161535,1659,1941,1,0.65,WHITE,WHITE,True,0,0.0012999989849049598,WHITE,True,CORRECT,0.7403276000004553,740.3276000004553
6,20260325_140431,D,J,False,AUTOMATION2,2,64,364,fixed_delta,0.04169584712997743,0.012883078076194597,,,,,0.5216717763735864,1878,1722,1,0.65,BLACK,WHITE,False,0,0.0013999997463542968,WHITE,False,INCORRECT,1.0873271000018576,1087.3271000018576
6,20260325_140431,D,J,False,AUTOMATION2,2,65,365,fixed_delta,0.04169584712997743,0.012883078076194597,,,,,0.5286858421759281,1903,1697,1,0.65,BLACK,BLACK,True,0,0.0017999991541728377,BLACK,True,CORRECT,0.877084299998387,877.084299998387
6,20260325_140431,D,J,False,AUTOMATION2,2,66,366,fixed_delta,0.04169584712997743,0.012883078076194597,,,,,0.4676897527596757,1684,1916,1,0.65,WHITE,WHITE,True,0,0.0015000005078036338,WHITE,True,CORRECT,0.8611851999994542,861.1851999994542
6,20260325_140431,D,J,False,AUTOMATION2,2,67,367,fixed_delta,0.04169584712997743,0.012883078076194597,,,,,0.45181655019795364,1627,1973,1,0.65,WHITE,WHITE,True,0,0.0012999989849049598,WHITE,True,CORRECT,0.8205162000012933,820.5162000012933
6,20260325_140431,D,J,False,AUTOMATION2,2,68,368,fixed_delta,0.04169584712997743,0.012883078076194597,,,,,0.52421601149051,1887,1713,1,0.65,BLACK,BLACK,True,0,0.001400003384333104,BLACK,True,CORRECT,1.4572084000028553,1457.2084000028553
6,20260325_140431,D,J,False,AUTOMATION2,2,69,369,fixed_delta,0.04169584712997743,0.012883078076194597,,,,,0.5080323643124578,1829,1771,1,0.65,BLACK,BLACK,True,0,0.0018000027921516448,BLACK,True,CORRECT,1.3967597000009846,1396.7597000009846
6,20260325_140431,D,J,False,AUTOMATION2,2,70,370,fixed_delta,0.04169584712997743,0.012883078076194597,,,,,0.4413611234679327,1589,2011,1,0.65,WHITE,BLACK,False,0,0.0012999989849049598,WHITE,True,CORRECT,0.7712819999978819,771.2819999978819
6,20260325_140431,D,J,False,AUTOMATION2,2,71,371,fixed_delta,0.04169584712997743,0.012883078076194597,,,,,0.536970779724421,1933,1667,1,0.65,BLACK,BLACK,True,0,0.0012999989849049598,BLACK,True,CORRECT,1.1640995000016119,1164.099500001612
6,20260325_140431,D,J,False,AUTOMATION2,2,72,372,fixed_delta,0.04169584712997743,0.012883078076194597,,,,,0.5363597634751056,1931,1669,1,0.65,BLACK,WHITE,False,0,0.0015000005078036338,WHITE,False,INCORRECT,0.7057714000002306,705.7714000002306
6,20260325_140431,D,J,False,AUTOMATION2,2,73,373,fixed_delta,0.04169584712997743,0.012883078076194597,,,,,0.4533336192975247,1632,1968,1,0.65,WHITE,WHITE,True,0,0.0014999968698248267,WHITE,True,CORRECT,1.5009424999989278,1500.9424999989278
6,20260325_140431,D,J,False,AUTOMATION2,2,74,374,fixed_delta,0.04169584712997743,0.012883078076194597,,,,,0.48204720983239224,1735,1865,1,0.65,WHITE,WHITE,True,0,0.0016000012692529708,BLACK,False,INCORRECT,1.3968438000010792,1396.8438000010792
6,20260325_140431,D,J,False,AUTOMATION2,2,75,375,fixed_delta,0.04169584712997743,0.012883078076194597,,,,,0.5452171350161215,1963,1637,1,0.65,BLACK,WHITE,False,0,0.0012000018614344299,WHITE,False,INCORRECT,0.737196900001436,737.196900001436
6,20260325_140431,D,J,False,AUTOMATION2,2,76,376,fixed_delta,0.04169584712997743,0.012883078076194597,,,,,0.4730429499626116,1703,1897,1,0.65,WHITE,WHITE,True,0,0.0011999982234556228,WHITE,True,CORRECT,0.7308402999988175,730.8402999988175
6,20260325_140431,D,J,False,AUTOMATION2,2,77,377,fixed_delta,0.04169584712997743,0.012883078076194597,,,,,0.5387465114527732,1939,1661,1,0.65,BLACK,BLACK,True,0,0.0016000012692529708,BLACK,True,CORRECT,0.8130168999996386,813.0168999996386
6,20260325_140431,D,J,False,AUTOMATION2,2,78,378,fixed_delta,0.04169584712997743,0.012883078076194597,,,,,0.5454000832476114,1963,1637,1,0.65,BLACK,BLACK,True,0,0.0013999997463542968,BLACK,True,CORRECT,1.0129983999977412,1012.9983999977412
6,20260325_140431,D,J,False,AUTOMATION2,2,79,379,fixed_delta,0.04169584712997743,0.012883078076194597,,,,,0.4585977634355645,1651,1949,1,0.65,WHITE,WHITE,True,0,0.0015000005078036338,WHITE,True,CORRECT,1.2941733000006934,1294.1733000006934
6,20260325_140431,D,J,False,AUTOMATION2,2,80,380,fixed_delta,0.04169584712997743,0.012883078076194597,,,,,0.4647744210907258,1673,1927,1,0.65,WHITE,WHITE,True,0,0.0013999997463542968,WHITE,True,CORRECT,0.7454184999987774,745.4184999987774
6,20260325_140431,D,J,False,AUTOMATION2,2,81,381,fixed_delta,0.04169584712997743,0.012883078076194597,,,,,0.4509318922824928,1623,1977,1,0.65,WHITE,WHITE,True,0,0.0013999997463542968,WHITE,True,CORRECT,0.9977103999990504,997.7103999990504
6,20260325_140431,D,J,False,AUTOMATION2,2,82,382,fixed_delta,0.04169584712997743,0.012883078076194597,,,,,0.523309757311942,1884,1716,1,0.65,BLACK,BLACK,True,0,0.0018999999156221747,BLACK,True,CORRECT,0.5421284000003652,542.1284000003652
6,20260325_140431,D,J,False,AUTOMATION2,2,83,383,fixed_delta,0.04169584712997743,0.012883078076194597,,,,,0.5732858816440222,2064,1536,1,0.65,BLACK,BLACK,True,0,0.0013999997463542968,BLACK,True,CORRECT,1.02047279999897,1020.47279999897
6,20260325_140431,D,J,False,AUTOMATION2,2,84,384,fixed_delta,0.04169584712997743,0.012883078076194597,,,,,0.5601923489881274,2017,1583,1,0.65,BLACK,BLACK,True,0,0.0015999976312741637,WHITE,False,INCORRECT,1.095617899998615,1095.617899998615
6,20260325_140431,D,J,False,AUTOMATION2,2,85,385,fixed_delta,0.04169584712997743,0.012883078076194597,,,,,0.45832041440282106,1650,1950,1,0.65,WHITE,WHITE,True,0,0.0013999997463542968,WHITE,True,CORRECT,0.7552853999986837,755.2853999986837
6,20260325_140431,D,J,False,AUTOMATION2,2,86,386,fixed_delta,0.04169584712997743,0.012883078076194597,,,,,0.526402837007407,1895,1705,1,0.65,BLACK,BLACK,True,0,0.0016000012692529708,BLACK,True,CORRECT,1.31099660000109,1310.99660000109
6,20260325_140431,D,J,False,AUTOMATION2,2,87,387,fixed_delta,0.04169584712997743,0.012883078076194597,,,,,0.45458403202124376,1637,1963,1,0.65,WHITE,WHITE,True,0,0.0017999991541728377,WHITE,True,CORRECT,0.8562892999980249,856.289299998025
6,20260325_140431,D,J,False,AUTOMATION2,2,88,388,fixed_delta,0.04169584712997743,0.012883078076194597,,,,,0.4618228750507354,1663,1937,1,0.65,WHITE,WHITE,True,0,0.0011999982234556228,WHITE,True,CORRECT,0.851428499998292,851.428499998292
6,20260325_140431,D,J,False,AUTOMATION2,2,89,389,fixed_delta,0.04169584712997743,0.012883078076194597,,,,,0.44342912095204895,1596,2004,1,0.65,WHITE,BLACK,False,0,0.0012999989849049598,WHITE,True,CORRECT,0.6217333999993571,621.7333999993571
6,20260325_140431,D,J,False,AUTOMATION2,2,90,390,fixed_delta,0.04169584712997743,0.012883078076194597,,,,,0.5379918080446633,1937,1663,1,0.65,BLACK,BLACK,True,0,0.0015000005078036338,BLACK,True,CORRECT,0.900510999999824,900.510999999824
6,20260325_140431,D,J,False,AUTOMATION2,2,91,391,fixed_delta,0.04169584712997743,0.012883078076194597,,,,,0.5552162984722336,1999,1601,1,0.65,BLACK,BLACK,True,0,0.0013999997463542968,BLACK,True,CORRECT,0.7997953000012785,799.7953000012785
6,20260325_140431,D,J,False,AUTOMATION2,2,92,392,fixed_delta,0.04169584712997743,0.012883078076194597,,,,,0.5512653755930923,1985,1615,1,0.65,BLACK,BLACK,True,0,0.0011000010999850929,BLACK,True,CORRECT,1.2293246000008367,1229.3246000008367
6,20260325_140431,D,J,False,AUTOMATION2,2,93,393,fixed_delta,0.04169584712997743,0.012883078076194597,,,,,0.4720207269367655,1699,1901,1,0.65,WHITE,WHITE,True,0,0.0011999982234556228,WHITE,True,CORRECT,0.9244600999991235,924.4600999991235
6,20260325_140431,D,J,False,AUTOMATION2,2,94,394,fixed_delta,0.04169584712997743,0.012883078076194597,,,,,0.4472066042630247,1610,1990,1,0.65,WHITE,WHITE,True,0,0.0012000018614344299,WHITE,True,CORRECT,0.8286007000024256,828.6007000024256
6,20260325_140431,D,J,False,AUTOMATION2,2,95,395,fixed_delta,0.04169584712997743,0.012883078076194597,,,,,0.5423421540000819,1952,1648,1,0.65,BLACK,BLACK,True,0,0.0016999983927235007,BLACK,True,CORRECT,0.8027194999995118,802.7194999995118
6,20260325_140431,D,J,False,AUTOMATION2,2,96,396,fixed_delta,0.04169584712997743,0.012883078076194597,,,,,0.45039705329475116,1621,1979,1,0.65,WHITE,WHITE,True,0,0.0012999989849049598,WHITE,True,CORRECT,0.5997884999997041,599.7884999997041
6,20260325_140431,D,J,False,AUTOMATION2,2,97,397,fixed_delta,0.04169584712997743,0.012883078076194597,,,,,0.5410155053951878,1948,1652,1,0.65,BLACK,WHITE,False,0,0.0015000005078036338,BLACK,True,CORRECT,0.8359345999997458,835.9345999997458
6,20260325_140431,D,J,False,AUTOMATION2,2,98,398,fixed_delta,0.04169584712997743,0.012883078076194597,,,,,0.44671437828678406,1608,1992,1,0.65,WHITE,BLACK,False,0,0.0017999991541728377,WHITE,True,CORRECT,0.7918751999968663,791.8751999968663
6,20260325_140431,D,J,False,AUTOMATION2,2,99,399,fixed_delta,0.04169584712997743,0.012883078076194597,,,,,0.4566009262025367,1644,1956,1,0.65,WHITE,BLACK,False,0,0.0012999989849049598,WHITE,True,CORRECT,0.6692322999988392,669.2322999988392
6,20260325_140431,D,J,False,AUTOMATION2,2,100,400,fixed_delta,0.04169584712997743,0.012883078076194597,,,,,0.45305761486542095,1631,1969,1,0.65,WHITE,WHITE,True,0,0.0013000026228837669,WHITE,True,CORRECT,0.5146150000000489,514.6150000000489
6,20260325_140431,D,J,False,AUTOMATION2,2,101,401,fixed_delta,0.04169584712997743,0.012883078076194597,,,,,0.5295302552343273,1906,1694,1,0.65,BLACK,BLACK,True,0,0.0012999989849049598,WHITE,False,INCORRECT,0.5890325000000303,589.0325000000303
6,20260325_140431,D,J,False,AUTOMATION2,2,102,402,fixed_delta,0.04169584712997743,0.012883078076194597,,,,,0.45859929456429366,1651,1949,1,0.65,WHITE,WHITE,True,0,0.0011999982234556228,WHITE,True,CORRECT,0.6049807999988843,604.9807999988843
6,20260325_140431,D,J,False,AUTOMATION2,2,103,403,fixed_delta,0.04169584712997743,0.012883078076194597,,,,,0.45610070685968385,1642,1958,1,0.65,WHITE,WHITE,True,0,0.0017000020307023078,WHITE,True,CORRECT,0.5723464000002423,572.3464000002423
6,20260325_140431,D,J,False,AUTOMATION2,2,104,404,fixed_delta,0.04169584712997743,0.012883078076194597,,,,,0.45795879498948333,1649,1951,1,0.65,WHITE,WHITE,True,0,0.0016999983927235007,WHITE,True,CORRECT,0.6557704999977432,655.7704999977432
6,20260325_140431,D,J,False,AUTOMATION2,2,105,405,fixed_delta,0.04169584712997743,0.012883078076194597,,,,,0.4626992634522013,1666,1934,1,0.65,WHITE,WHITE,True,0,0.0013999997463542968,WHITE,True,CORRECT,0.7755299999989802,775.5299999989802
6,20260325_140431,D,J,False,AUTOMATION2,2,106,406,fixed_delta,0.04169584712997743,0.012883078076194597,,,,,0.5627025079744947,2026,1574,1,0.65,BLACK,WHITE,False,0,0.0017000020307023078,BLACK,True,CORRECT,0.5875327000030666,587.5327000030666
6,20260325_140431,D,J,False,AUTOMATION2,2,107,407,fixed_delta,0.04169584712997743,0.012883078076194597,,,,,0.479985903989949,1728,1872,1,0.65,WHITE,WHITE,True,0,0.0016000012692529708,WHITE,True,CORRECT,1.4930758000009519,1493.0758000009519
6,20260325_140431,D,J,False,AUTOMATION2,2,108,408,fixed_delta,0.04169584712997743,0.012883078076194597,,,,,0.5267072023728709,1896,1704,1,0.65,BLACK,BLACK,True,0,0.0013999997463542968,BLACK,True,CORRECT,1.246400200001517,1246.400200001517
6,20260325_140431,D,J,False,AUTOMATION2,2,109,409,fixed_delta,0.04169584712997743,0.012883078076194597,,,,,0.5597957717881004,2015,1585,1,0.65,BLACK,BLACK,True,0,0.0016999983927235007,BLACK,True,CORRECT,0.7151064999998198,715.1064999998198
6,20260325_140431,D,J,False,AUTOMATION2,2,110,410,fixed_delta,0.04169584712997743,0.012883078076194597,,,,,0.4459323337188891,1605,1995,1,0.65,WHITE,BLACK,False,0,0.001400003384333104,WHITE,True,CORRECT,0.6582799000025261,658.2799000025261
6,20260325_140431,D,J,False,AUTOMATION2,2,111,411,fixed_delta,0.04169584712997743,0.012883078076194597,,,,,0.47822841537687444,1722,1878,1,0.65,WHITE,WHITE,True,0,0.0016000012692529708,WHITE,True,CORRECT,2.1504104000014195,2150.4104000014195
6,20260325_140431,D,J,False,AUTOMATION2,2,112,412,fixed_delta,0.04169584712997743,0.012883078076194597,,,,,0.4754216771605574,1712,1888,1,0.65,WHITE,WHITE,True,0,0.0016000012692529708,BLACK,False,INCORRECT,1.9843672000024526,1984.3672000024526
6,20260325_140431,D,J,False,AUTOMATION2,2,113,413,fixed_delta,0.04169584712997743,0.012883078076194597,,,,,0.46731151209313204,1682,1918,1,0.65,WHITE,BLACK,False,0,0.0013000026228837669,WHITE,True,CORRECT,0.7540585000024294,754.0585000024294
6,20260325_140431,D,J,False,AUTOMATION2,2,114,414,fixed_delta,0.04169584712997743,0.012883078076194597,,,,,0.5564778470820427,2003,1597,1,0.65,BLACK,WHITE,False,0,0.0013999997463542968,BLACK,True,CORRECT,1.1334528000006685,1133.4528000006685
6,20260325_140431,D,J,False,AUTOMATION2,2,115,415,fixed_delta,0.04169584712997743,0.012883078076194597,,,,,0.46651524850000514,1679,1921,1,0.65,WHITE,WHITE,True,0,0.0013999997463542968,WHITE,True,CORRECT,0.7347918999985268,734.7918999985268
6,20260325_140431,D,J,False,AUTOMATION2,2,116,416,fixed_delta,0.04169584712997743,0.012883078076194597,,,,,0.46723751574859207,1682,1918,1,0.65,WHITE,WHITE,True,0,0.0013000026228837669,WHITE,True,CORRECT,1.1423214999995253,1142.3214999995253
6,20260325_140431,D,J,False,AUTOMATION2,2,117,417,fixed_delta,0.04169584712997743,0.012883078076194597,,,,,0.5528190421772751,1990,1610,1,0.65,BLACK,BLACK,True,0,0.0017000020307023078,BLACK,True,CORRECT,1.4054715999991458,1405.4715999991458
6,20260325_140431,D,J,False,AUTOMATION2,2,118,418,fixed_delta,0.04169584712997743,0.012883078076194597,,,,,0.4521622808696608,1628,1972,1,0.65,WHITE,WHITE,True,0,0.0012999989849049598,WHITE,True,CORRECT,0.6963861000003817,696.3861000003817
6,20260325_140431,D,J,False,AUTOMATION2,2,119,419,fixed_delta,0.04169584712997743,0.012883078076194597,,,,,0.45797759871799815,1649,1951,1,0.65,WHITE,WHITE,True,0,0.015300000086426735,WHITE,True,CORRECT,2.179871100001037,2179.871100001037
6,20260325_140431,D,J,False,AUTOMATION2,2,120,420,fixed_delta,0.04169584712997743,0.012883078076194597,,,,,0.5371325406533197,1934,1666,1,0.65,BLACK,BLACK,True,0,0.0012999989849049598,BLACK,True,CORRECT,3.8441122000003816,3844.1122000003816
6,20260325_140431,D,J,False,AUTOMATION2,2,121,421,fixed_delta,0.04169584712997743,0.012883078076194597,,,,,0.5666078755965628,2040,1560,1,0.65,BLACK,BLACK,True,0,0.0023000029614195228,BLACK,True,CORRECT,1.0750134000008984,1075.0134000008984
6,20260325_140431,D,J,False,AUTOMATION2,2,122,422,fixed_delta,0.04169584712997743,0.012883078076194597,,,,,0.4639398938939134,1670,1930,1,0.65,WHITE,BLACK,False,0,0.0016999983927235007,WHITE,True,CORRECT,1.7819601999981387,1781.9601999981387
6,20260325_140431,D,J,False,AUTOMATION2,2,123,423,fixed_delta,0.04169584712997743,0.012883078076194597,,,,,0.5475311991663471,1971,1629,1,0.65,BLACK,BLACK,True,0,0.0017999991541728377,BLACK,True,CORRECT,0.8166931999985536,816.6931999985536
6,20260325_140431,D,J,False,AUTOMATION2,2,124,424,fixed_delta,0.04169584712997743,0.012883078076194597,,,,,0.5220099848423915,1879,1721,1,0.65,BLACK,BLACK,True,0,0.0013999997463542968,BLACK,True,CORRECT,1.3181368000005023,1318.1368000005023
6,20260325_140431,D,J,False,AUTOMATION2,2,125,425,fixed_delta,0.04169584712997743,0.012883078076194597,,,,,0.5326401483366541,1918,1682,1,0.65,BLACK,BLACK,True,0,0.0015000005078036338,WHITE,False,INCORRECT,1.0139722999992955,1013.9722999992955
6,20260325_140431,D,J,False,AUTOMATION2,2,126,426,fixed_delta,0.04169584712997743,0.012883078076194597,,,,,0.448948175845546,1616,1984,1,0.65,WHITE,WHITE,True,0,0.0013999997463542968,WHITE,True,CORRECT,1.0713351000013063,1071.3351000013063
6,20260325_140431,D,J,False,AUTOMATION2,2,127,427,fixed_delta,0.04169584712997743,0.012883078076194597,,,,,0.5483156042964138,1974,1626,1,0.65,BLACK,BLACK,True,0,0.0015000005078036338,BLACK,True,CORRECT,1.3269306000001961,1326.9306000001961
6,20260325_140431,D,J,False,AUTOMATION2,2,128,428,fixed_delta,0.04169584712997743,0.012883078076194597,,,,,0.5353902632210319,1927,1673,1,0.65,BLACK,WHITE,False,0,0.0013999997463542968,WHITE,False,INCORRECT,4.371862299998611,4371.862299998611
6,20260325_140431,D,J,False,AUTOMATION2,2,129,429,fixed_delta,0.04169584712997743,0.012883078076194597,,,,,0.4632975299129456,1668,1932,1,0.65,WHITE,WHITE,True,0,0.0012999989849049598,WHITE,True,CORRECT,1.0809923999986495,1080.9923999986495
6,20260325_140431,D,J,False,AUTOMATION2,2,130,430,fixed_delta,0.04169584712997743,0.012883078076194597,,,,,0.5408840760927626,1947,1653,1,0.65,BLACK,BLACK,True,0,0.0012999989849049598,BLACK,True,CORRECT,1.2642065999971237,1264.2065999971237
6,20260325_140431,D,J,False,AUTOMATION2,2,131,431,fixed_delta,0.04169584712997743,0.012883078076194597,,,,,0.4418790068107913,1591,2009,1,0.65,WHITE,BLACK,False,0,0.0017999991541728377,WHITE,True,CORRECT,1.5251223999985086,1525.1223999985086
6,20260325_140431,D,J,False,AUTOMATION2,2,132,432,fixed_delta,0.04169584712997743,0.012883078076194597,,,,,0.4792162318157939,1725,1875,1,0.65,WHITE,WHITE,True,0,0.0015000005078036338,WHITE,True,CORRECT,2.072669599998335,2072.669599998335
6,20260325_140431,D,J,False,AUTOMATION2,2,133,433,fixed_delta,0.04169584712997743,0.012883078076194597,,,,,0.4731151572809208,1703,1897,1,0.65,WHITE,WHITE,True,0,0.0013999997463542968,WHITE,True,CORRECT,1.3268324000018765,1326.8324000018765
6,20260325_140431,D,J,False,AUTOMATION2,2,134,434,fixed_delta,0.04169584712997743,0.012883078076194597,,,,,0.46971004384295867,1691,1909,1,0.65,WHITE,WHITE,True,0,0.0014999968698248267,WHITE,True,CORRECT,1.8286557999999786,1828.6557999999786
6,20260325_140431,D,J,False,AUTOMATION2,2,135,435,fixed_delta,0.04169584712997743,0.012883078076194597,,,,,0.5543081779636927,1996,1604,1,0.65,BLACK,BLACK,True,0,0.0013999997463542968,WHITE,False,INCORRECT,1.8482589999985066,1848.2589999985066
6,20260325_140431,D,J,False,AUTOMATION2,2,136,436,fixed_delta,0.04169584712997743,0.012883078076194597,,,,,0.4602817449652936,1657,1943,1,0.65,WHITE,WHITE,True,0,0.0013999997463542968,WHITE,True,CORRECT,1.3448791000009805,1344.8791000009805
6,20260325_140431,D,J,False,AUTOMATION2,2,137,437,fixed_delta,0.04169584712997743,0.012883078076194597,,,,,0.5301500447158397,1909,1691,1,0.65,BLACK,WHITE,False,0,0.0015000005078036338,BLACK,True,CORRECT,1.504367599998659,1504.367599998659
6,20260325_140431,D,J,False,AUTOMATION2,2,138,438,fixed_delta,0.04169584712997743,0.012883078076194597,,,,,0.45627066040331865,1643,1957,1,0.65,WHITE,WHITE,True,0,0.0016999983927235007,WHITE,True,CORRECT,1.6241205999976955,1624.1205999976955
6,20260325_140431,D,J,False,AUTOMATION2,2,139,439,fixed_delta,0.04169584712997743,0.012883078076194597,,,,,0.5405827942731012,1946,1654,1,0.65,BLACK,BLACK,True,0,0.0013999997463542968,BLACK,True,CORRECT,1.2466468999991775,1246.6468999991775
6,20260325_140431,D,J,False,AUTOMATION2,2,140,440,fixed_delta,0.04169584712997743,0.012883078076194597,,,,,0.44769397149941614,1612,1988,1,0.65,WHITE,BLACK,False,0,0.0012999989849049598,WHITE,True,CORRECT,1.1061165999999503,1106.1165999999503
6,20260325_140431,D,J,False,AUTOMATION2,2,141,441,fixed_delta,0.04169584712997743,0.012883078076194597,,,,,0.44321407718265415,1596,2004,1,0.65,WHITE,BLACK,False,0,0.0016000012692529708,BLACK,False,INCORRECT,1.196721600001183,1196.721600001183
6,20260325_140431,D,J,False,AUTOMATION2,2,142,442,fixed_delta,0.04169584712997743,0.012883078076194597,,,,,0.46414862356242376,1671,1929,1,0.65,WHITE,WHITE,True,0,0.0015000005078036338,WHITE,True,CORRECT,0.6946986999973888,694.6986999973888
6,20260325_140431,D,J,False,AUTOMATION2,2,143,443,fixed_delta,0.04169584712997743,0.012883078076194597,,,,,0.54692167245597,1969,1631,1,0.65,BLACK,WHITE,False,0,0.0016000012692529708,BLACK,True,CORRECT,0.8762955000020156,876.2955000020156
6,20260325_140431,D,J,False,AUTOMATION2,2,144,444,fixed_delta,0.04169584712997743,0.012883078076194597,,,,,0.5427012714031011,1954,1646,1,0.65,BLACK,BLACK,True,0,0.0015000005078036338,BLACK,True,CORRECT,0.9112983000013628,911.2983000013628
6,20260325_140431,D,J,False,AUTOMATION2,2,145,445,fixed_delta,0.04169584712997743,0.012883078076194597,,,,,0.4707664122085194,1695,1905,1,0.65,WHITE,BLACK,False,0,0.0016999983927235007,WHITE,True,CORRECT,1.1581921999968472,1158.1921999968472
6,20260325_140431,D,J,False,AUTOMATION2,2,146,446,fixed_delta,0.04169584712997743,0.012883078076194597,,,,,0.4459916000878018,1606,1994,1,0.65,WHITE,WHITE,True,0,0.0012999989849049598,BLACK,False,INCORRECT,1.5308066999969014,1530.8066999969014
6,20260325_140431,D,J,False,AUTOMATION2,2,147,447,fixed_delta,0.04169584712997743,0.012883078076194597,,,,,0.4590808756886415,1653,1947,1,0.65,WHITE,WHITE,True,0,0.0015000005078036338,WHITE,True,CORRECT,0.6997965000009572,699.7965000009572
6,20260325_140431,D,J,False,AUTOMATION2,2,148,448,fixed_delta,0.04169584712997743,0.012883078076194597,,,,,0.4522328374197746,1628,1972,1,0.65,WHITE,WHITE,True,0,0.0021000014385208488,WHITE,True,CORRECT,1.0051596000012069,1005.1596000012069
6,20260325_140431,D,J,False,AUTOMATION2,2,149,449,fixed_delta,0.04169584712997743,0.012883078076194597,,,,,0.485303761048772,1747,1853,1,0.65,WHITE,WHITE,True,0,0.0016999983927235007,WHITE,True,CORRECT,0.8897096999971836,889.7096999971836
6,20260325_140431,D,J,False,AUTOMATION2,2,150,450,fixed_delta,0.04169584712997743,0.012883078076194597,,,,,0.4477213879974977,1612,1988,1,0.65,WHITE,WHITE,True,0,0.0015000005078036338,WHITE,True,CORRECT,0.6792873999984295,679.2873999984295
6,20260325_140431,D,J,False,AUTOMATION2,2,151,451,fixed_delta,0.04169584712997743,0.012883078076194597,,,,,0.5548111275589345,1997,1603,1,0.65,BLACK,BLACK,True,0,0.0012000018614344299,BLACK,True,CORRECT,1.1942277000016475,1194.2277000016475
6,20260325_140431,D,J,False,AUTOMATION2,2,152,452,fixed_delta,0.04169584712997743,0.012883078076194597,,,,,0.5299734158534148,1908,1692,1,0.65,BLACK,BLACK,True,0,0.0012999989849049598,WHITE,False,INCORRECT,3.368087300001207,3368.087300001207
6,20260325_140431,D,J,False,AUTOMATION2,2,153,453,fixed_delta,0.04169584712997743,0.012883078076194597,,,,,0.5344277026174838,1924,1676,1,0.65,BLACK,BLACK,True,0,0.0012000018614344299,BLACK,True,CORRECT,2.5952515000026324,2595.2515000026324
6,20260325_140431,D,J,False,AUTOMATION2,2,154,454,fixed_delta,0.04169584712997743,0.012883078076194597,,,,,0.5647078744336131,2033,1567,1,0.65,BLACK,WHITE,False,0,0.0015000005078036338,BLACK,True,CORRECT,1.291436600000452,1291.436600000452
6,20260325_140431,D,J,False,AUTOMATION2,2,155,455,fixed_delta,0.04169584712997743,0.012883078076194597,,,,,0.5516931112246598,1986,1614,1,0.65,BLACK,WHITE,False,0,0.0017999991541728377,BLACK,True,CORRECT,1.4629354999997304,1462.9354999997304
6,20260325_140431,D,J,False,AUTOMATION2,2,156,456,fixed_delta,0.04169584712997743,0.012883078076194597,,,,,0.5532107479625178,1992,1608,1,0.65,BLACK,BLACK,True,0,0.0012999989849049598,BLACK,True,CORRECT,1.673967700000503,1673.967700000503
6,20260325_140431,D,J,False,AUTOMATION2,2,157,457,fixed_delta,0.04169584712997743,0.012883078076194597,,,,,0.48916611066709953,1761,1839,1,0.65,WHITE,WHITE,True,0,0.0012000018614344299,BLACK,False,INCORRECT,1.6275248000019928,1627.5248000019928
6,20260325_140431,D,J,False,AUTOMATION2,2,158,458,fixed_delta,0.04169584712997743,0.012883078076194597,,,,,0.4708223851115994,1695,1905,1,0.65,WHITE,WHITE,True,0,0.0017999991541728377,WHITE,True,CORRECT,0.7499440999999933,749.9440999999933
6,20260325_140431,D,J,False,AUTOMATION2,2,159,459,fixed_delta,0.04169584712997743,0.012883078076194597,,,,,0.4489204510842949,1616,1984,1,0.65,WHITE,BLACK,False,0,0.0013999997463542968,WHITE,True,CORRECT,1.3933619000017643,1393.3619000017643
6,20260325_140431,D,J,False,AUTOMATION2,2,160,460,fixed_delta,0.04169584712997743,0.012883078076194597,,,,,0.5257878774865717,1893,1707,1,0.65,BLACK,BLACK,True,0,0.0016000012692529708,BLACK,True,CORRECT,1.179849899999681,1179.849899999681
6,20260325_140431,D,J,False,AUTOMATION2,2,161,461,fixed_delta,0.04169584712997743,0.012883078076194597,,,,,0.46702674823964196,1681,1919,1,0.65,WHITE,WHITE,True,0,0.0011999982234556228,WHITE,True,CORRECT,0.7145866999999271,714.5866999999271
6,20260325_140431,D,J,False,AUTOMATION2,2,162,462,fixed_delta,0.04169584712997743,0.012883078076194597,,,,,0.5360214037770156,1930,1670,1,0.65,BLACK,BLACK,True,0,0.001400003384333104,BLACK,True,CORRECT,1.2181028000013612,1218.1028000013612
6,20260325_140431,D,J,False,AUTOMATION2,2,163,463,fixed_delta,0.04169584712997743,0.012883078076194597,,,,,0.5702331430233185,2053,1547,1,0.65,BLACK,WHITE,False,0,0.0013999997463542968,BLACK,True,CORRECT,1.5261966999969445,1526.1966999969445
6,20260325_140431,D,J,False,AUTOMATION2,2,164,464,fixed_delta,0.04169584712997743,0.012883078076194597,,,,,0.48190753106638373,1735,1865,1,0.65,WHITE,BLACK,False,0,0.0013999997463542968,WHITE,True,CORRECT,0.9521897000013269,952.1897000013269
6,20260325_140431,D,J,False,AUTOMATION2,2,165,465,fixed_delta,0.04169584712997743,0.012883078076194597,,,,,0.5361200044923162,1930,1670,1,0.65,BLACK,BLACK,True,0,0.0011999982234556228,BLACK,True,CORRECT,0.934302800000296,934.302800000296
6,20260325_140431,D,J,False,AUTOMATION2,2,166,466,fixed_delta,0.04169584712997743,0.012883078076194597,,,,,0.5498593173846351,1979,1621,1,0.65,BLACK,BLACK,True,0,0.0015000005078036338,WHITE,False,INCORRECT,1.841069999998581,1841.069999998581
6,20260325_140431,D,J,False,AUTOMATION2,2,167,467,fixed_delta,0.04169584712997743,0.012883078076194597,,,,,0.5359232669366348,1929,1671,1,0.65,BLACK,BLACK,True,0,0.0013999997463542968,WHITE,False,INCORRECT,1.6576878999985638,1657.6878999985638
6,20260325_140431,D,J,False,AUTOMATION2,2,168,468,fixed_delta,0.04169584712997743,0.012883078076194597,,,,,0.5346811646679182,1925,1675,1,0.65,BLACK,BLACK,True,0,0.0017999991541728377,WHITE,False,INCORRECT,1.1265499000001,1126.5499000001
6,20260325_140431,D,J,False,AUTOMATION2,2,169,469,fixed_delta,0.04169584712997743,0.012883078076194597,,,,,0.4466631826412495,1608,1992,1,0.65,WHITE,WHITE,True,0,0.0013999997463542968,WHITE,True,CORRECT,0.6464620000006107,646.4620000006107
6,20260325_140431,D,J,False,AUTOMATION2,2,170,470,fixed_delta,0.04169584712997743,0.012883078076194597,,,,,0.46589575985645654,1677,1923,1,0.65,WHITE,BLACK,False,0,0.0013999997463542968,WHITE,True,CORRECT,0.9183756999991601,918.3756999991601
6,20260325_140431,D,J,False,AUTOMATION2,2,171,471,fixed_delta,0.04169584712997743,0.012883078076194597,,,,,0.45439411613754377,1636,1964,1,0.65,WHITE,WHITE,True,0,0.0013999997463542968,WHITE,True,CORRECT,0.7004455999995116,700.4455999995116
6,20260325_140431,D,J,False,AUTOMATION2,2,172,472,fixed_delta,0.04169584712997743,0.012883078076194597,,,,,0.464016215644134,1670,1930,1,0.65,WHITE,WHITE,True,0,0.0015000005078036338,WHITE,True,CORRECT,0.7643129999996745,764.3129999996745
6,20260325_140431,D,J,False,AUTOMATION2,2,173,473,fixed_delta,0.04169584712997743,0.012883078076194597,,,,,0.5503393219284438,1981,1619,1,0.65,BLACK,BLACK,True,0,0.001400003384333104,BLACK,True,CORRECT,1.409038400001009,1409.038400001009
6,20260325_140431,D,J,False,AUTOMATION2,2,174,474,fixed_delta,0.04169584712997743,0.012883078076194597,,,,,0.5281346627509712,1901,1699,1,0.65,BLACK,WHITE,False,0,0.0015999976312741637,WHITE,False,INCORRECT,3.8018513999995776,3801.8513999995776
6,20260325_140431,D,J,False,AUTOMATION2,2,175,475,fixed_delta,0.04169584712997743,0.012883078076194597,,,,,0.518924624209637,1868,1732,1,0.65,BLACK,BLACK,True,0,0.0015999976312741637,WHITE,False,INCORRECT,0.9382933999986562,938.2933999986562
6,20260325_140431,D,J,False,AUTOMATION2,2,176,476,fixed_delta,0.04169584712997743,0.012883078076194597,,,,,0.45494093697435006,1638,1962,1,0.65,WHITE,WHITE,True,0,0.0012000018614344299,WHITE,True,CORRECT,0.6290508999991289,629.0508999991289
6,20260325_140431,D,J,False,AUTOMATION2,2,177,477,fixed_delta,0.04169584712997743,0.012883078076194597,,,,,0.5270088753746078,1897,1703,1,0.65,BLACK,BLACK,True,0,0.0012000018614344299,BLACK,True,CORRECT,2.2592070999999123,2259.2070999999123
6,20260325_140431,D,J,False,AUTOMATION2,2,178,478,fixed_delta,0.04169584712997743,0.012883078076194597,,,,,0.44089786769301453,1587,2013,1,0.65,WHITE,WHITE,True,0,0.0013000026228837669,WHITE,True,CORRECT,0.7718997000010859,771.8997000010859
6,20260325_140431,D,J,False,AUTOMATION2,2,179,479,fixed_delta,0.04169584712997743,0.012883078076194597,,,,,0.5298172915482608,1907,1693,1,0.65,BLACK,BLACK,True,0,0.0012999989849049598,BLACK,True,CORRECT,1.1567402999971819,1156.7402999971819
6,20260325_140431,D,J,False,AUTOMATION2,2,180,480,fixed_delta,0.04169584712997743,0.012883078076194597,,,,,0.5529525034932624,1991,1609,1,0.65,BLACK,WHITE,False,0,0.0013999997463542968,BLACK,True,CORRECT,1.1854241000000911,1185.4241000000911
6,20260325_140431,D,J,False,AUTOMATION2,2,181,481,fixed_delta,0.04169584712997743,0.012883078076194597,,,,,0.5503283176446735,1981,1619,1,0.65,BLACK,WHITE,False,0,0.0015999976312741637,BLACK,True,CORRECT,1.774219599999924,1774.219599999924
6,20260325_140431,D,J,False,AUTOMATION2,2,182,482,fixed_delta,0.04169584712997743,0.012883078076194597,,,,,0.4572382482131713,1646,1954,1,0.65,WHITE,WHITE,True,0,0.0011999982234556228,WHITE,True,CORRECT,0.9605472999974154,960.5472999974154
6,20260325_140431,D,J,False,AUTOMATION2,2,183,483,fixed_delta,0.04169584712997743,0.012883078076194597,,,,,0.45181141715194506,1627,1973,1,0.65,WHITE,WHITE,True,0,0.0012999989849049598,WHITE,True,CORRECT,0.6560236999976041,656.0236999976041
6,20260325_140431,D,J,False,AUTOMATION2,2,184,484,fixed_delta,0.04169584712997743,0.012883078076194597,,,,,0.45105535994250084,1624,1976,1,0.65,WHITE,BLACK,False,0,0.0014999968698248267,WHITE,True,CORRECT,0.6719281999976374,671.9281999976374
6,20260325_140431,D,J,False,AUTOMATION2,2,185,485,fixed_delta,0.04169584712997743,0.012883078076194597,,,,,0.535547180975259,1928,1672,1,0.65,BLACK,WHITE,False,0,0.0013999997463542968,BLACK,True,CORRECT,0.8733576000013272,873.3576000013272
6,20260325_140431,D,J,False,AUTOMATION2,2,186,486,fixed_delta,0.04169584712997743,0.012883078076194597,,,,,0.5382031280531663,1938,1662,1,0.65,BLACK,BLACK,True,0,0.0016999983927235007,BLACK,True,CORRECT,1.5567752999995719,1556.7752999995719
6,20260325_140431,D,J,False,AUTOMATION2,2,187,487,fixed_delta,0.04169584712997743,0.012883078076194597,,,,,0.5492536265313294,1977,1623,1,0.65,BLACK,WHITE,False,0,0.0012000018614344299,WHITE,False,INCORRECT,1.6248758000001544,1624.8758000001544
6,20260325_140431,D,J,False,AUTOMATION2,2,188,488,fixed_delta,0.04169584712997743,0.012883078076194597,,,,,0.5570798387347445,2005,1595,1,0.65,BLACK,BLACK,True,0,0.0012000018614344299,WHITE,False,INCORRECT,0.9053043999992951,905.3043999992951
6,20260325_140431,D,J,False,AUTOMATION2,2,189,489,fixed_delta,0.04169584712997743,0.012883078076194597,,,,,0.5443202151612104,1960,1640,1,0.65,BLACK,WHITE,False,0,0.0013999997463542968,WHITE,False,INCORRECT,0.7754190000014205,775.4190000014205
6,20260325_140431,D,J,False,AUTOMATION2,2,190,490,fixed_delta,0.04169584712997743,0.012883078076194597,,,,,0.544090239521032,1959,1641,1,0.65,BLACK,BLACK,True,0,0.0012999989849049598,BLACK,True,CORRECT,0.9896212999992713,989.6212999992713
6,20260325_140431,D,J,False,AUTOMATION2,2,191,491,fixed_delta,0.04169584712997743,0.012883078076194597,,,,,0.5531332688590422,1991,1609,1,0.65,BLACK,BLACK,True,0,0.0016000012692529708,BLACK,True,CORRECT,0.7691583000014361,769.1583000014361
6,20260325_140431,D,J,False,AUTOMATION2,2,192,492,fixed_delta,0.04169584712997743,0.012883078076194597,,,,,0.43494382489038125,1566,2034,1,0.65,WHITE,WHITE,True,0,0.0012999989849049598,WHITE,True,CORRECT,0.5846736999992572,584.6736999992572
6,20260325_140431,D,J,False,AUTOMATION2,2,193,493,fixed_delta,0.04169584712997743,0.012883078076194597,,,,,0.4457943051071413,1605,1995,1,0.65,WHITE,BLACK,False,0,0.0016000012692529708,WHITE,True,CORRECT,0.6317386000009719,631.7386000009719
6,20260325_140431,D,J,False,AUTOMATION2,2,194,494,fixed_delta,0.04169584712997743,0.012883078076194597,,,,,0.5403057852427923,1945,1655,1,0.65,BLACK,WHITE,False,0,0.0014999968698248267,WHITE,False,INCORRECT,0.651601199999277,651.601199999277
6,20260325_140431,D,J,False,AUTOMATION2,2,195,495,fixed_delta,0.04169584712997743,0.012883078076194597,,,,,0.46922311923438725,1689,1911,1,0.65,WHITE,WHITE,True,0,0.0010999974620062858,WHITE,True,CORRECT,0.6799878999991051,679.9878999991051
6,20260325_140431,D,J,False,AUTOMATION2,2,196,496,fixed_delta,0.04169584712997743,0.012883078076194597,,,,,0.46592695103634885,1677,1923,1,0.65,WHITE,WHITE,True,0,0.0016000012692529708,WHITE,True,CORRECT,0.7042097000012291,704.2097000012291
6,20260325_140431,D,J,False,AUTOMATION2,2,197,497,fixed_delta,0.04169584712997743,0.012883078076194597,,,,,0.4532563146698639,1632,1968,1,0.65,WHITE,BLACK,False,0,0.0015000005078036338,WHITE,True,CORRECT,1.8869779000015114,1886.9779000015114
6,20260325_140431,D,J,False,AUTOMATION2,2,198,498,fixed_delta,0.04169584712997743,0.012883078076194597,,,,,0.5243838266406166,1888,1712,1,0.65,BLACK,BLACK,True,0,0.0018999999156221747,BLACK,True,CORRECT,1.6047657999988587,1604.7657999988587
6,20260325_140431,D,J,False,AUTOMATION2,2,199,499,fixed_delta,0.04169584712997743,0.012883078076194597,,,,,0.5509423399439858,1983,1617,1,0.65,BLACK,BLACK,True,0,0.0015000005078036338,WHITE,False,INCORRECT,2.3821100999994087,2382.1100999994087
6,20260325_140431,D,J,False,AUTOMATION2,2,200,500,fixed_delta,0.04169584712997743,0.012883078076194597,,,,,0.443989802339826,1598,2002,1,0.65,WHITE,WHITE,True,0,0.0017999991541728377,WHITE,True,CORRECT,0.8857575999973051,885.7575999973051
6,20260325_140431,D,J,False,AUTOMATION2,2,201,501,fixed_delta,0.04169584712997743,0.012883078076194597,,,,,0.4610473415791012,1660,1940,1,0.65,WHITE,BLACK,False,0,0.0015000005078036338,BLACK,False,INCORRECT,1.8357073000006494,1835.7073000006494
6,20260325_140431,D,J,False,AUTOMATION2,2,202,502,fixed_delta,0.04169584712997743,0.012883078076194597,,,,,0.46215197296289695,1664,1936,1,0.65,WHITE,BLACK,False,0,0.0017000020307023078,WHITE,True,CORRECT,3.7749232000023767,3774.9232000023767
6,20260325_140431,D,J,False,AUTOMATION2,2,203,503,fixed_delta,0.04169584712997743,0.012883078076194597,,,,,0.5611185331520753,2020,1580,1,0.65,BLACK,BLACK,True,0,0.0015000005078036338,BLACK,True,CORRECT,1.9062267999979667,1906.2267999979667
6,20260325_140431,D,J,False,AUTOMATION2,2,204,504,fixed_delta,0.04169584712997743,0.012883078076194597,,,,,0.45870275340043043,1651,1949,1,0.65,WHITE,BLACK,False,0,0.0012999989849049598,WHITE,True,CORRECT,1.1308766000001924,1130.8766000001924
6,20260325_140431,D,J,False,AUTOMATION2,2,205,505,fixed_delta,0.04169584712997743,0.012883078076194597,,,,,0.4558682190999122,1641,1959,1,0.65,WHITE,BLACK,False,0,0.0013000026228837669,WHITE,True,CORRECT,1.0612883000030706,1061.2883000030706
6,20260325_140431,D,J,False,AUTOMATION2,2,206,506,fixed_delta,0.04169584712997743,0.012883078076194597,,,,,0.45492359177713415,1638,1962,1,0.65,WHITE,WHITE,True,0,0.0013999997463542968,WHITE,True,CORRECT,0.8466181000003417,846.6181000003417
6,20260325_140431,D,J,False,AUTOMATION2,2,207,507,fixed_delta,0.04169584712997743,0.012883078076194597,,,,,0.4618822650738771,1663,1937,1,0.65,WHITE,WHITE,True,0,0.0016000012692529708,WHITE,True,CORRECT,0.6606212000006053,660.6212000006053
6,20260325_140431,D,J,False,AUTOMATION2,2,208,508,fixed_delta,0.04169584712997743,0.012883078076194597,,,,,0.5458346087645294,1965,1635,1,0.65,BLACK,BLACK,True,0,0.0013999997463542968,WHITE,False,INCORRECT,0.8585391999986314,858.5391999986314
6,20260325_140431,D,J,False,AUTOMATION2,2,209,509,fixed_delta,0.04169584712997743,0.012883078076194597,,,,,0.4678633905561148,1684,1916,1,0.65,WHITE,WHITE,True,0,0.0017999991541728377,WHITE,True,CORRECT,0.6791338000002725,679.1338000002725
6,20260325_140431,D,J,False,AUTOMATION2,2,210,510,fixed_delta,0.04169584712997743,0.012883078076194597,,,,,0.582265834407542,2096,1504,1,0.65,BLACK,BLACK,True,0,0.0015000005078036338,BLACK,True,CORRECT,0.707185400002345,707.185400002345
6,20260325_140431,D,J,False,AUTOMATION2,2,211,511,fixed_delta,0.04169584712997743,0.012883078076194597,,,,,0.4613912425788763,1661,1939,1,0.65,WHITE,WHITE,True,0,0.0011999982234556228,WHITE,True,CORRECT,1.8802497999968182,1880.2497999968182
6,20260325_140431,D,J,False,AUTOMATION2,2,212,512,fixed_delta,0.04169584712997743,0.012883078076194597,,,,,0.5207301933099825,1875,1725,1,0.65,BLACK,WHITE,False,0,0.0012999989849049598,BLACK,True,CORRECT,0.9619366000006266,961.9366000006266
6,20260325_140431,D,J,False,AUTOMATION2,2,213,513,fixed_delta,0.04169584712997743,0.012883078076194597,,,,,0.4780484765764943,1721,1879,1,0.65,WHITE,BLACK,False,0,0.0012999989849049598,WHITE,True,CORRECT,0.747899599999073,747.899599999073
6,20260325_140431,D,J,False,AUTOMATION2,2,214,514,fixed_delta,0.04169584712997743,0.012883078076194597,,,,,0.5617151881910515,2022,1578,1,0.65,BLACK,BLACK,True,0,0.0017999991541728377,BLACK,True,CORRECT,1.0792111000009754,1079.2111000009754
6,20260325_140431,D,J,False,AUTOMATION2,2,215,515,fixed_delta,0.04169584712997743,0.012883078076194597,,,,,0.5425437890719116,1953,1647,1,0.65,BLACK,BLACK,True,0,0.0017000020307023078,BLACK,True,CORRECT,0.8251405000009981,825.1405000009981
6,20260325_140431,D,J,False,AUTOMATION2,2,216,516,fixed_delta,0.04169584712997743,0.012883078076194597,,,,,0.44332663926552096,1596,2004,1,0.65,WHITE,BLACK,False,0,0.0013000026228837669,WHITE,True,CORRECT,0.7802533000030962,780.2533000030962
6,20260325_140431,D,J,False,AUTOMATION2,2,217,517,fixed_delta,0.04169584712997743,0.012883078076194597,,,,,0.5475029755425725,1971,1629,1,0.65,BLACK,BLACK,True,0,0.0013999997463542968,BLACK,True,CORRECT,1.070244400001684,1070.244400001684
6,20260325_140431,D,J,False,AUTOMATION2,2,218,518,fixed_delta,0.04169584712997743,0.012883078076194597,,,,,0.478042701315013,1721,1879,1,0.65,WHITE,BLACK,False,0,0.0011999982234556228,WHITE,True,CORRECT,0.8302966000010201,830.2966000010201
6,20260325_140431,D,J,False,AUTOMATION2,2,219,519,fixed_delta,0.04169584712997743,0.012883078076194597,,,,,0.5564068760464986,2003,1597,1,0.65,BLACK,WHITE,False,0,0.0013999997463542968,WHITE,False,INCORRECT,1.064352700002928,1064.352700002928
6,20260325_140431,D,J,False,AUTOMATION2,2,220,520,fixed_delta,0.04169584712997743,0.012883078076194597,,,,,0.44872512530914166,1615,1985,1,0.65,WHITE,BLACK,False,0,0.0015000005078036338,WHITE,True,CORRECT,0.7176260000014736,717.6260000014736
6,20260325_140431,D,J,False,AUTOMATION2,2,221,521,fixed_delta,0.04169584712997743,0.012883078076194597,,,,,0.5723027523821572,2060,1540,1,0.65,BLACK,BLACK,True,0,0.0013999997463542968,BLACK,True,CORRECT,0.7763833999997587,776.3833999997587
6,20260325_140431,D,J,False,AUTOMATION2,2,222,522,fixed_delta,0.04169584712997743,0.012883078076194597,,,,,0.47961138566768363,1727,1873,1,0.65,WHITE,WHITE,True,0,0.0012999989849049598,WHITE,True,CORRECT,0.6561962999985553,656.1962999985553
6,20260325_140431,D,J,False,AUTOMATION2,2,223,523,fixed_delta,0.04169584712997743,0.012883078076194597,,,,,0.5438391991986626,1958,1642,1,0.65,BLACK,BLACK,True,0,0.0011999982234556228,BLACK,True,CORRECT,0.9783962000001338,978.3962000001338
6,20260325_140431,D,J,False,AUTOMATION2,2,224,524,fixed_delta,0.04169584712997743,0.012883078076194597,,,,,0.46187466824382684,1663,1937,1,0.65,WHITE,WHITE,True,0,0.0015000005078036338,WHITE,True,CORRECT,0.6335902999999234,633.5902999999234
6,20260325_140431,D,J,False,AUTOMATION2,2,225,525,fixed_delta,0.04169584712997743,0.012883078076194597,,,,,0.45555505254794626,1640,1960,1,0.65,WHITE,BLACK,False,0,0.0013000026228837669,WHITE,True,CORRECT,0.787407700001495,787.407700001495
6,20260325_140431,D,J,False,AUTOMATION2,2,226,526,fixed_delta,0.04169584712997743,0.012883078076194597,,,,,0.5396416242549424,1943,1657,1,0.65,BLACK,BLACK,True,0,0.0013999997463542968,BLACK,True,CORRECT,0.9003078000023379,900.3078000023379
6,20260325_140431,D,J,False,AUTOMATION2,2,227,527,fixed_delta,0.04169584712997743,0.012883078076194597,,,,,0.5573183161725385,2006,1594,1,0.65,BLACK,WHITE,False,0,0.0020999978005420417,BLACK,True,CORRECT,1.3864361999985704,1386.4361999985704
6,20260325_140431,D,J,False,AUTOMATION2,2,228,528,fixed_delta,0.04169584712997743,0.012883078076194597,,,,,0.474682349548764,1709,1891,1,0.65,WHITE,WHITE,True,0,0.0015000005078036338,WHITE,True,CORRECT,0.6561369000010018,656.1369000010018
6,20260325_140431,D,J,False,AUTOMATION2,2,229,529,fixed_delta,0.04169584712997743,0.012883078076194597,,,,,0.5455302842241527,1964,1636,1,0.65,BLACK,BLACK,True,0,0.0015999976312741637,BLACK,True,CORRECT,1.2954738999978872,1295.4738999978872
6,20260325_140431,D,J,False,AUTOMATION2,2,230,530,fixed_delta,0.04169584712997743,0.012883078076194597,,,,,0.4750859188314546,1710,1890,1,0.65,WHITE,WHITE,True,0,0.0013000026228837669,WHITE,True,CORRECT,0.8128076000029978,812.8076000029978
6,20260325_140431,D,J,False,AUTOMATION2,2,231,531,fixed_delta,0.04169584712997743,0.012883078076194597,,,,,0.43213747054527285,1556,2044,1,0.65,WHITE,WHITE,True,0,0.0012999989849049598,WHITE,True,CORRECT,0.7770606000012776,777.0606000012776
6,20260325_140431,D,J,False,AUTOMATION2,2,232,532,fixed_delta,0.04169584712997743,0.012883078076194597,,,,,0.46583516567034633,1677,1923,1,0.65,WHITE,WHITE,True,0,0.0016999983927235007,WHITE,True,CORRECT,0.6953300999994099,695.3300999994099
6,20260325_140431,D,J,False,AUTOMATION2,2,233,533,fixed_delta,0.04169584712997743,0.012883078076194597,,,,,0.5307831901755403,1911,1689,1,0.65,BLACK,BLACK,True,0,0.0012999989849049598,BLACK,True,CORRECT,0.9482237999982317,948.2237999982317
6,20260325_140431,D,J,False,AUTOMATION2,2,234,534,fixed_delta,0.04169584712997743,0.012883078076194597,,,,,0.446090462396529,1606,1994,1,0.65,WHITE,WHITE,True,0,0.0016000012692529708,WHITE,True,CORRECT,0.6241019000008237,624.1019000008237
6,20260325_140431,D,J,False,AUTOMATION2,2,235,535,fixed_delta,0.04169584712997743,0.012883078076194597,,,,,0.466383290717868,1679,1921,1,0.65,WHITE,WHITE,True,0,0.0013999997463542968,WHITE,True,CORRECT,2.516518800002814,2516.518800002814
6,20260325_140431,D,J,False,AUTOMATION2,2,236,536,fixed_delta,0.04169584712997743,0.012883078076194597,,,,,0.46619977107195415,1678,1922,1,0.65,WHITE,BLACK,False,0,0.0013999997463542968,WHITE,True,CORRECT,2.281076600000233,2281.076600000233
6,20260325_140431,D,J,False,AUTOMATION2,2,237,537,fixed_delta,0.04169584712997743,0.012883078076194597,,,,,0.5315361766340448,1914,1686,1,0.65,BLACK,BLACK,True,0,0.0020000006770715117,BLACK,True,CORRECT,0.6912018000002718,691.2018000002718
6,20260325_140431,D,J,False,AUTOMATION2,2,238,538,fixed_delta,0.04169584712997743,0.012883078076194597,,,,,0.45222218414371695,1628,1972,1,0.65,WHITE,WHITE,True,0,0.0011999982234556228,WHITE,True,CORRECT,1.0560273000010056,1056.0273000010056
6,20260325_140431,D,J,False,AUTOMATION2,2,239,539,fixed_delta,0.04169584712997743,0.012883078076194597,,,,,0.5310528877746564,1912,1688,1,0.65,BLACK,WHITE,False,0,0.0017000020307023078,WHITE,False,INCORRECT,1.6616794000001391,1661.6794000001391
6,20260325_140431,D,J,False,AUTOMATION2,2,240,540,fixed_delta,0.04169584712997743,0.012883078076194597,,,,,0.529106779851606,1905,1695,1,0.65,BLACK,BLACK,True,0,0.0017000020307023078,BLACK,True,CORRECT,1.4488533000003372,1448.8533000003372
6,20260325_140431,D,J,False,AUTOMATION2,2,241,541,fixed_delta,0.04169584712997743,0.012883078076194597,,,,,0.5592233463912076,2013,1587,1,0.65,BLACK,BLACK,True,0,0.0012000018614344299,BLACK,True,CORRECT,1.0941748000004736,1094.1748000004736
6,20260325_140431,D,J,False,AUTOMATION2,2,242,542,fixed_delta,0.04169584712997743,0.012883078076194597,,,,,0.5347636485982652,1925,1675,1,0.65,BLACK,BLACK,True,0,0.0018999999156221747,WHITE,False,INCORRECT,0.8416589000007662,841.6589000007662
6,20260325_140431,D,J,False,AUTOMATION2,2,243,543,fixed_delta,0.04169584712997743,0.012883078076194597,,,,,0.540820197492525,1947,1653,1,0.65,BLACK,BLACK,True,0,0.0015000005078036338,WHITE,False,INCORRECT,1.1654687999980524,1165.4687999980524
6,20260325_140431,D,J,False,AUTOMATION2,2,244,544,fixed_delta,0.04169584712997743,0.012883078076194597,,,,,0.5538643785670585,1994,1606,1,0.65,BLACK,BLACK,True,0,0.0017000020307023078,BLACK,True,CORRECT,0.8050684000008914,805.0684000008914
6,20260325_140431,D,J,False,AUTOMATION2,2,245,545,fixed_delta,0.04169584712997743,0.012883078076194597,,,,,0.4546696608636785,1637,1963,1,0.65,WHITE,WHITE,True,0,0.0013000026228837669,WHITE,True,CORRECT,0.8381322000022919,838.1322000022919
6,20260325_140431,D,J,False,AUTOMATION2,2,246,546,fixed_delta,0.04169584712997743,0.012883078076194597,,,,,0.44440440712902685,1600,2000,1,0.65,WHITE,BLACK,False,0,0.0013999997463542968,WHITE,True,CORRECT,1.5208488999996916,1520.8488999996916
6,20260325_140431,D,J,False,AUTOMATION2,2,247,547,fixed_delta,0.04169584712997743,0.012883078076194597,,,,,0.5377658895532419,1936,1664,1,0.65,BLACK,WHITE,False,0,0.0016000012692529708,BLACK,True,CORRECT,1.3743697000027169,1374.3697000027169
6,20260325_140431,D,J,False,AUTOMATION2,2,248,548,fixed_delta,0.04169584712997743,0.012883078076194597,,,,,0.5424467318731967,1953,1647,1,0.65,BLACK,WHITE,False,0,0.0015000005078036338,BLACK,True,CORRECT,2.3997932999991463,2399.7932999991463
6,20260325_140431,D,J,False,AUTOMATION2,2,249,549,fixed_delta,0.04169584712997743,0.012883078076194597,,,,,0.4502228783401984,1621,1979,1,0.65,WHITE,WHITE,True,0,0.0015000005078036338,WHITE,True,CORRECT,1.9639764999992622,1963.9764999992622
6,20260325_140431,D,J,False,AUTOMATION2,2,250,550,fixed_delta,0.04169584712997743,0.012883078076194597,,,,,0.4569329783714791,1645,1955,1,0.65,WHITE,WHITE,True,0,0.0013999997463542968,BLACK,False,INCORRECT,4.169051699998818,4169.051699998818
6,20260325_140431,D,J,False,AUTOMATION2,2,251,551,fixed_delta,0.04169584712997743,0.012883078076194597,,,,,0.468932247005591,1688,1912,1,0.65,WHITE,BLACK,False,0,0.0012999989849049598,WHITE,True,CORRECT,1.0208173999999417,1020.8173999999417
6,20260325_140431,D,J,False,AUTOMATION2,2,252,552,fixed_delta,0.04169584712997743,0.012883078076194597,,,,,0.5770437607482407,2077,1523,1,0.65,BLACK,BLACK,True,0,0.0016000012692529708,BLACK,True,CORRECT,1.1661912999989,1166.1912999989
6,20260325_140431,D,J,False,AUTOMATION2,2,253,553,fixed_delta,0.04169584712997743,0.012883078076194597,,,,,0.43926014150223613,1581,2019,1,0.65,WHITE,WHITE,True,0,0.0014999968698248267,WHITE,True,CORRECT,0.8545702999981586,854.5702999981586
6,20260325_140431,D,J,False,AUTOMATION2,2,254,554,fixed_delta,0.04169584712997743,0.012883078076194597,,,,,0.5510515109951991,1984,1616,1,0.65,BLACK,WHITE,False,0,0.0015000005078036338,BLACK,True,CORRECT,0.6969344000026467,696.9344000026467
6,20260325_140431,D,J,False,AUTOMATION2,2,255,555,fixed_delta,0.04169584712997743,0.012883078076194597,,,,,0.46316321839251484,1667,1933,1,0.65,WHITE,WHITE,True,0,0.0015000005078036338,WHITE,True,CORRECT,0.7354427999998734,735.4427999998734
6,20260325_140431,D,J,False,AUTOMATION2,2,256,556,fixed_delta,0.04169584712997743,0.012883078076194597,,,,,0.5420887494586341,1952,1648,1,0.65,BLACK,WHITE,False,0,0.0013999997463542968,BLACK,True,CORRECT,1.5607787000008102,1560.7787000008102
6,20260325_140431,D,J,False,AUTOMATION2,2,257,557,fixed_delta,0.04169584712997743,0.012883078076194597,,,,,0.4865907314991909,1752,1848,1,0.65,WHITE,WHITE,True,0,0.0013999997463542968,WHITE,True,CORRECT,0.6897458000021288,689.7458000021288
6,20260325_140431,D,J,False,AUTOMATION2,2,258,558,fixed_delta,0.04169584712997743,0.012883078076194597,,,,,0.44567450081710747,1604,1996,1,0.65,WHITE,WHITE,True,0,0.0012999989849049598,WHITE,True,CORRECT,0.7123943000005966,712.3943000005966
6,20260325_140431,D,J,False,AUTOMATION2,2,259,559,fixed_delta,0.04169584712997743,0.012883078076194597,,,,,0.4438330877916264,1598,2002,1,0.65,WHITE,WHITE,True,0,0.0017000020307023078,WHITE,True,CORRECT,0.7617264000000432,761.7264000000432
6,20260325_140431,D,J,False,AUTOMATION2,2,260,560,fixed_delta,0.04169584712997743,0.012883078076194597,,,,,0.4530908602961239,1631,1969,1,0.65,WHITE,BLACK,False,0,0.0013999997463542968,BLACK,False,INCORRECT,0.4608647999993991,460.8647999993991
6,20260325_140431,D,J,False,AUTOMATION2,2,261,561,fixed_delta,0.04169584712997743,0.012883078076194597,,,,,0.4606261937505302,1658,1942,1,0.65,WHITE,BLACK,False,0,0.0017999991541728377,WHITE,True,CORRECT,0.6951429000000644,695.1429000000644
6,20260325_140431,D,J,False,AUTOMATION2,2,262,562,fixed_delta,0.04169584712997743,0.012883078076194597,,,,,0.47112554567646303,1696,1904,1,0.65,WHITE,WHITE,True,0,0.0013999997463542968,BLACK,False,INCORRECT,1.0726437999983318,1072.6437999983318
6,20260325_140431,D,J,False,AUTOMATION2,2,263,563,fixed_delta,0.04169584712997743,0.012883078076194597,,,,,0.5400183046399444,1944,1656,1,0.65,BLACK,WHITE,False,0,0.0015000005078036338,WHITE,False,INCORRECT,1.7145181000014418,1714.5181000014418
6,20260325_140431,D,J,False,AUTOMATION2,2,264,564,fixed_delta,0.04169584712997743,0.012883078076194597,,,,,0.523074900082006,1883,1717,1,0.65,BLACK,WHITE,False,0,0.0013999997463542968,BLACK,True,CORRECT,1.0041951999992307,1004.1951999992307
6,20260325_140431,D,J,False,AUTOMATION2,2,265,565,fixed_delta,0.04169584712997743,0.012883078076194597,,,,,0.465680242020212,1676,1924,1,0.65,WHITE,BLACK,False,0,0.0012999989849049598,WHITE,True,CORRECT,0.8054439000006823,805.4439000006823
6,20260325_140431,D,J,False,AUTOMATION2,2,266,566,fixed_delta,0.04169584712997743,0.012883078076194597,,,,,0.43830332605035965,1578,2022,1,0.65,WHITE,BLACK,False,0,0.0013999997463542968,BLACK,False,INCORRECT,3.4377395999981673,3437.7395999981673
6,20260325_140431,D,J,False,AUTOMATION2,2,267,567,fixed_delta,0.04169584712997743,0.012883078076194597,,,,,0.42499321316024413,1530,2070,1,0.65,WHITE,WHITE,True,0,0.0013999997463542968,WHITE,True,CORRECT,0.6102812999997695,610.2812999997695
6,20260325_140431,D,J,False,AUTOMATION2,2,268,568,fixed_delta,0.04169584712997743,0.012883078076194597,,,,,0.5451928919290178,1963,1637,1,0.65,BLACK,BLACK,True,0,0.0013999997463542968,BLACK,True,CORRECT,0.7000527000018337,700.0527000018337
6,20260325_140431,D,J,False,AUTOMATION2,2,269,569,fixed_delta,0.04169584712997743,0.012883078076194597,,,,,0.538659777156895,1939,1661,1,0.65,BLACK,WHITE,False,0,0.0013999997463542968,WHITE,False,INCORRECT,1.2169331999975839,1216.9331999975839
6,20260325_140431,D,J,False,AUTOMATION2,2,270,570,fixed_delta,0.04169584712997743,0.012883078076194597,,,,,0.5252908378248831,1891,1709,1,0.65,BLACK,BLACK,True,0,0.0011999982234556228,BLACK,True,CORRECT,1.2454294999988633,1245.4294999988633
6,20260325_140431,D,J,False,AUTOMATION2,2,271,571,fixed_delta,0.04169584712997743,0.012883078076194597,,,,,0.47270389071316177,1702,1898,1,0.65,WHITE,WHITE,True,0,0.0012000018614344299,WHITE,True,CORRECT,4.918564600000536,4918.564600000536
6,20260325_140431,D,J,False,AUTOMATION2,2,272,572,fixed_delta,0.04169584712997743,0.012883078076194597,,,,,0.5385704926908141,1939,1661,1,0.65,BLACK,WHITE,False,0,0.0016999983927235007,WHITE,False,INCORRECT,1.19380689999889,1193.80689999889
6,20260325_140431,D,J,False,AUTOMATION2,2,273,573,fixed_delta,0.04169584712997743,0.012883078076194597,,,,,0.5258647631836625,1893,1707,1,0.65,BLACK,WHITE,False,0,0.0012999989849049598,BLACK,True,CORRECT,1.1509599999990314,1150.9599999990314
6,20260325_140431,D,J,False,AUTOMATION2,2,274,574,fixed_delta,0.04169584712997743,0.012883078076194597,,,,,0.552446107124227,1989,1611,1,0.65,BLACK,BLACK,True,0,0.001400003384333104,BLACK,True,CORRECT,0.6767652000016824,676.7652000016824
6,20260325_140431,D,J,False,AUTOMATION2,2,275,575,fixed_delta,0.04169584712997743,0.012883078076194597,,,,,0.53455669056415,1924,1676,1,0.65,BLACK,BLACK,True,0,0.0016000012692529708,BLACK,True,CORRECT,1.3972852000006242,1397.2852000006242
6,20260325_140431,D,J,False,AUTOMATION2,2,276,576,fixed_delta,0.04169584712997743,0.012883078076194597,,,,,0.5512799682003756,1985,1615,1,0.65,BLACK,BLACK,True,0,0.0015000005078036338,BLACK,True,CORRECT,0.7334690999996383,733.4690999996383
6,20260325_140431,D,J,False,AUTOMATION2,2,277,577,fixed_delta,0.04169584712997743,0.012883078076194597,,,,,0.4576314045008839,1647,1953,1,0.65,WHITE,WHITE,True,0,0.0013000026228837669,WHITE,True,CORRECT,0.724685799999861,724.685799999861
6,20260325_140431,D,J,False,AUTOMATION2,2,278,578,fixed_delta,0.04169584712997743,0.012883078076194597,,,,,0.5544705583297708,1996,1604,1,0.65,BLACK,WHITE,False,0,0.0013999997463542968,BLACK,True,CORRECT,0.5592644999996992,559.2644999996992
6,20260325_140431,D,J,False,AUTOMATION2,2,279,579,fixed_delta,0.04169584712997743,0.012883078076194597,,,,,0.46580393139750537,1677,1923,1,0.65,WHITE,BLACK,False,0,0.0015000005078036338,WHITE,True,CORRECT,0.665903299999627,665.903299999627
6,20260325_140431,D,J,False,AUTOMATION2,2,280,580,fixed_delta,0.04169584712997743,0.012883078076194597,,,,,0.4668264405363525,1681,1919,1,0.65,WHITE,BLACK,False,0,0.0016000012692529708,WHITE,True,CORRECT,0.6615263999992749,661.5263999992749
6,20260325_140431,D,J,False,AUTOMATION2,2,281,581,fixed_delta,0.04169584712997743,0.012883078076194597,,,,,0.4826579195779668,1738,1862,1,0.65,WHITE,BLACK,False,0,0.0012999989849049598,BLACK,False,INCORRECT,0.9746133000007831,974.613300000783
6,20260325_140431,D,J,False,AUTOMATION2,2,282,582,fixed_delta,0.04169584712997743,0.012883078076194597,,,,,0.5374166434465372,1935,1665,1,0.65,BLACK,BLACK,True,0,0.0015000005078036338,WHITE,False,INCORRECT,0.6393869999992603,639.3869999992603
6,20260325_140431,D,J,False,AUTOMATION2,2,283,583,fixed_delta,0.04169584712997743,0.012883078076194597,,,,,0.4701881989077851,1693,1907,1,0.65,WHITE,WHITE,True,0,0.0018000027921516448,WHITE,True,CORRECT,0.571540200002346,571.540200002346
6,20260325_140431,D,J,False,AUTOMATION2,2,284,584,fixed_delta,0.04169584712997743,0.012883078076194597,,,,,0.543655225524749,1957,1643,1,0.65,BLACK,BLACK,True,0,0.0012999989849049598,BLACK,True,CORRECT,0.9850632999987283,985.0632999987283
6,20260325_140431,D,J,False,AUTOMATION2,2,285,585,fixed_delta,0.04169584712997743,0.012883078076194597,,,,,0.5459977562867354,1966,1634,1,0.65,BLACK,BLACK,True,0,0.0020000006770715117,WHITE,False,INCORRECT,0.9075601000004099,907.5601000004099
6,20260325_140431,D,J,False,AUTOMATION2,2,286,586,fixed_delta,0.04169584712997743,0.012883078076194597,,,,,0.5445282502990056,1960,1640,1,0.65,BLACK,BLACK,True,0,0.0016000012692529708,BLACK,True,CORRECT,0.6546001999995497,654.6001999995497
6,20260325_140431,D,J,False,AUTOMATION2,2,287,587,fixed_delta,0.04169584712997743,0.012883078076194597,,,,,0.5472534363435638,1970,1630,1,0.65,BLACK,WHITE,False,0,0.0015000005078036338,BLACK,True,CORRECT,0.9760048999996798,976.0048999996798
6,20260325_140431,D,J,False,AUTOMATION2,2,288,588,fixed_delta,0.04169584712997743,0.012883078076194597,,,,,0.4721092091766326,1700,1900,1,0.65,WHITE,BLACK,False,0,0.0013000026228837669,WHITE,True,CORRECT,0.8845059000013862,884.5059000013862
6,20260325_140431,D,J,False,AUTOMATION2,2,289,589,fixed_delta,0.04169584712997743,0.012883078076194597,,,,,0.4581837769835953,1649,1951,1,0.65,WHITE,WHITE,True,0,0.0014999968698248267,WHITE,True,CORRECT,0.7499584999968647,749.9584999968647
6,20260325_140431,D,J,False,AUTOMATION2,2,290,590,fixed_delta,0.04169584712997743,0.012883078076194597,,,,,0.43061177302424514,1550,2050,1,0.65,WHITE,BLACK,False,0,0.0013000026228837669,WHITE,True,CORRECT,1.5139635000014096,1513.9635000014096
6,20260325_140431,D,J,False,AUTOMATION2,2,291,591,fixed_delta,0.04169584712997743,0.012883078076194597,,,,,0.467369955184569,1683,1917,1,0.65,WHITE,BLACK,False,0,0.0012999989849049598,BLACK,False,INCORRECT,1.2289023000012094,1228.9023000012094
6,20260325_140431,D,J,False,AUTOMATION2,2,292,592,fixed_delta,0.04169584712997743,0.012883078076194597,,,,,0.44283028061433743,1594,2006,1,0.65,WHITE,WHITE,True,0,0.0015000005078036338,WHITE,True,CORRECT,0.584190599998692,584.190599998692
6,20260325_140431,D,J,False,AUTOMATION2,2,293,593,fixed_delta,0.04169584712997743,0.012883078076194597,,,,,0.4590013657509931,1652,1948,1,0.65,WHITE,WHITE,True,0,0.0013999997463542968,WHITE,True,CORRECT,1.1811101000021154,1181.1101000021154
6,20260325_140431,D,J,False,AUTOMATION2,2,294,594,fixed_delta,0.04169584712997743,0.012883078076194597,,,,,0.4619350428470263,1663,1937,1,0.65,WHITE,BLACK,False,0,0.0013000026228837669,WHITE,True,CORRECT,0.7290738000010606,729.0738000010606
6,20260325_140431,D,J,False,AUTOMATION2,2,295,595,fixed_delta,0.04169584712997743,0.012883078076194597,,,,,0.46278902269358535,1666,1934,1,0.65,WHITE,WHITE,True,0,0.0013000026228837669,WHITE,True,CORRECT,0.6978577000008954,697.8577000008954
6,20260325_140431,D,J,False,AUTOMATION2,2,296,596,fixed_delta,0.04169584712997743,0.012883078076194597,,,,,0.5375157646203349,1935,1665,1,0.65,BLACK,BLACK,True,0,0.0011999982234556228,BLACK,True,CORRECT,1.0650491999986116,1065.0491999986116
6,20260325_140431,D,J,False,AUTOMATION2,2,297,597,fixed_delta,0.04169584712997743,0.012883078076194597,,,,,0.4539065125760169,1634,1966,1,0.65,WHITE,BLACK,False,0,0.0012000018614344299,WHITE,True,CORRECT,0.7185989999998128,718.5989999998128
6,20260325_140431,D,J,False,AUTOMATION2,2,298,598,fixed_delta,0.04169584712997743,0.012883078076194597,,,,,0.4513646403696543,1625,1975,1,0.65,WHITE,WHITE,True,0,0.0012999989849049598,WHITE,True,CORRECT,0.5845144999984768,584.5144999984768
6,20260325_140431,D,J,False,AUTOMATION2,2,299,599,fixed_delta,0.04169584712997743,0.012883078076194597,,,,,0.46658916643029336,1680,1920,1,0.65,WHITE,WHITE,True,0,0.0013000026228837669,WHITE,True,CORRECT,0.6707423000007111,670.7423000007111
6,20260325_140431,D,J,False,AUTOMATION2,2,300,600,fixed_delta,0.04169584712997743,0.012883078076194597,,,,,0.47432476631027637,1708,1892,1,0.65,WHITE,BLACK,False,0,0.0015000005078036338,BLACK,False,INCORRECT,1.2759609000022465,1275.9609000022465
6,20260325_140431,D,J,False,AUTOMATION2,2,301,601,fixed_delta,0.04169584712997743,0.012883078076194597,,,,,0.4675746889630406,1683,1917,1,0.65,WHITE,WHITE,True,0,0.0016999983927235007,WHITE,True,CORRECT,0.5997551000000385,599.7551000000385
6,20260325_140431,D,J,False,AUTOMATION2,2,302,602,fixed_delta,0.04169584712997743,0.012883078076194597,,,,,0.5630294835904799,2027,1573,1,0.65,BLACK,WHITE,False,0,0.0016000012692529708,WHITE,False,INCORRECT,1.234954600000492,1234.954600000492
6,20260325_140431,D,J,False,AUTOMATION2,2,303,603,fixed_delta,0.04169584712997743,0.012883078076194597,,,,,0.5479164084124195,1972,1628,1,0.65,BLACK,WHITE,False,0,0.0016999983927235007,WHITE,False,INCORRECT,0.9990705999989586,999.0705999989586
6,20260325_140431,D,J,False,AUTOMATION2,2,304,604,fixed_delta,0.04169584712997743,0.012883078076194597,,,,,0.45797661294039516,1649,1951,1,0.65,WHITE,BLACK,False,0,0.0018000027921516448,WHITE,True,CORRECT,2.191468500001065,2191.468500001065
6,20260325_140431,D,J,False,AUTOMATION2,2,305,605,fixed_delta,0.04169584712997743,0.012883078076194597,,,,,0.53535408182901,1927,1673,1,0.65,BLACK,BLACK,True,0,0.0017000020307023078,WHITE,False,INCORRECT,0.771654000000126,771.654000000126
6,20260325_140431,D,J,False,AUTOMATION2,2,306,606,fixed_delta,0.04169584712997743,0.012883078076194597,,,,,0.46501233268508335,1674,1926,1,0.65,WHITE,BLACK,False,0,0.0018999999156221747,WHITE,True,CORRECT,0.6497125000023516,649.7125000023516
6,20260325_140431,D,J,False,AUTOMATION2,2,307,607,fixed_delta,0.04169584712997743,0.012883078076194597,,,,,0.4411795653231891,1588,2012,1,0.65,WHITE,WHITE,True,0,0.0012999989849049598,WHITE,True,CORRECT,0.6431312000022444,643.1312000022444
6,20260325_140431,D,J,False,AUTOMATION2,2,308,608,fixed_delta,0.04169584712997743,0.012883078076194597,,,,,0.4370649849412284,1573,2027,1,0.65,WHITE,WHITE,True,0,0.0020000006770715117,WHITE,True,CORRECT,0.5774277000018628,577.4277000018628
6,20260325_140431,D,J,False,AUTOMATION2,2,309,609,fixed_delta,0.04169584712997743,0.012883078076194597,,,,,0.46282681215950894,1666,1934,1,0.65,WHITE,WHITE,True,0,0.0016999983927235007,WHITE,True,CORRECT,0.5851292000006652,585.1292000006652
6,20260325_140431,D,J,False,AUTOMATION2,2,310,610,fixed_delta,0.04169584712997743,0.012883078076194597,,,,,0.45008274881823596,1620,1980,1,0.65,WHITE,BLACK,False,0,0.0015999976312741637,WHITE,True,CORRECT,0.6421744999970542,642.1744999970542
6,20260325_140431,D,J,False,AUTOMATION2,2,311,611,fixed_delta,0.04169584712997743,0.012883078076194597,,,,,0.5363942599401942,1931,1669,1,0.65,BLACK,WHITE,False,0,0.0016000012692529708,BLACK,True,CORRECT,0.718784600001527,718.784600001527
6,20260325_140431,D,J,False,AUTOMATION2,2,312,612,fixed_delta,0.04169584712997743,0.012883078076194597,,,,,0.46100842872920417,1660,1940,1,0.65,WHITE,BLACK,False,0,0.0016000012692529708,WHITE,True,CORRECT,0.5995093999990786,599.5093999990786
6,20260325_140431,D,J,False,AUTOMATION2,2,313,613,fixed_delta,0.04169584712997743,0.012883078076194597,,,,,0.45042220872385746,1622,1978,1,0.65,WHITE,WHITE,True,0,0.0013999997463542968,WHITE,True,CORRECT,0.7037836000017705,703.7836000017705
6,20260325_140431,D,J,False,AUTOMATION2,2,314,614,fixed_delta,0.04169584712997743,0.012883078076194597,,,,,0.4684491108077519,1686,1914,1,0.65,WHITE,WHITE,True,0,0.0013999997463542968,WHITE,True,CORRECT,0.6482016000009025,648.2016000009025
6,20260325_140431,D,J,False,AUTOMATION2,2,315,615,fixed_delta,0.04169584712997743,0.012883078076194597,,,,,0.46533748987137724,1675,1925,1,0.65,WHITE,WHITE,True,0,0.0015000005078036338,WHITE,True,CORRECT,0.636137299999973,636.137299999973
6,20260325_140431,D,J,False,AUTOMATION2,2,316,616,fixed_delta,0.04169584712997743,0.012883078076194597,,,,,0.5690356298130023,2049,1551,1,0.65,BLACK,BLACK,True,0,0.0012999989849049598,BLACK,True,CORRECT,0.7566511000004539,756.6511000004539
6,20260325_140431,D,J,False,AUTOMATION2,2,317,617,fixed_delta,0.04169584712997743,0.012883078076194597,,,,,0.4656097634032455,1676,1924,1,0.65,WHITE,WHITE,True,0,0.0017999991541728377,WHITE,True,CORRECT,0.5503717999999935,550.3717999999935
6,20260325_140431,D,J,False,AUTOMATION2,2,318,618,fixed_delta,0.04169584712997743,0.012883078076194597,,,,,0.5426993645241366,1954,1646,1,0.65,BLACK,BLACK,True,0,0.0015000005078036338,BLACK,True,CORRECT,0.7079434000006586,707.9434000006586
6,20260325_140431,D,J,False,AUTOMATION2,2,319,619,fixed_delta,0.04169584712997743,0.012883078076194597,,,,,0.44638608434501975,1607,1993,1,0.65,WHITE,BLACK,False,0,0.0011999982234556228,WHITE,True,CORRECT,0.6616080999992846,661.6080999992846
6,20260325_140431,D,J,False,AUTOMATION2,2,320,620,fixed_delta,0.04169584712997743,0.012883078076194597,,,,,0.4664997746601294,1679,1921,1,0.65,WHITE,WHITE,True,0,0.0012999989849049598,WHITE,True,CORRECT,0.7559781999989355,755.9781999989355
6,20260325_140431,D,J,False,AUTOMATION2,2,321,621,fixed_delta,0.04169584712997743,0.012883078076194597,,,,,0.5349673350119908,1926,1674,1,0.65,BLACK,BLACK,True,0,0.0012999989849049598,BLACK,True,CORRECT,0.9789477999984229,978.9477999984229
6,20260325_140431,D,J,False,AUTOMATION2,2,322,622,fixed_delta,0.04169584712997743,0.012883078076194597,,,,,0.4569189380047192,1645,1955,1,0.65,WHITE,BLACK,False,0,0.0015000005078036338,WHITE,True,CORRECT,0.6411578000006557,641.1578000006557
6,20260325_140431,D,J,False,AUTOMATION2,2,323,623,fixed_delta,0.04169584712997743,0.012883078076194597,,,,,0.45811386850234936,1649,1951,1,0.65,WHITE,WHITE,True,0,0.0012999989849049598,WHITE,True,CORRECT,2.4933419000008143,2493.3419000008143
6,20260325_140431,D,J,False,AUTOMATION2,2,324,624,fixed_delta,0.04169584712997743,0.012883078076194597,,,,,0.5355917686015005,1928,1672,1,0.65,BLACK,WHITE,False,0,0.0011000010999850929,BLACK,True,CORRECT,1.2831612000009045,1283.1612000009045
6,20260325_140431,D,J,False,AUTOMATION2,2,325,625,fixed_delta,0.04169584712997743,0.012883078076194597,,,,,0.4382047467796237,1578,2022,1,0.65,WHITE,WHITE,True,0,0.0012999989849049598,WHITE,True,CORRECT,0.7040831000012986,704.0831000012986
6,20260325_140431,D,J,False,AUTOMATION2,2,326,626,fixed_delta,0.04169584712997743,0.012883078076194597,,,,,0.4566923400398757,1644,1956,1,0.65,WHITE,BLACK,False,0,0.0013000026228837669,WHITE,True,CORRECT,1.2099514000001363,1209.9514000001363
6,20260325_140431,D,J,False,AUTOMATION2,2,327,627,fixed_delta,0.04169584712997743,0.012883078076194597,,,,,0.45123941088529507,1624,1976,1,0.65,WHITE,WHITE,True,0,0.001400003384333104,WHITE,True,CORRECT,0.7498754000007466,749.8754000007466
6,20260325_140431,D,J,False,AUTOMATION2,2,328,628,fixed_delta,0.04169584712997743,0.012883078076194597,,,,,0.5234509482357113,1884,1716,1,0.65,BLACK,WHITE,False,0,0.0013999997463542968,BLACK,True,CORRECT,1.6125275000013062,1612.5275000013062
6,20260325_140431,D,J,False,AUTOMATION2,2,329,629,fixed_delta,0.04169584712997743,0.012883078076194597,,,,,0.5334845547542627,1921,1679,1,0.65,BLACK,BLACK,True,0,0.0017000020307023078,BLACK,True,CORRECT,0.7122396000013396,712.2396000013396
6,20260325_140431,D,J,False,AUTOMATION2,2,330,630,fixed_delta,0.04169584712997743,0.012883078076194597,,,,,0.4983351264844372,1794,1806,1,0.65,WHITE,WHITE,True,0,0.0013999997463542968,WHITE,True,CORRECT,0.7847228999999061,784.7228999999061
6,20260325_140431,D,J,False,AUTOMATION2,2,331,631,fixed_delta,0.04169584712997743,0.012883078076194597,,,,,0.5544532023524507,1996,1604,1,0.65,BLACK,BLACK,True,0,0.0015000005078036338,BLACK,True,CORRECT,0.5848795999991125,584.8795999991125
6,20260325_140431,D,J,False,AUTOMATION2,2,332,632,fixed_delta,0.04169584712997743,0.012883078076194597,,,,,0.5397737167579523,1943,1657,1,0.65,BLACK,BLACK,True,0,0.0015999976312741637,BLACK,True,CORRECT,0.7100347999985388,710.0347999985388
6,20260325_140431,D,J,False,AUTOMATION2,2,333,633,fixed_delta,0.04169584712997743,0.012883078076194597,,,,,0.5401473690643998,1945,1655,1,0.65,BLACK,WHITE,False,0,0.0015000005078036338,BLACK,True,CORRECT,1.3272699999979523,1327.2699999979523
6,20260325_140431,D,J,False,AUTOMATION2,2,334,634,fixed_delta,0.04169584712997743,0.012883078076194597,,,,,0.46564944684792975,1676,1924,1,0.65,WHITE,WHITE,True,0,0.0012000018614344299,WHITE,True,CORRECT,0.6595765999991272,659.5765999991272
6,20260325_140431,D,J,False,AUTOMATION2,2,335,635,fixed_delta,0.04169584712997743,0.012883078076194597,,,,,0.4557724164309073,1641,1959,1,0.65,WHITE,WHITE,True,0,0.0017999991541728377,WHITE,True,CORRECT,0.8151049999978568,815.1049999978568
6,20260325_140431,D,J,False,AUTOMATION2,2,336,636,fixed_delta,0.04169584712997743,0.012883078076194597,,,,,0.5373829655466045,1935,1665,1,0.65,BLACK,WHITE,False,0,0.0013999997463542968,BLACK,True,CORRECT,1.842590399999608,1842.590399999608
6,20260325_140431,D,J,False,AUTOMATION2,2,337,637,fixed_delta,0.04169584712997743,0.012883078076194597,,,,,0.45364047117452166,1633,1967,1,0.65,WHITE,WHITE,True,0,0.0020000006770715117,WHITE,True,CORRECT,0.5571428000002925,557.1428000002925
6,20260325_140431,D,J,False,AUTOMATION2,2,338,638,fixed_delta,0.04169584712997743,0.012883078076194597,,,,,0.44302362923709465,1595,2005,1,0.65,WHITE,BLACK,False,0,0.0015000005078036338,WHITE,True,CORRECT,0.7436104000007617,743.6104000007617
6,20260325_140431,D,J,False,AUTOMATION2,2,339,639,fixed_delta,0.04169584712997743,0.012883078076194597,,,,,0.5293421043615543,1906,1694,1,0.65,BLACK,BLACK,True,0,0.0013000026228837669,BLACK,True,CORRECT,0.7809209000006376,780.9209000006376
6,20260325_140431,D,J,False,AUTOMATION2,2,340,640,fixed_delta,0.04169584712997743,0.012883078076194597,,,,,0.46908901737916425,1689,1911,1,0.65,WHITE,WHITE,True,0,0.0018000027921516448,WHITE,True,CORRECT,0.8979909000008774,897.9909000008774
6,20260325_140431,D,J,False,AUTOMATION2,2,341,641,fixed_delta,0.04169584712997743,0.012883078076194597,,,,,0.4768467650065926,1717,1883,1,0.65,WHITE,WHITE,True,0,0.0012999989849049598,WHITE,True,CORRECT,0.8543241000006674,854.3241000006674
6,20260325_140431,D,J,False,AUTOMATION2,2,342,642,fixed_delta,0.04169584712997743,0.012883078076194597,,,,,0.45316292008850523,1631,1969,1,0.65,WHITE,WHITE,True,0,0.0013000026228837669,WHITE,True,CORRECT,0.6536752000029082,653.6752000029082
6,20260325_140431,D,J,False,AUTOMATION2,2,343,643,fixed_delta,0.04169584712997743,0.012883078076194597,,,,,0.5348995075109968,1926,1674,1,0.65,BLACK,BLACK,True,0,0.0015000005078036338,BLACK,True,CORRECT,1.2199579999978596,1219.9579999978596
6,20260325_140431,D,J,False,AUTOMATION2,2,344,644,fixed_delta,0.04169584712997743,0.012883078076194597,,,,,0.5297666510609109,1907,1693,1,0.65,BLACK,WHITE,False,0,0.0013999997463542968,WHITE,False,INCORRECT,0.718806199998653,718.806199998653
6,20260325_140431,D,J,False,AUTOMATION2,2,345,645,fixed_delta,0.04169584712997743,0.012883078076194597,,,,,0.5597967890171957,2015,1585,1,0.65,BLACK,BLACK,True,0,0.0013000026228837669,BLACK,True,CORRECT,0.6074265999995987,607.4265999995987
6,20260325_140431,D,J,False,AUTOMATION2,2,346,646,fixed_delta,0.04169584712997743,0.012883078076194597,,,,,0.4713183061320183,1697,1903,1,0.65,WHITE,WHITE,True,0,0.0015999976312741637,WHITE,True,CORRECT,0.7286805999974604,728.6805999974604
6,20260325_140431,D,J,False,AUTOMATION2,2,347,647,fixed_delta,0.04169584712997743,0.012883078076194597,,,,,0.45909483156493597,1653,1947,1,0.65,WHITE,BLACK,False,0,0.0013000026228837669,BLACK,False,INCORRECT,0.689159200002905,689.159200002905
6,20260325_140431,D,J,False,AUTOMATION2,2,348,648,fixed_delta,0.04169584712997743,0.012883078076194597,,,,,0.45103197842127857,1624,1976,1,0.65,WHITE,BLACK,False,0,0.0013999997463542968,WHITE,True,CORRECT,0.6562979999980598,656.2979999980598
6,20260325_140431,D,J,False,AUTOMATION2,2,349,649,fixed_delta,0.04169584712997743,0.012883078076194597,,,,,0.551751065029298,1986,1614,1,0.65,BLACK,WHITE,False,0,0.0013999997463542968,BLACK,True,CORRECT,0.7820804999973916,782.0804999973916
6,20260325_140431,D,J,False,AUTOMATION2,2,350,650,fixed_delta,0.04169584712997743,0.012883078076194597,,,,,0.44632261053634265,1607,1993,1,0.65,WHITE,WHITE,True,0,0.0015000005078036338,WHITE,True,CORRECT,0.5898516000015661,589.8516000015661
6,20260325_140431,D,J,False,AUTOMATION2,2,351,651,fixed_delta,0.04169584712997743,0.012883078076194597,,,,,0.5242220649726029,1887,1713,1,0.65,BLACK,WHITE,False,0,0.0013999997463542968,BLACK,True,CORRECT,1.0107544000020425,1010.7544000020425
6,20260325_140431,D,J,False,AUTOMATION2,2,352,652,fixed_delta,0.04169584712997743,0.012883078076194597,,,,,0.4559161247723356,1641,1959,1,0.65,WHITE,WHITE,True,0,0.0015000005078036338,WHITE,True,CORRECT,0.6342293999987305,634.2293999987305
6,20260325_140431,D,J,False,AUTOMATION2,2,353,653,fixed_delta,0.04169584712997743,0.012883078076194597,,,,,0.5532951521260917,1992,1608,1,0.65,BLACK,BLACK,True,0,0.0022000021999701858,BLACK,True,CORRECT,0.7482560000025842,748.2560000025842
6,20260325_140431,D,J,False,AUTOMATION2,2,354,654,fixed_delta,0.04169584712997743,0.012883078076194597,,,,,0.5438193328728514,1958,1642,1,0.65,BLACK,BLACK,True,0,0.0012999989849049598,BLACK,True,CORRECT,1.9041231999981392,1904.1231999981392
6,20260325_140431,D,J,False,AUTOMATION2,2,355,655,fixed_delta,0.04169584712997743,0.012883078076194597,,,,,0.45347423749623816,1633,1967,1,0.65,WHITE,BLACK,False,0,0.0014999968698248267,WHITE,True,CORRECT,0.7224699999969744,722.4699999969744
6,20260325_140431,D,J,False,AUTOMATION2,2,356,656,fixed_delta,0.04169584712997743,0.012883078076194597,,,,,0.5150406722452965,1854,1746,1,0.65,BLACK,WHITE,False,0,0.0016000012692529708,BLACK,True,CORRECT,1.8733793999999762,1873.3793999999762
6,20260325_140431,D,J,False,AUTOMATION2,2,357,657,fixed_delta,0.04169584712997743,0.012883078076194597,,,,,0.4809910478042729,1732,1868,1,0.65,WHITE,WHITE,True,0,0.0012000018614344299,BLACK,False,INCORRECT,2.0718105000014475,2071.8105000014475
6,20260325_140431,D,J,False,AUTOMATION2,2,358,658,fixed_delta,0.04169584712997743,0.012883078076194597,,,,,0.5286806042108896,1903,1697,1,0.65,BLACK,BLACK,True,0,0.0017999991541728377,BLACK,True,CORRECT,2.9879264000010153,2987.9264000010153
6,20260325_140431,D,J,False,AUTOMATION2,2,359,659,fixed_delta,0.04169584712997743,0.012883078076194597,,,,,0.46501189777365887,1674,1926,1,0.65,WHITE,WHITE,True,0,0.0013999997463542968,WHITE,True,CORRECT,0.7782184999996389,778.2184999996389
6,20260325_140431,D,J,False,AUTOMATION2,2,360,660,fixed_delta,0.04169584712997743,0.012883078076194597,,,,,0.44716139778512326,1610,1990,1,0.65,WHITE,WHITE,True,0,0.0013999997463542968,WHITE,True,CORRECT,1.34283940000023,1342.83940000023
6,20260325_140431,D,J,False,AUTOMATION2,2,361,661,fixed_delta,0.04169584712997743,0.012883078076194597,,,,,0.462918862909471,1667,1933,1,0.65,WHITE,WHITE,True,0,0.0015000005078036338,WHITE,True,CORRECT,2.2101008000026923,2210.1008000026923
6,20260325_140431,D,J,False,AUTOMATION2,2,362,662,fixed_delta,0.04169584712997743,0.012883078076194597,,,,,0.4621284851861233,1664,1936,1,0.65,WHITE,WHITE,True,0,0.0015999976312741637,WHITE,True,CORRECT,1.4169436999982281,1416.943699998228
6,20260325_140431,D,J,False,AUTOMATION2,2,363,663,fixed_delta,0.04169584712997743,0.012883078076194597,,,,,0.5415016293701943,1949,1651,1,0.65,BLACK,WHITE,False,0,0.0020000006770715117,BLACK,True,CORRECT,1.4010589000026812,1401.0589000026812
6,20260325_140431,D,J,False,AUTOMATION2,2,364,664,fixed_delta,0.04169584712997743,0.012883078076194597,,,,,0.5022032894280491,1808,1792,1,0.65,BLACK,BLACK,True,0,0.0015000005078036338,BLACK,True,CORRECT,1.873317899997346,1873.317899997346
6,20260325_140431,D,J,False,AUTOMATION2,2,365,665,fixed_delta,0.04169584712997743,0.012883078076194597,,,,,0.5279003851389904,1900,1700,1,0.65,BLACK,BLACK,True,0,0.0012999989849049598,BLACK,True,CORRECT,2.0090906000004907,2009.0906000004907
6,20260325_140431,D,J,False,AUTOMATION2,2,366,666,fixed_delta,0.04169584712997743,0.012883078076194597,,,,,0.5570968891743847,2006,1594,1,0.65,BLACK,BLACK,True,0,0.0015000005078036338,BLACK,True,CORRECT,3.68106970000008,3681.06970000008
6,20260325_140431,D,J,False,AUTOMATION2,2,367,667,fixed_delta,0.04169584712997743,0.012883078076194597,,,,,0.5285598030829469,1903,1697,1,0.65,BLACK,BLACK,True,0,0.0015000005078036338,BLACK,True,CORRECT,1.622548100000131,1622.548100000131
6,20260325_140431,D,J,False,AUTOMATION2,2,368,668,fixed_delta,0.04169584712997743,0.012883078076194597,,,,,0.47887132352973266,1724,1876,1,0.65,WHITE,BLACK,False,0,0.0013999997463542968,WHITE,True,CORRECT,1.138990700001159,1138.990700001159
6,20260325_140431,D,J,False,AUTOMATION2,2,369,669,fixed_delta,0.04169584712997743,0.012883078076194597,,,,,0.4587181086529973,1651,1949,1,0.65,WHITE,WHITE,True,0,0.001400003384333104,WHITE,True,CORRECT,0.9993944000016199,999.3944000016199
6,20260325_140431,D,J,False,AUTOMATION2,2,370,670,fixed_delta,0.04169584712997743,0.012883078076194597,,,,,0.5557115606080855,2001,1599,1,0.65,BLACK,WHITE,False,0,0.0020000006770715117,BLACK,True,CORRECT,1.2906306000004406,1290.6306000004406
6,20260325_140431,D,J,False,AUTOMATION2,2,371,671,fixed_delta,0.04169584712997743,0.012883078076194597,,,,,0.45034179274066755,1621,1979,1,0.65,WHITE,BLACK,False,0,0.0013999997463542968,WHITE,True,CORRECT,1.5497746000000916,1549.7746000000916
6,20260325_140431,D,J,False,AUTOMATION2,2,372,672,fixed_delta,0.04169584712997743,0.012883078076194597,,,,,0.4460660193661715,1606,1994,1,0.65,WHITE,WHITE,True,0,0.0018999999156221747,WHITE,True,CORRECT,0.8786473000000115,878.6473000000115
6,20260325_140431,D,J,False,AUTOMATION2,2,373,673,fixed_delta,0.04169584712997743,0.012883078076194597,,,,,0.48847307812632007,1759,1841,1,0.65,WHITE,WHITE,True,0,0.0015000005078036338,WHITE,True,CORRECT,0.8912469999995665,891.2469999995665
6,20260325_140431,D,J,False,AUTOMATION2,2,374,674,fixed_delta,0.04169584712997743,0.012883078076194597,,,,,0.5286606020225918,1903,1697,1,0.65,BLACK,WHITE,False,0,0.0012999989849049598,WHITE,False,INCORRECT,0.7178840999986278,717.8840999986278
6,20260325_140431,D,J,False,AUTOMATION2,2,375,675,fixed_delta,0.04169584712997743,0.012883078076194597,,,,,0.4620225673088168,1663,1937,1,0.65,WHITE,WHITE,True,0,0.0017999991541728377,WHITE,True,CORRECT,0.6458396000016364,645.8396000016364
6,20260325_140431,D,J,False,AUTOMATION2,2,376,676,fixed_delta,0.04169584712997743,0.012883078076194597,,,,,0.5508278913224405,1983,1617,1,0.65,BLACK,BLACK,True,0,0.0017000020307023078,BLACK,True,CORRECT,0.8781779000019014,878.1779000019014
6,20260325_140431,D,J,False,AUTOMATION2,2,377,677,fixed_delta,0.04169584712997743,0.012883078076194597,,,,,0.442374864596903,1593,2007,1,0.65,WHITE,BLACK,False,0,0.0012000018614344299,WHITE,True,CORRECT,0.6613251000017044,661.3251000017044
6,20260325_140431,D,J,False,AUTOMATION2,2,378,678,fixed_delta,0.04169584712997743,0.012883078076194597,,,,,0.5532522440194234,1992,1608,1,0.65,BLACK,WHITE,False,0,0.0012999989849049598,BLACK,True,CORRECT,0.6578816000001098,657.8816000001098
6,20260325_140431,D,J,False,AUTOMATION2,2,379,679,fixed_delta,0.04169584712997743,0.012883078076194597,,,,,0.4436717216715048,1597,2003,1,0.65,WHITE,BLACK,False,0,0.0013000026228837669,WHITE,True,CORRECT,0.6187390000013693,618.7390000013693
6,20260325_140431,D,J,False,AUTOMATION2,2,380,680,fixed_delta,0.04169584712997743,0.012883078076194597,,,,,0.5399610576076609,1944,1656,1,0.65,BLACK,BLACK,True,0,0.0014999968698248267,BLACK,True,CORRECT,1.1347986999971909,1134.7986999971909
6,20260325_140431,D,J,False,AUTOMATION2,2,381,681,fixed_delta,0.04169584712997743,0.012883078076194597,,,,,0.5579148031818346,2008,1592,1,0.65,BLACK,BLACK,True,0,0.0016999983927235007,WHITE,False,INCORRECT,0.7067797999989125,706.7797999989125
6,20260325_140431,D,J,False,AUTOMATION2,2,382,682,fixed_delta,0.04169584712997743,0.012883078076194597,,,,,0.5439699065946869,1958,1642,1,0.65,BLACK,BLACK,True,0,0.0013999997463542968,WHITE,False,INCORRECT,0.6405701000003319,640.5701000003319
6,20260325_140431,D,J,False,AUTOMATION2,2,383,683,fixed_delta,0.04169584712997743,0.012883078076194597,,,,,0.4480285987796444,1613,1987,1,0.65,WHITE,WHITE,True,0,0.0021000014385208488,WHITE,True,CORRECT,0.5677686000017275,567.7686000017275
6,20260325_140431,D,J,False,AUTOMATION2,2,384,684,fixed_delta,0.04169584712997743,0.012883078076194597,,,,,0.4709638636007086,1695,1905,1,0.65,WHITE,WHITE,True,0,0.0013999997463542968,WHITE,True,CORRECT,0.7192374999976892,719.2374999976892
6,20260325_140431,D,J,False,AUTOMATION2,2,385,685,fixed_delta,0.04169584712997743,0.012883078076194597,,,,,0.5286669157343001,1903,1697,1,0.65,BLACK,BLACK,True,0,0.0016000012692529708,WHITE,False,INCORRECT,0.5382843000006687,538.2843000006687
6,20260325_140431,D,J,False,AUTOMATION2,2,386,686,fixed_delta,0.04169584712997743,0.012883078076194597,,,,,0.5762287520222831,2074,1526,1,0.65,BLACK,WHITE,False,0,0.0017000020307023078,BLACK,True,CORRECT,0.710592399998859,710.592399998859
6,20260325_140431,D,J,False,AUTOMATION2,2,387,687,fixed_delta,0.04169584712997743,0.012883078076194597,,,,,0.537609723905549,1935,1665,1,0.65,BLACK,BLACK,True,0,0.0013999997463542968,WHITE,False,INCORRECT,1.2541321999997308,1254.1321999997308
6,20260325_140431,D,J,False,AUTOMATION2,2,388,688,fixed_delta,0.04169584712997743,0.012883078076194597,,,,,0.43246273672665675,1557,2043,1,0.65,WHITE,BLACK,False,0,0.0012999989849049598,WHITE,True,CORRECT,0.6011746000003768,601.1746000003768
6,20260325_140431,D,J,False,AUTOMATION2,2,389,689,fixed_delta,0.04169584712997743,0.012883078076194597,,,,,0.4602040249910077,1657,1943,1,0.65,WHITE,BLACK,False,0,0.0016999983927235007,WHITE,True,CORRECT,1.5202548999986902,1520.2548999986902
6,20260325_140431,D,J,False,AUTOMATION2,2,390,690,fixed_delta,0.04169584712997743,0.012883078076194597,,,,,0.4703739402689937,1693,1907,1,0.65,WHITE,WHITE,True,0,0.0013999997463542968,WHITE,True,CORRECT,0.5824046000016097,582.4046000016097
6,20260325_140431,D,J,False,AUTOMATION2,2,391,691,fixed_delta,0.04169584712997743,0.012883078076194597,,,,,0.46615117686017676,1678,1922,1,0.65,WHITE,BLACK,False,0,0.0017999991541728377,WHITE,True,CORRECT,0.7053766999997606,705.3766999997606
6,20260325_140431,D,J,False,AUTOMATION2,2,392,692,fixed_delta,0.04169584712997743,0.012883078076194597,,,,,0.44851289939632644,1615,1985,1,0.65,WHITE,WHITE,True,0,0.0015000005078036338,WHITE,True,CORRECT,0.5769123999998556,576.9123999998556
6,20260325_140431,D,J,False,AUTOMATION2,2,393,693,fixed_delta,0.04169584712997743,0.012883078076194597,,,,,0.44526420173785797,1603,1997,1,0.65,WHITE,WHITE,True,0,0.0013999997463542968,WHITE,True,CORRECT,0.5383356000020285,538.3356000020285
6,20260325_140431,D,J,False,AUTOMATION2,2,394,694,fixed_delta,0.04169584712997743,0.012883078076194597,,,,,0.4352385116351766,1567,2033,1,0.65,WHITE,BLACK,False,0,0.0017000020307023078,WHITE,True,CORRECT,0.5705588999990141,570.5588999990141
6,20260325_140431,D,J,False,AUTOMATION2,2,395,695,fixed_delta,0.04169584712997743,0.012883078076194597,,,,,0.5197514063513892,1871,1729,1,0.65,BLACK,BLACK,True,0,0.0015000005078036338,BLACK,True,CORRECT,0.6178350000009232,617.8350000009232
6,20260325_140431,D,J,False,AUTOMATION2,2,396,696,fixed_delta,0.04169584712997743,0.012883078076194597,,,,,0.5381731910529574,1937,1663,1,0.65,BLACK,WHITE,False,0,0.0015000005078036338,BLACK,True,CORRECT,3.365887699997984,3365.887699997984
6,20260325_140431,D,J,False,AUTOMATION2,2,397,697,fixed_delta,0.04169584712997743,0.012883078076194597,,,,,0.5543738765393543,1996,1604,1,0.65,BLACK,BLACK,True,0,0.0015000005078036338,BLACK,True,CORRECT,0.6692650000004505,669.2650000004505
6,20260325_140431,D,J,False,AUTOMATION2,2,398,698,fixed_delta,0.04169584712997743,0.012883078076194597,,,,,0.5408321299884178,1947,1653,1,0.65,BLACK,BLACK,True,0,0.0012000018614344299,WHITE,False,INCORRECT,1.974151800000982,1974.151800000982
6,20260325_140431,D,J,False,AUTOMATION2,2,399,699,fixed_delta,0.04169584712997743,0.012883078076194597,,,,,0.43514570876380104,1567,2033,1,0.65,WHITE,WHITE,True,0,0.0015000005078036338,WHITE,True,CORRECT,1.3666535000011208,1366.6535000011208
6,20260325_140431,D,J,False,AUTOMATION2,2,400,700,fixed_delta,0.04169584712997743,0.012883078076194597,,,,,0.4687908239020343,1688,1912,1,0.65,WHITE,WHITE,True,0,0.0015000005078036338,BLACK,False,INCORRECT,0.6632310999993933,663.2310999993933
6,20260325_140431,D,J,False,AUTOMATION2,2,401,701,fixed_delta,0.04169584712997743,0.012883078076194597,,,,,0.44894738359756775,1616,1984,1,0.65,WHITE,WHITE,True,0,0.0013999997463542968,WHITE,True,CORRECT,0.5866685000000871,586.6685000000871
6,20260325_140431,D,J,False,AUTOMATION2,2,402,702,fixed_delta,0.04169584712997743,0.012883078076194597,,,,,0.4564096723103049,1643,1957,1,0.65,WHITE,WHITE,True,0,0.0012999989849049598,WHITE,True,CORRECT,0.7884321999990789,788.4321999990789
6,20260325_140431,D,J,False,AUTOMATION2,2,403,703,fixed_delta,0.04169584712997743,0.012883078076194597,,,,,0.46157552071369606,1662,1938,1,0.65,WHITE,BLACK,False,0,0.0016000012692529708,WHITE,True,CORRECT,0.7045399000016914,704.5399000016914
6,20260325_140431,D,J,False,AUTOMATION2,2,404,704,fixed_delta,0.04169584712997743,0.012883078076194597,,,,,0.5360581079433205,1930,1670,1,0.65,BLACK,WHITE,False,0,0.0016000012692529708,WHITE,False,INCORRECT,0.7456129000020155,745.6129000020155
6,20260325_140431,D,J,False,AUTOMATION2,2,405,705,fixed_delta,0.04169584712997743,0.012883078076194597,,,,,0.5391646541664957,1941,1659,1,0.65,BLACK,WHITE,False,0,0.0013000026228837669,BLACK,True,CORRECT,1.0809287000010954,1080.9287000010954
6,20260325_140431,D,J,False,AUTOMATION2,2,406,706,fixed_delta,0.04169584712997743,0.012883078076194597,,,,,0.4725145916863644,1701,1899,1,0.65,WHITE,WHITE,True,0,0.0020000006770715117,WHITE,True,CORRECT,0.6673136999997951,667.3136999997951
6,20260325_140431,D,J,False,AUTOMATION2,2,407,707,fixed_delta,0.04169584712997743,0.012883078076194597,,,,,0.5628815937077924,2026,1574,1,0.65,BLACK,BLACK,True,0,0.0013999997463542968,BLACK,True,CORRECT,0.8573228999994171,857.3228999994171
6,20260325_140431,D,J,False,AUTOMATION2,2,408,708,fixed_delta,0.04169584712997743,0.012883078076194597,,,,,0.46400675058450425,1670,1930,1,0.65,WHITE,BLACK,False,0,0.0011999982234556228,WHITE,True,CORRECT,1.127318800001376,1127.318800001376
6,20260325_140431,D,J,False,AUTOMATION2,2,409,709,fixed_delta,0.04169584712997743,0.012883078076194597,,,,,0.4642673598817665,1671,1929,1,0.65,WHITE,WHITE,True,0,0.0016000012692529708,BLACK,False,INCORRECT,1.2090166000016325,1209.0166000016325
6,20260325_140431,D,J,False,AUTOMATION2,2,410,710,fixed_delta,0.04169584712997743,0.012883078076194597,,,,,0.535944799862031,1929,1671,1,0.65,BLACK,WHITE,False,0,0.0012999989849049598,WHITE,False,INCORRECT,1.075419699998747,1075.419699998747
6,20260325_140431,D,J,False,AUTOMATION2,2,411,711,fixed_delta,0.04169584712997743,0.012883078076194597,,,,,0.464194117118475,1671,1929,1,0.65,WHITE,WHITE,True,0,0.0013999997463542968,WHITE,True,CORRECT,0.5711908000012045,571.1908000012045
6,20260325_140431,D,J,False,AUTOMATION2,2,412,712,fixed_delta,0.04169584712997743,0.012883078076194597,,,,,0.45103928071676735,1624,1976,1,0.65,WHITE,BLACK,False,0,0.0015000005078036338,WHITE,True,CORRECT,0.6302095999999437,630.2095999999437
