participant_id,run_timestamp,key_black,key_white,keymap_flip,block,block_idx,trial,global_trial,difficulty_mode,delta_fixed_mean,delta_fixed_sd,delta_stair_realised,delta_stair_mean,delta_step_down_used,delta_step_up_used,vblack_prop,n_vblack,n_vwhite,auto_on,aid_accuracy_setting,stimulus,aid_label,aid_correct,aid_onset_ms,aid_onset_ms_rel,response,correct,feedback,rt_s,rt_ms
6,20260325_140431,D,J,False,AUTOMATION1,3,1,801,fixed_delta,0.04169584712997743,0.012883078076194597,,,,,0.5533845769816474,1992,1608,1,0.95,BLACK,WHITE,False,0,0.0017999991541728377,WHITE,False,INCORRECT,0.7565876000007847,756.5876000007847
6,20260325_140431,D,J,False,AUTOMATION1,3,2,802,fixed_delta,0.04169584712997743,0.012883078076194597,,,,,0.5189012955242506,1868,1732,1,0.95,BLACK,BLACK,True,0,0.0016999983927235007,BLACK,True,CORRECT,0.7899746000002779,789.9746000002779
6,20260325_140431,D,J,False,AUTOMATION1,3,3,803,fixed_delta,0.04169584712997743,0.012883078076194597,,,,,0.46303238792477225,1667,1933,1,0.95,WHITE,WHITE,True,0,0.0017000020307023078,WHITE,True,CORRECT,0.5588048000026902,558.8048000026902
6,20260325_140431,D,J,False,AUTOMATION1,3,4,804,fixed_delta,0.04169584712997743,0.012883078076194597,,,,,0.43556242057264716,1568,2032,1,0.95,WHITE,BLACK,False,0,0.0024000000848900527,WHITE,True,CORRECT,0.9461181999977271,946.1181999977271
6,20260325_140431,D,J,False,AUTOMATION1,3,5,805,fixed_delta,0.04169584712997743,0.012883078076194597,,,,,0.47134257492872167,1697,1903,1,0.95,WHITE,WHITE,True,0,0.0016000012692529708,WHITE,True,CORRECT,0.8138846000001649,813.8846000001649
6,20260325_140431,D,J,False,AUTOMATION1,3,6,806,fixed_delta,0.04169584712997743,0.012883078076194597,,,,,0.5607277283009423,2019,1581,1,0.95,BLACK,BLACK,True,0,0.0017000020307023078,BLACK,True,CORRECT,0.877687700001843,877.687700001843
6,20260325_140431,D,J,False,AUTOMATION1,3,7,807,fixed_delta,0.04169584712997743,0.012883078076194597,,,,,0.45186834996913583,1627,1973,1,0.95,WHITE,WHITE,True,0,0.0012999989849049598,WHITE,True,CORRECT,1.3073594999987108,1307.3594999987108
6,20260325_140431,D,J,False,AUTOMATION1,3,8,808,fixed_delta,0.04169584712997743,0.012883078076194597,,,,,0.4767741904543445,1716,1884,1,0.95,WHITE,WHITE,True,0,0.0015000005078036338,WHITE,True,CORRECT,0.5716171999993094,571.6171999993094
6,20260325_140431,D,J,False,AUTOMATION1,3,9,809,fixed_delta,0.04169584712997743,0.012883078076194597,,,,,0.45612366378377106,1642,1958,1,0.95,WHITE,WHITE,True,0,0.0017000020307023078,WHITE,True,CORRECT,1.0187587000000349,1018.7587000000349
6,20260325_140431,D,J,False,AUTOMATION1,3,10,810,fixed_delta,0.04169584712997743,0.012883078076194597,,,,,0.549044319285497,1977,1623,1,0.95,BLACK,BLACK,True,0,0.0012999989849049598,BLACK,True,CORRECT,0.5707325000003038,570.7325000003038
6,20260325_140431,D,J,False,AUTOMATION1,3,11,811,fixed_delta,0.04169584712997743,0.012883078076194597,,,,,0.5368801360412697,1933,1667,1,0.95,BLACK,BLACK,True,0,0.0012999989849049598,WHITE,False,INCORRECT,0.6891097000006994,689.1097000006994
6,20260325_140431,D,J,False,AUTOMATION1,3,12,812,fixed_delta,0.04169584712997743,0.012883078076194597,,,,,0.4552346592295479,1639,1961,1,0.95,WHITE,WHITE,True,0,0.0017000020307023078,WHITE,True,CORRECT,0.7067519000011089,706.7519000011089
6,20260325_140431,D,J,False,AUTOMATION1,3,13,813,fixed_delta,0.04169584712997743,0.012883078076194597,,,,,0.42952284573895094,1546,2054,1,0.95,WHITE,WHITE,True,0,0.0013999997463542968,WHITE,True,CORRECT,0.5444982999979402,544.4982999979402
6,20260325_140431,D,J,False,AUTOMATION1,3,14,814,fixed_delta,0.04169584712997743,0.012883078076194597,,,,,0.4557726853727913,1641,1959,1,0.95,WHITE,WHITE,True,0,0.0012999989849049598,WHITE,True,CORRECT,0.5877517999979318,587.7517999979318
6,20260325_140431,D,J,False,AUTOMATION1,3,15,815,fixed_delta,0.04169584712997743,0.012883078076194597,,,,,0.4534602694007448,1632,1968,1,0.95,WHITE,WHITE,True,0,0.0014999968698248267,WHITE,True,CORRECT,0.4929406999981438,492.9406999981438
6,20260325_140431,D,J,False,AUTOMATION1,3,16,816,fixed_delta,0.04169584712997743,0.012883078076194597,,,,,0.5305666502648037,1910,1690,1,0.95,BLACK,BLACK,True,0,0.0015000005078036338,BLACK,True,CORRECT,0.7935065000019677,793.5065000019677
6,20260325_140431,D,J,False,AUTOMATION1,3,17,817,fixed_delta,0.04169584712997743,0.012883078076194597,,,,,0.5440833800222259,1959,1641,1,0.95,BLACK,BLACK,True,0,0.0011999982234556228,BLACK,True,CORRECT,0.8951046999973187,895.1046999973187
6,20260325_140431,D,J,False,AUTOMATION1,3,18,818,fixed_delta,0.04169584712997743,0.012883078076194597,,,,,0.5142476056505486,1851,1749,1,0.95,BLACK,BLACK,True,0,0.0012999989849049598,WHITE,False,INCORRECT,1.240407099998265,1240.407099998265
6,20260325_140431,D,J,False,AUTOMATION1,3,19,819,fixed_delta,0.04169584712997743,0.012883078076194597,,,,,0.5527626434220341,1990,1610,1,0.95,BLACK,BLACK,True,0,0.0016000012692529708,BLACK,True,CORRECT,0.7192300999995496,719.2300999995496
6,20260325_140431,D,J,False,AUTOMATION1,3,20,820,fixed_delta,0.04169584712997743,0.012883078076194597,,,,,0.5272628220517714,1898,1702,1,0.95,BLACK,BLACK,True,0,0.0013999997463542968,BLACK,True,CORRECT,0.7291275000025053,729.1275000025053
6,20260325_140431,D,J,False,AUTOMATION1,3,21,821,fixed_delta,0.04169584712997743,0.012883078076194597,,,,,0.528617170136941,1903,1697,1,0.95,BLACK,BLACK,True,0,0.0014999968698248267,WHITE,False,INCORRECT,0.7649232999974629,764.9232999974629
6,20260325_140431,D,J,False,AUTOMATION1,3,22,822,fixed_delta,0.04169584712997743,0.012883078076194597,,,,,0.4358225364685233,1569,2031,1,0.95,WHITE,BLACK,False,0,0.0017999991541728377,WHITE,True,CORRECT,0.6314476999978069,631.4476999978069
6,20260325_140431,D,J,False,AUTOMATION1,3,23,823,fixed_delta,0.04169584712997743,0.012883078076194597,,,,,0.4506505989010535,1622,1978,1,0.95,WHITE,WHITE,True,0,0.0014999968698248267,WHITE,True,CORRECT,0.5723307999978715,572.3307999978715
6,20260325_140431,D,J,False,AUTOMATION1,3,24,824,fixed_delta,0.04169584712997743,0.012883078076194597,,,,,0.45805426885065403,1649,1951,1,0.95,WHITE,WHITE,True,0,0.0014999968698248267,WHITE,True,CORRECT,0.5778044999970007,577.8044999970007
6,20260325_140431,D,J,False,AUTOMATION1,3,25,825,fixed_delta,0.04169584712997743,0.012883078076194597,,,,,0.4435484469830226,1597,2003,1,0.95,WHITE,WHITE,True,0,0.0015000005078036338,WHITE,True,CORRECT,0.5731059999998251,573.1059999998251
6,20260325_140431,D,J,False,AUTOMATION1,3,26,826,fixed_delta,0.04169584712997743,0.012883078076194597,,,,,0.5389134395293005,1940,1660,1,0.95,BLACK,BLACK,True,0,0.0011999982234556228,BLACK,True,CORRECT,0.7111570999986725,711.1570999986725
6,20260325_140431,D,J,False,AUTOMATION1,3,27,827,fixed_delta,0.04169584712997743,0.012883078076194597,,,,,0.543623693144489,1957,1643,1,0.95,BLACK,BLACK,True,0,0.0013999997463542968,BLACK,True,CORRECT,0.5469544999978098,546.9544999978098
6,20260325_140431,D,J,False,AUTOMATION1,3,28,828,fixed_delta,0.04169584712997743,0.012883078076194597,,,,,0.46177281228615513,1662,1938,1,0.95,WHITE,WHITE,True,0,0.0012999989849049598,WHITE,True,CORRECT,0.6508169999979145,650.8169999979145
6,20260325_140431,D,J,False,AUTOMATION1,3,29,829,fixed_delta,0.04169584712997743,0.012883078076194597,,,,,0.46457668332207475,1672,1928,1,0.95,WHITE,WHITE,True,0,0.0012999989849049598,WHITE,True,CORRECT,0.5938900000001013,593.8900000001013
6,20260325_140431,D,J,False,AUTOMATION1,3,30,830,fixed_delta,0.04169584712997743,0.012883078076194597,,,,,0.5408177938772437,1947,1653,1,0.95,BLACK,BLACK,True,0,0.0015000005078036338,BLACK,True,CORRECT,0.6566689999999653,656.6689999999653
6,20260325_140431,D,J,False,AUTOMATION1,3,31,831,fixed_delta,0.04169584712997743,0.012883078076194597,,,,,0.5309068243911885,1911,1689,1,0.95,BLACK,BLACK,True,0,0.0015000005078036338,BLACK,True,CORRECT,0.6793394000014814,679.3394000014814
6,20260325_140431,D,J,False,AUTOMATION1,3,32,832,fixed_delta,0.04169584712997743,0.012883078076194597,,,,,0.5535620244857876,1993,1607,1,0.95,BLACK,BLACK,True,0,0.0013999997463542968,BLACK,True,CORRECT,0.6045808999988367,604.5808999988367
6,20260325_140431,D,J,False,AUTOMATION1,3,33,833,fixed_delta,0.04169584712997743,0.012883078076194597,,,,,0.4527063188280599,1630,1970,1,0.95,WHITE,WHITE,True,0,0.0013000026228837669,WHITE,True,CORRECT,0.7468217000023287,746.8217000023287
6,20260325_140431,D,J,False,AUTOMATION1,3,34,834,fixed_delta,0.04169584712997743,0.012883078076194597,,,,,0.5188143610395747,1868,1732,1,0.95,BLACK,BLACK,True,0,0.0018000027921516448,BLACK,True,CORRECT,0.518206700002338,518.206700002338
6,20260325_140431,D,J,False,AUTOMATION1,3,35,835,fixed_delta,0.04169584712997743,0.012883078076194597,,,,,0.5174007527447367,1863,1737,1,0.95,BLACK,BLACK,True,0,0.0016999983927235007,WHITE,False,INCORRECT,6.346805799999856,6346.805799999856
6,20260325_140431,D,J,False,AUTOMATION1,3,36,836,fixed_delta,0.04169584712997743,0.012883078076194597,,,,,0.4611016489186486,1660,1940,1,0.95,WHITE,WHITE,True,0,0.0015000005078036338,WHITE,True,CORRECT,0.7930004999980156,793.0004999980156
6,20260325_140431,D,J,False,AUTOMATION1,3,37,837,fixed_delta,0.04169584712997743,0.012883078076194597,,,,,0.47422556901773283,1707,1893,1,0.95,WHITE,WHITE,True,0,0.0015000005078036338,WHITE,True,CORRECT,0.7915570999975898,791.5570999975898
6,20260325_140431,D,J,False,AUTOMATION1,3,38,838,fixed_delta,0.04169584712997743,0.012883078076194597,,,,,0.45074356683592404,1623,1977,1,0.95,WHITE,WHITE,True,0,0.0015999976312741637,WHITE,True,CORRECT,0.6808577999981935,680.8577999981935
6,20260325_140431,D,J,False,AUTOMATION1,3,39,839,fixed_delta,0.04169584712997743,0.012883078076194597,,,,,0.4633961146527836,1668,1932,1,0.95,WHITE,WHITE,True,0,0.0015999976312741637,WHITE,True,CORRECT,0.5672552999967593,567.2552999967593
6,20260325_140431,D,J,False,AUTOMATION1,3,40,840,fixed_delta,0.04169584712997743,0.012883078076194597,,,,,0.5357352368808752,1929,1671,1,0.95,BLACK,BLACK,True,0,0.0015000005078036338,WHITE,False,INCORRECT,0.7325993999984348,732.5993999984348
6,20260325_140431,D,J,False,AUTOMATION1,3,41,841,fixed_delta,0.04169584712997743,0.012883078076194597,,,,,0.549748112404782,1979,1621,1,0.95,BLACK,BLACK,True,0,0.0017999991541728377,BLACK,True,CORRECT,0.6190306999997119,619.0306999997119
6,20260325_140431,D,J,False,AUTOMATION1,3,42,842,fixed_delta,0.04169584712997743,0.012883078076194597,,,,,0.5664238799937127,2039,1561,1,0.95,BLACK,BLACK,True,0,0.0013999997463542968,BLACK,True,CORRECT,0.9499600000017381,949.9600000017381
6,20260325_140431,D,J,False,AUTOMATION1,3,43,843,fixed_delta,0.04169584712997743,0.012883078076194597,,,,,0.4674377695472433,1683,1917,1,0.95,WHITE,WHITE,True,0,0.0016000012692529708,WHITE,True,CORRECT,0.5433295000002545,543.3295000002545
6,20260325_140431,D,J,False,AUTOMATION1,3,44,844,fixed_delta,0.04169584712997743,0.012883078076194597,,,,,0.5491931550710406,1977,1623,1,0.95,BLACK,BLACK,True,0,0.0014999968698248267,BLACK,True,CORRECT,1.8417980999984138,1841.7980999984138
6,20260325_140431,D,J,False,AUTOMATION1,3,45,845,fixed_delta,0.04169584712997743,0.012883078076194597,,,,,0.5116506801738407,1842,1758,1,0.95,BLACK,BLACK,True,0,0.0021999985619913787,WHITE,False,INCORRECT,0.860183999997389,860.183999997389
6,20260325_140431,D,J,False,AUTOMATION1,3,46,846,fixed_delta,0.04169584712997743,0.012883078076194597,,,,,0.4612485991234237,1660,1940,1,0.95,WHITE,WHITE,True,0,0.0012999989849049598,WHITE,True,CORRECT,0.5567503000020224,556.7503000020224
6,20260325_140431,D,J,False,AUTOMATION1,3,47,847,fixed_delta,0.04169584712997743,0.012883078076194597,,,,,0.5433167425506419,1956,1644,1,0.95,BLACK,BLACK,True,0,0.0014999968698248267,BLACK,True,CORRECT,1.3941056999974535,1394.1056999974535
6,20260325_140431,D,J,False,AUTOMATION1,3,48,848,fixed_delta,0.04169584712997743,0.012883078076194597,,,,,0.46452635807220866,1672,1928,1,0.95,WHITE,WHITE,True,0,0.0017000020307023078,WHITE,True,CORRECT,0.5855014000007941,585.5014000007941
6,20260325_140431,D,J,False,AUTOMATION1,3,49,849,fixed_delta,0.04169584712997743,0.012883078076194597,,,,,0.545597296191229,1964,1636,1,0.95,BLACK,BLACK,True,0,0.0013999997463542968,BLACK,True,CORRECT,0.70462950000001,704.62950000001
6,20260325_140431,D,J,False,AUTOMATION1,3,50,850,fixed_delta,0.04169584712997743,0.012883078076194597,,,,,0.4656805175342146,1676,1924,1,0.95,WHITE,WHITE,True,0,0.0015000005078036338,WHITE,True,CORRECT,0.5369992000014463,536.9992000014463
6,20260325_140431,D,J,False,AUTOMATION1,3,51,851,fixed_delta,0.04169584712997743,0.012883078076194597,,,,,0.5631210108980066,2027,1573,1,0.95,BLACK,BLACK,True,0,0.0012000018614344299,WHITE,False,INCORRECT,1.4160733000026084,1416.0733000026084
6,20260325_140431,D,J,False,AUTOMATION1,3,52,852,fixed_delta,0.04169584712997743,0.012883078076194597,,,,,0.4571377276829287,1646,1954,1,0.95,WHITE,WHITE,True,0,0.0016999983927235007,WHITE,True,CORRECT,0.5989942999985942,598.9942999985942
6,20260325_140431,D,J,False,AUTOMATION1,3,53,853,fixed_delta,0.04169584712997743,0.012883078076194597,,,,,0.4586522179967325,1651,1949,1,0.95,WHITE,BLACK,False,0,0.0012999989849049598,WHITE,True,CORRECT,1.4344789999995555,1434.4789999995555
6,20260325_140431,D,J,False,AUTOMATION1,3,54,854,fixed_delta,0.04169584712997743,0.012883078076194597,,,,,0.4579666557270594,1649,1951,1,0.95,WHITE,WHITE,True,0,0.0019000035536009818,WHITE,True,CORRECT,2.9752225000011094,2975.2225000011094
6,20260325_140431,D,J,False,AUTOMATION1,3,55,855,fixed_delta,0.04169584712997743,0.012883078076194597,,,,,0.4800787381931756,1728,1872,1,0.95,WHITE,WHITE,True,0,0.0014999968698248267,WHITE,True,CORRECT,0.6617362999968464,661.7362999968464
6,20260325_140431,D,J,False,AUTOMATION1,3,56,856,fixed_delta,0.04169584712997743,0.012883078076194597,,,,,0.5551444237666163,1999,1601,1,0.95,BLACK,BLACK,True,0,0.0013999997463542968,BLACK,True,CORRECT,0.880617999999231,880.617999999231
6,20260325_140431,D,J,False,AUTOMATION1,3,57,857,fixed_delta,0.04169584712997743,0.012883078076194597,,,,,0.45659710009017346,1644,1956,1,0.95,WHITE,WHITE,True,0,0.0016999983927235007,WHITE,True,CORRECT,0.7298929999997199,729.8929999997199
6,20260325_140431,D,J,False,AUTOMATION1,3,58,858,fixed_delta,0.04169584712997743,0.012883078076194597,,,,,0.4625591181149783,1665,1935,1,0.95,WHITE,WHITE,True,0,0.0013999997463542968,WHITE,True,CORRECT,0.7019046999994316,701.9046999994316
6,20260325_140431,D,J,False,AUTOMATION1,3,59,859,fixed_delta,0.04169584712997743,0.012883078076194597,,,,,0.5413903560206326,1949,1651,1,0.95,BLACK,BLACK,True,0,0.0013999997463542968,BLACK,True,CORRECT,0.6467989000011585,646.7989000011585
6,20260325_140431,D,J,False,AUTOMATION1,3,60,860,fixed_delta,0.04169584712997743,0.012883078076194597,,,,,0.5002777777777778,1801,1799,1,0.95,BLACK,BLACK,True,0,0.0016000012692529708,BLACK,True,CORRECT,0.5869074000002001,586.9074000002001
6,20260325_140431,D,J,False,AUTOMATION1,3,61,861,fixed_delta,0.04169584712997743,0.012883078076194597,,,,,0.5392797052456275,1941,1659,1,0.95,BLACK,BLACK,True,0,0.0013999997463542968,BLACK,True,CORRECT,1.1987083000021812,1198.7083000021812
6,20260325_140431,D,J,False,AUTOMATION1,3,62,862,fixed_delta,0.04169584712997743,0.012883078076194597,,,,,0.5348672731394365,1926,1674,1,0.95,BLACK,BLACK,True,0,0.0013999997463542968,BLACK,True,CORRECT,0.7408094000020355,740.8094000020355
6,20260325_140431,D,J,False,AUTOMATION1,3,63,863,fixed_delta,0.04169584712997743,0.012883078076194597,,,,,0.5642351323132488,2031,1569,1,0.95,BLACK,BLACK,True,0,0.0017000020307023078,BLACK,True,CORRECT,0.557897700000467,557.897700000467
6,20260325_140431,D,J,False,AUTOMATION1,3,64,864,fixed_delta,0.04169584712997743,0.012883078076194597,,,,,0.5406393496571734,1946,1654,1,0.95,BLACK,BLACK,True,0,0.0013999997463542968,BLACK,True,CORRECT,0.49561379999795463,495.61379999795463
6,20260325_140431,D,J,False,AUTOMATION1,3,65,865,fixed_delta,0.04169584712997743,0.012883078076194597,,,,,0.49128078682193366,1769,1831,1,0.95,WHITE,WHITE,True,0,0.0012999989849049598,WHITE,True,CORRECT,0.6227986000012606,622.7986000012606
6,20260325_140431,D,J,False,AUTOMATION1,3,66,866,fixed_delta,0.04169584712997743,0.012883078076194597,,,,,0.5351079010008667,1926,1674,1,0.95,BLACK,BLACK,True,0,0.0013999997463542968,BLACK,True,CORRECT,0.6480797000003804,648.0797000003804
6,20260325_140431,D,J,False,AUTOMATION1,3,67,867,fixed_delta,0.04169584712997743,0.012883078076194597,,,,,0.46223369236384093,1664,1936,1,0.95,WHITE,WHITE,True,0,0.0013999997463542968,WHITE,True,CORRECT,0.645979000000807,645.979000000807
6,20260325_140431,D,J,False,AUTOMATION1,3,68,868,fixed_delta,0.04169584712997743,0.012883078076194597,,,,,0.45297054401343345,1631,1969,1,0.95,WHITE,WHITE,True,0,0.0012999989849049598,WHITE,True,CORRECT,0.6524417999971774,652.4417999971774
6,20260325_140431,D,J,False,AUTOMATION1,3,69,869,fixed_delta,0.04169584712997743,0.012883078076194597,,,,,0.5344475121904246,1924,1676,1,0.95,BLACK,BLACK,True,0,0.0012999989849049598,BLACK,True,CORRECT,0.5746579999977257,574.6579999977257
6,20260325_140431,D,J,False,AUTOMATION1,3,70,870,fixed_delta,0.04169584712997743,0.012883078076194597,,,,,0.44660772654292336,1608,1992,1,0.95,WHITE,WHITE,True,0,0.0013000026228837669,WHITE,True,CORRECT,0.5464296000027389,546.4296000027389
6,20260325_140431,D,J,False,AUTOMATION1,3,71,871,fixed_delta,0.04169584712997743,0.012883078076194597,,,,,0.5445591486151836,1960,1640,1,0.95,BLACK,BLACK,True,0,0.0012999989849049598,BLACK,True,CORRECT,0.7010506000005989,701.0506000005989
6,20260325_140431,D,J,False,AUTOMATION1,3,72,872,fixed_delta,0.04169584712997743,0.012883078076194597,,,,,0.5256422327833741,1892,1708,1,0.95,BLACK,BLACK,True,0,0.0016000012692529708,BLACK,True,CORRECT,2.2936183999991044,2293.6183999991044
6,20260325_140431,D,J,False,AUTOMATION1,3,73,873,fixed_delta,0.04169584712997743,0.012883078076194597,,,,,0.454362192386565,1636,1964,1,0.95,WHITE,WHITE,True,0,0.0013999997463542968,WHITE,True,CORRECT,0.6104680999997072,610.4680999997072
6,20260325_140431,D,J,False,AUTOMATION1,3,74,874,fixed_delta,0.04169584712997743,0.012883078076194597,,,,,0.43335261904252614,1560,2040,1,0.95,WHITE,WHITE,True,0,0.0015999976312741637,WHITE,True,CORRECT,0.6283935999999812,628.3935999999812
6,20260325_140431,D,J,False,AUTOMATION1,3,75,875,fixed_delta,0.04169584712997743,0.012883078076194597,,,,,0.5336536892156241,1921,1679,1,0.95,BLACK,BLACK,True,0,0.0015000005078036338,BLACK,True,CORRECT,0.6882102000017767,688.2102000017767
6,20260325_140431,D,J,False,AUTOMATION1,3,76,876,fixed_delta,0.04169584712997743,0.012883078076194597,,,,,0.44962057618122886,1619,1981,1,0.95,WHITE,WHITE,True,0,0.0014999968698248267,WHITE,True,CORRECT,0.556421399996907,556.421399996907
6,20260325_140431,D,J,False,AUTOMATION1,3,77,877,fixed_delta,0.04169584712997743,0.012883078076194597,,,,,0.5467375108189939,1968,1632,1,0.95,BLACK,BLACK,True,0,0.0021000014385208488,BLACK,True,CORRECT,0.4865806000016164,486.5806000016164
6,20260325_140431,D,J,False,AUTOMATION1,3,78,878,fixed_delta,0.04169584712997743,0.012883078076194597,,,,,0.4490284359489821,1617,1983,1,0.95,WHITE,WHITE,True,0,0.0012999989849049598,WHITE,True,CORRECT,0.5446421000015107,544.6421000015107
6,20260325_140431,D,J,False,AUTOMATION1,3,79,879,fixed_delta,0.04169584712997743,0.012883078076194597,,,,,0.45258119832426963,1629,1971,1,0.95,WHITE,WHITE,True,0,0.0013999997463542968,WHITE,True,CORRECT,0.5877478000002156,587.7478000002156
6,20260325_140431,D,J,False,AUTOMATION1,3,80,880,fixed_delta,0.04169584712997743,0.012883078076194597,,,,,0.5363563179534947,1931,1669,1,0.95,BLACK,BLACK,True,0,0.0011999982234556228,BLACK,True,CORRECT,0.86876669999765,868.76669999765
6,20260325_140431,D,J,False,AUTOMATION1,3,81,881,fixed_delta,0.04169584712997743,0.012883078076194597,,,,,0.4527929847176445,1630,1970,1,0.95,WHITE,WHITE,True,0,0.0011000010999850929,WHITE,True,CORRECT,0.5598366000012902,559.8366000012902
6,20260325_140431,D,J,False,AUTOMATION1,3,82,882,fixed_delta,0.04169584712997743,0.012883078076194597,,,,,0.5548966649492767,1998,1602,1,0.95,BLACK,WHITE,False,0,0.001400003384333104,WHITE,False,INCORRECT,1.6157020000027842,1615.7020000027842
6,20260325_140431,D,J,False,AUTOMATION1,3,83,883,fixed_delta,0.04169584712997743,0.012883078076194597,,,,,0.5190351352279785,1869,1731,1,0.95,BLACK,BLACK,True,0,0.0012999989849049598,BLACK,True,CORRECT,0.6554385999988881,655.4385999988881
6,20260325_140431,D,J,False,AUTOMATION1,3,84,884,fixed_delta,0.04169584712997743,0.012883078076194597,,,,,0.4456898071239127,1604,1996,1,0.95,WHITE,WHITE,True,0,0.0016000012692529708,WHITE,True,CORRECT,0.5427468000016233,542.7468000016233
6,20260325_140431,D,J,False,AUTOMATION1,3,85,885,fixed_delta,0.04169584712997743,0.012883078076194597,,,,,0.450963991125552,1623,1977,1,0.95,WHITE,WHITE,True,0,0.0012999989849049598,WHITE,True,CORRECT,0.7654567999998108,765.4567999998108
6,20260325_140431,D,J,False,AUTOMATION1,3,86,886,fixed_delta,0.04169584712997743,0.012883078076194597,,,,,0.5407929385093271,1947,1653,1,0.95,BLACK,BLACK,True,0,0.0013999997463542968,BLACK,True,CORRECT,0.9309228999991319,930.9228999991319
6,20260325_140431,D,J,False,AUTOMATION1,3,87,887,fixed_delta,0.04169584712997743,0.012883078076194597,,,,,0.5366843863951828,1932,1668,1,0.95,BLACK,BLACK,True,0,0.0013999997463542968,BLACK,True,CORRECT,1.2616395000004559,1261.6395000004559
6,20260325_140431,D,J,False,AUTOMATION1,3,88,888,fixed_delta,0.04169584712997743,0.012883078076194597,,,,,0.4584954359561833,1651,1949,1,0.95,WHITE,WHITE,True,0,0.0013999997463542968,WHITE,True,CORRECT,0.5848145999989356,584.8145999989356
6,20260325_140431,D,J,False,AUTOMATION1,3,89,889,fixed_delta,0.04169584712997743,0.012883078076194597,,,,,0.5444156612042121,1960,1640,1,0.95,BLACK,BLACK,True,0,0.0013000026228837669,BLACK,True,CORRECT,0.7931506000022637,793.1506000022637
6,20260325_140431,D,J,False,AUTOMATION1,3,90,890,fixed_delta,0.04169584712997743,0.012883078076194597,,,,,0.45790708576993544,1648,1952,1,0.95,WHITE,WHITE,True,0,0.0015999976312741637,WHITE,True,CORRECT,0.6195389999993495,619.5389999993495
6,20260325_140431,D,J,False,AUTOMATION1,3,91,891,fixed_delta,0.04169584712997743,0.012883078076194597,,,,,0.533121745518243,1919,1681,1,0.95,BLACK,BLACK,True,0,0.0013999997463542968,BLACK,True,CORRECT,1.2271824999988894,1227.1824999988894
6,20260325_140431,D,J,False,AUTOMATION1,3,92,892,fixed_delta,0.04169584712997743,0.012883078076194597,,,,,0.5565360651923159,2004,1596,1,0.95,BLACK,BLACK,True,0,0.0017999991541728377,BLACK,True,CORRECT,3.7405115000001388,3740.5115000001388
6,20260325_140431,D,J,False,AUTOMATION1,3,93,893,fixed_delta,0.04169584712997743,0.012883078076194597,,,,,0.5428594448901005,1954,1646,1,0.95,BLACK,BLACK,True,0,0.0015000005078036338,BLACK,True,CORRECT,0.6987063000015041,698.7063000015041
6,20260325_140431,D,J,False,AUTOMATION1,3,94,894,fixed_delta,0.04169584712997743,0.012883078076194597,,,,,0.5487523688931935,1976,1624,1,0.95,BLACK,BLACK,True,0,0.0011999982234556228,BLACK,True,CORRECT,0.5892600999977731,589.2600999977731
6,20260325_140431,D,J,False,AUTOMATION1,3,95,895,fixed_delta,0.04169584712997743,0.012883078076194597,,,,,0.5393105565889521,1942,1658,1,0.95,BLACK,BLACK,True,0,0.0018999999156221747,WHITE,False,INCORRECT,0.73102949999884,731.02949999884
6,20260325_140431,D,J,False,AUTOMATION1,3,96,896,fixed_delta,0.04169584712997743,0.012883078076194597,,,,,0.46236709193884956,1665,1935,1,0.95,WHITE,WHITE,True,0,0.0013999997463542968,WHITE,True,CORRECT,0.4209240000018326,420.9240000018326
6,20260325_140431,D,J,False,AUTOMATION1,3,97,897,fixed_delta,0.04169584712997743,0.012883078076194597,,,,,0.5526838854080341,1990,1610,1,0.95,BLACK,WHITE,False,0,0.0013999997463542968,BLACK,True,CORRECT,0.62735690000045,627.35690000045
6,20260325_140431,D,J,False,AUTOMATION1,3,98,898,fixed_delta,0.04169584712997743,0.012883078076194597,,,,,0.556937344302005,2005,1595,1,0.95,BLACK,BLACK,True,0,0.0013999997463542968,WHITE,False,INCORRECT,0.8033799999975599,803.3799999975599
6,20260325_140431,D,J,False,AUTOMATION1,3,99,899,fixed_delta,0.04169584712997743,0.012883078076194597,,,,,0.46104193703678664,1660,1940,1,0.95,WHITE,BLACK,False,0,0.0013999997463542968,WHITE,True,CORRECT,0.6757605000020703,675.7605000020703
6,20260325_140431,D,J,False,AUTOMATION1,3,100,900,fixed_delta,0.04169584712997743,0.012883078076194597,,,,,0.5261518118566989,1894,1706,1,0.95,BLACK,BLACK,True,0,0.0014999968698248267,BLACK,True,CORRECT,1.3332930999968085,1333.2930999968085
6,20260325_140431,D,J,False,AUTOMATION1,3,101,901,fixed_delta,0.04169584712997743,0.012883078076194597,,,,,0.44913673967731604,1617,1983,1,0.95,WHITE,WHITE,True,0,0.001400003384333104,WHITE,True,CORRECT,0.53210240000044,532.10240000044
6,20260325_140431,D,J,False,AUTOMATION1,3,102,902,fixed_delta,0.04169584712997743,0.012883078076194597,,,,,0.5323925635988718,1917,1683,1,0.95,BLACK,BLACK,True,0,0.0012999989849049598,BLACK,True,CORRECT,1.3523988999986614,1352.3988999986614
6,20260325_140431,D,J,False,AUTOMATION1,3,103,903,fixed_delta,0.04169584712997743,0.012883078076194597,,,,,0.5580856791625584,2009,1591,1,0.95,BLACK,BLACK,True,0,0.0015000005078036338,BLACK,True,CORRECT,1.2191486000010627,1219.1486000010627
6,20260325_140431,D,J,False,AUTOMATION1,3,104,904,fixed_delta,0.04169584712997743,0.012883078076194597,,,,,0.5405060556315227,1946,1654,1,0.95,BLACK,BLACK,True,0,0.0016000012692529708,BLACK,True,CORRECT,1.3734319000031974,1373.4319000031974
6,20260325_140431,D,J,False,AUTOMATION1,3,105,905,fixed_delta,0.04169584712997743,0.012883078076194597,,,,,0.4470416994187602,1609,1991,1,0.95,WHITE,WHITE,True,0,0.0016000012692529708,WHITE,True,CORRECT,0.8916054000001168,891.6054000001168
6,20260325_140431,D,J,False,AUTOMATION1,3,106,906,fixed_delta,0.04169584712997743,0.012883078076194597,,,,,0.46877425530404626,1688,1912,1,0.95,WHITE,WHITE,True,0,0.0013999997463542968,WHITE,True,CORRECT,0.6814412999992783,681.4412999992783
6,20260325_140431,D,J,False,AUTOMATION1,3,107,907,fixed_delta,0.04169584712997743,0.012883078076194597,,,,,0.528603511995159,1903,1697,1,0.95,BLACK,BLACK,True,0,0.0016999983927235007,BLACK,True,CORRECT,1.1036719000003359,1103.6719000003359
6,20260325_140431,D,J,False,AUTOMATION1,3,108,908,fixed_delta,0.04169584712997743,0.012883078076194597,,,,,0.46040857063271934,1657,1943,1,0.95,WHITE,WHITE,True,0,0.0017999991541728377,WHITE,True,CORRECT,0.6321521999998367,632.1521999998367
6,20260325_140431,D,J,False,AUTOMATION1,3,109,909,fixed_delta,0.04169584712997743,0.012883078076194597,,,,,0.553845150757367,1994,1606,1,0.95,BLACK,BLACK,True,0,0.0012999989849049598,BLACK,True,CORRECT,1.0743476999996346,1074.3476999996346
6,20260325_140431,D,J,False,AUTOMATION1,3,110,910,fixed_delta,0.04169584712997743,0.012883078076194597,,,,,0.45386408848688664,1634,1966,1,0.95,WHITE,BLACK,False,0,0.0016999983927235007,WHITE,True,CORRECT,0.5861961999980849,586.1961999980849
6,20260325_140431,D,J,False,AUTOMATION1,3,111,911,fixed_delta,0.04169584712997743,0.012883078076194597,,,,,0.4743863543427561,1708,1892,1,0.95,WHITE,WHITE,True,0,0.0024000000848900527,WHITE,True,CORRECT,0.6914302000004682,691.4302000004682
6,20260325_140431,D,J,False,AUTOMATION1,3,112,912,fixed_delta,0.04169584712997743,0.012883078076194597,,,,,0.5125642789320192,1845,1755,1,0.95,BLACK,BLACK,True,0,0.0012999989849049598,WHITE,False,INCORRECT,0.6996675999980653,699.6675999980653
6,20260325_140431,D,J,False,AUTOMATION1,3,113,913,fixed_delta,0.04169584712997743,0.012883078076194597,,,,,0.5529876966301447,1991,1609,1,0.95,BLACK,BLACK,True,0,0.0013999997463542968,BLACK,True,CORRECT,0.5761802999986685,576.1802999986685
6,20260325_140431,D,J,False,AUTOMATION1,3,114,914,fixed_delta,0.04169584712997743,0.012883078076194597,,,,,0.47301762503192313,1703,1897,1,0.95,WHITE,WHITE,True,0,0.0016999983927235007,WHITE,True,CORRECT,0.6057383000006666,605.7383000006666
6,20260325_140431,D,J,False,AUTOMATION1,3,115,915,fixed_delta,0.04169584712997743,0.012883078076194597,,,,,0.5472739065295383,1970,1630,1,0.95,BLACK,BLACK,True,0,0.0017000020307023078,WHITE,False,INCORRECT,0.6931560000011814,693.1560000011814
6,20260325_140431,D,J,False,AUTOMATION1,3,116,916,fixed_delta,0.04169584712997743,0.012883078076194597,,,,,0.4580711187555009,1649,1951,1,0.95,WHITE,WHITE,True,0,0.0013999997463542968,WHITE,True,CORRECT,0.6193252000011853,619.3252000011853
6,20260325_140431,D,J,False,AUTOMATION1,3,117,917,fixed_delta,0.04169584712997743,0.012883078076194597,,,,,0.4587065067798154,1651,1949,1,0.95,WHITE,WHITE,True,0,0.0013999997463542968,WHITE,True,CORRECT,0.49988049999956274,499.88049999956274
6,20260325_140431,D,J,False,AUTOMATION1,3,118,918,fixed_delta,0.04169584712997743,0.012883078076194597,,,,,0.4832921336987943,1740,1860,1,0.95,WHITE,WHITE,True,0,0.0013999997463542968,WHITE,True,CORRECT,0.523054500001308,523.054500001308
6,20260325_140431,D,J,False,AUTOMATION1,3,119,919,fixed_delta,0.04169584712997743,0.012883078076194597,,,,,0.542092667459598,1952,1648,1,0.95,BLACK,BLACK,True,0,0.0021000014385208488,BLACK,True,CORRECT,0.74532100000215,745.32100000215
6,20260325_140431,D,J,False,AUTOMATION1,3,120,920,fixed_delta,0.04169584712997743,0.012883078076194597,,,,,0.4495141642727521,1618,1982,1,0.95,WHITE,WHITE,True,0,0.0016000012692529708,WHITE,True,CORRECT,0.6520903000018734,652.0903000018734
6,20260325_140431,D,J,False,AUTOMATION1,3,121,921,fixed_delta,0.04169584712997743,0.012883078076194597,,,,,0.5485397487584017,1975,1625,1,0.95,BLACK,BLACK,True,0,0.0015999976312741637,BLACK,True,CORRECT,1.56521789999897,1565.21789999897
6,20260325_140431,D,J,False,AUTOMATION1,3,122,922,fixed_delta,0.04169584712997743,0.012883078076194597,,,,,0.5366646877025053,1932,1668,1,0.95,BLACK,BLACK,True,0,0.0022999993234407157,BLACK,True,CORRECT,0.8886912000016309,888.6912000016309
6,20260325_140431,D,J,False,AUTOMATION1,3,123,923,fixed_delta,0.04169584712997743,0.012883078076194597,,,,,0.5422423970554474,1952,1648,1,0.95,BLACK,BLACK,True,0,0.0016000012692529708,WHITE,False,INCORRECT,0.9742584000014176,974.2584000014176
6,20260325_140431,D,J,False,AUTOMATION1,3,124,924,fixed_delta,0.04169584712997743,0.012883078076194597,,,,,0.4503570854761381,1621,1979,1,0.95,WHITE,BLACK,False,0,0.0013999997463542968,WHITE,True,CORRECT,1.7851248000006308,1785.1248000006308
6,20260325_140431,D,J,False,AUTOMATION1,3,125,925,fixed_delta,0.04169584712997743,0.012883078076194597,,,,,0.535942763525084,1929,1671,1,0.95,BLACK,BLACK,True,0,0.0012000018614344299,BLACK,True,CORRECT,1.3528513000019302,1352.8513000019302
6,20260325_140431,D,J,False,AUTOMATION1,3,126,926,fixed_delta,0.04169584712997743,0.012883078076194597,,,,,0.5309974334725397,1912,1688,1,0.95,BLACK,BLACK,True,0,0.0012999989849049598,BLACK,True,CORRECT,1.4761107000012998,1476.1107000012998
6,20260325_140431,D,J,False,AUTOMATION1,3,127,927,fixed_delta,0.04169584712997743,0.012883078076194597,,,,,0.5393675738041174,1942,1658,1,0.95,BLACK,WHITE,False,0,0.0013999997463542968,BLACK,True,CORRECT,0.9891057000022556,989.1057000022556
6,20260325_140431,D,J,False,AUTOMATION1,3,128,928,fixed_delta,0.04169584712997743,0.012883078076194597,,,,,0.5502571670779435,1981,1619,1,0.95,BLACK,BLACK,True,0,0.0018999999156221747,BLACK,True,CORRECT,0.978033499999583,978.033499999583
6,20260325_140431,D,J,False,AUTOMATION1,3,129,929,fixed_delta,0.04169584712997743,0.012883078076194597,,,,,0.4658055537453256,1677,1923,1,0.95,WHITE,WHITE,True,0,0.0013999997463542968,WHITE,True,CORRECT,0.9331136000000697,933.1136000000697
6,20260325_140431,D,J,False,AUTOMATION1,3,130,930,fixed_delta,0.04169584712997743,0.012883078076194597,,,,,0.4547149551834173,1637,1963,1,0.95,WHITE,WHITE,True,0,0.0013999997463542968,BLACK,False,INCORRECT,1.1042333000004874,1104.2333000004874
6,20260325_140431,D,J,False,AUTOMATION1,3,131,931,fixed_delta,0.04169584712997743,0.012883078076194597,,,,,0.5323358598966117,1916,1684,1,0.95,BLACK,BLACK,True,0,0.0015000005078036338,BLACK,True,CORRECT,0.9553549000011117,955.3549000011117
6,20260325_140431,D,J,False,AUTOMATION1,3,132,932,fixed_delta,0.04169584712997743,0.012883078076194597,,,,,0.4797199161366505,1727,1873,1,0.95,WHITE,WHITE,True,0,0.0013999997463542968,WHITE,True,CORRECT,0.8747850999970979,874.7850999970979
6,20260325_140431,D,J,False,AUTOMATION1,3,133,933,fixed_delta,0.04169584712997743,0.012883078076194597,,,,,0.4520880973383461,1628,1972,1,0.95,WHITE,WHITE,True,0,0.0013999997463542968,WHITE,True,CORRECT,0.6765153999986069,676.5153999986069
6,20260325_140431,D,J,False,AUTOMATION1,3,134,934,fixed_delta,0.04169584712997743,0.012883078076194597,,,,,0.5333427516670495,1920,1680,1,0.95,BLACK,BLACK,True,0,0.0016000012692529708,WHITE,False,INCORRECT,0.9288584999994782,928.8584999994782
6,20260325_140431,D,J,False,AUTOMATION1,3,135,935,fixed_delta,0.04169584712997743,0.012883078076194597,,,,,0.46172434497729753,1662,1938,1,0.95,WHITE,WHITE,True,0,0.0013999997463542968,WHITE,True,CORRECT,0.5877102999984345,587.7102999984345
6,20260325_140431,D,J,False,AUTOMATION1,3,136,936,fixed_delta,0.04169584712997743,0.012883078076194597,,,,,0.42267118709454754,1522,2078,1,0.95,WHITE,WHITE,True,0,0.0017000020307023078,WHITE,True,CORRECT,0.51409120000244,514.09120000244
6,20260325_140431,D,J,False,AUTOMATION1,3,137,937,fixed_delta,0.04169584712997743,0.012883078076194597,,,,,0.45467893820515887,1637,1963,1,0.95,WHITE,WHITE,True,0,0.0015000005078036338,WHITE,True,CORRECT,0.5813505000005534,581.3505000005534
6,20260325_140431,D,J,False,AUTOMATION1,3,138,938,fixed_delta,0.04169584712997743,0.012883078076194597,,,,,0.4910898684100241,1768,1832,1,0.95,WHITE,WHITE,True,0,0.0013999997463542968,WHITE,True,CORRECT,0.5363461999986612,536.3461999986612
6,20260325_140431,D,J,False,AUTOMATION1,3,139,939,fixed_delta,0.04169584712997743,0.012883078076194597,,,,,0.45720959230579467,1646,1954,1,0.95,WHITE,WHITE,True,0,0.0013999997463542968,WHITE,True,CORRECT,0.5048155000004044,504.8155000004044
6,20260325_140431,D,J,False,AUTOMATION1,3,140,940,fixed_delta,0.04169584712997743,0.012883078076194597,,,,,0.44933377898941274,1618,1982,1,0.95,WHITE,WHITE,True,0,0.0017999991541728377,WHITE,True,CORRECT,0.9179987999996229,917.9987999996229
6,20260325_140431,D,J,False,AUTOMATION1,3,141,941,fixed_delta,0.04169584712997743,0.012883078076194597,,,,,0.45604611019957375,1642,1958,1,0.95,WHITE,WHITE,True,0,0.0013999997463542968,WHITE,True,CORRECT,0.48428119999880437,484.28119999880437
6,20260325_140431,D,J,False,AUTOMATION1,3,142,942,fixed_delta,0.04169584712997743,0.012883078076194597,,,,,0.46633048052667747,1679,1921,1,0.95,WHITE,WHITE,True,0,0.0011999982234556228,WHITE,True,CORRECT,0.5261672999986331,526.1672999986331
6,20260325_140431,D,J,False,AUTOMATION1,3,143,943,fixed_delta,0.04169584712997743,0.012883078076194597,,,,,0.5470804381316903,1969,1631,1,0.95,BLACK,BLACK,True,0,0.0015999976312741637,BLACK,True,CORRECT,0.620280899998761,620.280899998761
6,20260325_140431,D,J,False,AUTOMATION1,3,144,944,fixed_delta,0.04169584712997743,0.012883078076194597,,,,,0.537592073785218,1935,1665,1,0.95,BLACK,BLACK,True,0,0.0016999983927235007,BLACK,True,CORRECT,0.5400198999996064,540.0198999996064
6,20260325_140431,D,J,False,AUTOMATION1,3,145,945,fixed_delta,0.04169584712997743,0.012883078076194597,,,,,0.45395157218988724,1634,1966,1,0.95,WHITE,WHITE,True,0,0.0016999983927235007,WHITE,True,CORRECT,0.6315723000006983,631.5723000006983
6,20260325_140431,D,J,False,AUTOMATION1,3,146,946,fixed_delta,0.04169584712997743,0.012883078076194597,,,,,0.5419975390007991,1951,1649,1,0.95,BLACK,BLACK,True,0,0.0013999997463542968,BLACK,True,CORRECT,0.5756443999998737,575.6443999998737
6,20260325_140431,D,J,False,AUTOMATION1,3,147,947,fixed_delta,0.04169584712997743,0.012883078076194597,,,,,0.4684344593239485,1686,1914,1,0.95,WHITE,WHITE,True,0,0.0011000010999850929,WHITE,True,CORRECT,0.5625087000007625,562.5087000007625
6,20260325_140431,D,J,False,AUTOMATION1,3,148,948,fixed_delta,0.04169584712997743,0.012883078076194597,,,,,0.5461232374873304,1966,1634,1,0.95,BLACK,BLACK,True,0,0.0015000005078036338,BLACK,True,CORRECT,1.4140790999990713,1414.0790999990713
6,20260325_140431,D,J,False,AUTOMATION1,3,149,949,fixed_delta,0.04169584712997743,0.012883078076194597,,,,,0.4620767154239537,1663,1937,1,0.95,WHITE,WHITE,True,0,0.0013999997463542968,WHITE,True,CORRECT,0.6859053999978642,685.9053999978642
6,20260325_140431,D,J,False,AUTOMATION1,3,150,950,fixed_delta,0.04169584712997743,0.012883078076194597,,,,,0.5149151630602062,1854,1746,1,0.95,BLACK,BLACK,True,0,0.0013999997463542968,BLACK,True,CORRECT,1.0866719000005105,1086.6719000005105
6,20260325_140431,D,J,False,AUTOMATION1,3,151,951,fixed_delta,0.04169584712997743,0.012883078076194597,,,,,0.5389395401300204,1940,1660,1,0.95,BLACK,BLACK,True,0,0.0015000005078036338,BLACK,True,CORRECT,0.6772754000012355,677.2754000012355
6,20260325_140431,D,J,False,AUTOMATION1,3,152,952,fixed_delta,0.04169584712997743,0.012883078076194597,,,,,0.45397764448845385,1634,1966,1,0.95,WHITE,WHITE,True,0,0.0018000027921516448,WHITE,True,CORRECT,0.8295302000005904,829.5302000005904
6,20260325_140431,D,J,False,AUTOMATION1,3,153,953,fixed_delta,0.04169584712997743,0.012883078076194597,,,,,0.5518062966911769,1987,1613,1,0.95,BLACK,BLACK,True,0,0.0013999997463542968,BLACK,True,CORRECT,0.7768895000008342,776.8895000008342
6,20260325_140431,D,J,False,AUTOMATION1,3,154,954,fixed_delta,0.04169584712997743,0.012883078076194597,,,,,0.46271565989178737,1666,1934,1,0.95,WHITE,WHITE,True,0,0.0012999989849049598,WHITE,True,CORRECT,0.6614679999984219,661.4679999984219
6,20260325_140431,D,J,False,AUTOMATION1,3,155,955,fixed_delta,0.04169584712997743,0.012883078076194597,,,,,0.45445412974392857,1636,1964,1,0.95,WHITE,WHITE,True,0,0.0013000026228837669,WHITE,True,CORRECT,0.71627410000292,716.27410000292
6,20260325_140431,D,J,False,AUTOMATION1,3,156,956,fixed_delta,0.04169584712997743,0.012883078076194597,,,,,0.4431660486473164,1595,2005,1,0.95,WHITE,WHITE,True,0,0.0013999997463542968,WHITE,True,CORRECT,0.6027914000005694,602.7914000005694
6,20260325_140431,D,J,False,AUTOMATION1,3,157,957,fixed_delta,0.04169584712997743,0.012883078076194597,,,,,0.5511889377357234,1984,1616,1,0.95,BLACK,BLACK,True,0,0.0012000018614344299,BLACK,True,CORRECT,0.6848080000017944,684.8080000017944
6,20260325_140431,D,J,False,AUTOMATION1,3,158,958,fixed_delta,0.04169584712997743,0.012883078076194597,,,,,0.4549194498800305,1638,1962,1,0.95,WHITE,WHITE,True,0,0.0012999989849049598,WHITE,True,CORRECT,0.6037810000016179,603.7810000016179
6,20260325_140431,D,J,False,AUTOMATION1,3,159,959,fixed_delta,0.04169584712997743,0.012883078076194597,,,,,0.4728106645283523,1702,1898,1,0.95,WHITE,WHITE,True,0,0.0013999997463542968,WHITE,True,CORRECT,0.45532230000026175,455.32230000026175
6,20260325_140431,D,J,False,AUTOMATION1,3,160,960,fixed_delta,0.04169584712997743,0.012883078076194597,,,,,0.5528318549532348,1990,1610,1,0.95,BLACK,BLACK,True,0,0.0012999989849049598,BLACK,True,CORRECT,0.6235446999999112,623.5446999999112
6,20260325_140431,D,J,False,AUTOMATION1,3,161,961,fixed_delta,0.04169584712997743,0.012883078076194597,,,,,0.5319219903967695,1915,1685,1,0.95,BLACK,BLACK,True,0,0.0015000005078036338,BLACK,True,CORRECT,0.6724799000003259,672.4799000003259
6,20260325_140431,D,J,False,AUTOMATION1,3,162,962,fixed_delta,0.04169584712997743,0.012883078076194597,,,,,0.5353952195680329,1927,1673,1,0.95,BLACK,BLACK,True,0,0.0012999989849049598,BLACK,True,CORRECT,0.44223049999709474,442.23049999709474
6,20260325_140431,D,J,False,AUTOMATION1,3,163,963,fixed_delta,0.04169584712997743,0.012883078076194597,,,,,0.5384364323621182,1938,1662,1,0.95,BLACK,BLACK,True,0,0.0013999997463542968,BLACK,True,CORRECT,0.6631820000002335,663.1820000002335
6,20260325_140431,D,J,False,AUTOMATION1,3,164,964,fixed_delta,0.04169584712997743,0.012883078076194597,,,,,0.5412614000082097,1949,1651,1,0.95,BLACK,BLACK,True,0,0.0018000027921516448,BLACK,True,CORRECT,0.8837886000001163,883.7886000001163
6,20260325_140431,D,J,False,AUTOMATION1,3,165,965,fixed_delta,0.04169584712997743,0.012883078076194597,,,,,0.5339102961625918,1922,1678,1,0.95,BLACK,WHITE,False,0,0.0012999989849049598,WHITE,False,INCORRECT,1.0528169999997772,1052.8169999997772
6,20260325_140431,D,J,False,AUTOMATION1,3,166,966,fixed_delta,0.04169584712997743,0.012883078076194597,,,,,0.44726162229707184,1610,1990,1,0.95,WHITE,WHITE,True,0,0.0020000006770715117,WHITE,True,CORRECT,0.6428296000012779,642.8296000012779
6,20260325_140431,D,J,False,AUTOMATION1,3,167,967,fixed_delta,0.04169584712997743,0.012883078076194597,,,,,0.43280458525605414,1558,2042,1,0.95,WHITE,WHITE,True,0,0.0013000026228837669,WHITE,True,CORRECT,0.47168109999984154,471.68109999984154
6,20260325_140431,D,J,False,AUTOMATION1,3,168,968,fixed_delta,0.04169584712997743,0.012883078076194597,,,,,0.533098066141915,1919,1681,1,0.95,BLACK,BLACK,True,0,0.0013999997463542968,BLACK,True,CORRECT,0.598000600002706,598.000600002706
6,20260325_140431,D,J,False,AUTOMATION1,3,169,969,fixed_delta,0.04169584712997743,0.012883078076194597,,,,,0.5449569929815888,1962,1638,1,0.95,BLACK,BLACK,True,0,0.0041000021155923605,BLACK,True,CORRECT,1.1328023000023677,1132.8023000023677
6,20260325_140431,D,J,False,AUTOMATION1,3,170,970,fixed_delta,0.04169584712997743,0.012883078076194597,,,,,0.46426012299120883,1671,1929,1,0.95,WHITE,WHITE,True,0,0.0015000005078036338,WHITE,True,CORRECT,0.544492100001662,544.492100001662
6,20260325_140431,D,J,False,AUTOMATION1,3,171,971,fixed_delta,0.04169584712997743,0.012883078076194597,,,,,0.4573309747864537,1646,1954,1,0.95,WHITE,WHITE,True,0,0.0015999976312741637,WHITE,True,CORRECT,0.5831962999982352,583.1962999982352
6,20260325_140431,D,J,False,AUTOMATION1,3,172,972,fixed_delta,0.04169584712997743,0.012883078076194597,,,,,0.4550442939173773,1638,1962,1,0.95,WHITE,WHITE,True,0,0.0012999989849049598,WHITE,True,CORRECT,0.6937400999995589,693.7400999995589
6,20260325_140431,D,J,False,AUTOMATION1,3,173,973,fixed_delta,0.04169584712997743,0.012883078076194597,,,,,0.43443292390397725,1564,2036,1,0.95,WHITE,WHITE,True,0,0.0013999997463542968,WHITE,True,CORRECT,0.5424292999996396,542.4292999996396
6,20260325_140431,D,J,False,AUTOMATION1,3,174,974,fixed_delta,0.04169584712997743,0.012883078076194597,,,,,0.5452471801118441,1963,1637,1,0.95,BLACK,BLACK,True,0,0.0016000012692529708,WHITE,False,INCORRECT,0.7057043999993766,705.7043999993766
6,20260325_140431,D,J,False,AUTOMATION1,3,175,975,fixed_delta,0.04169584712997743,0.012883078076194597,,,,,0.5317861758982003,1914,1686,1,0.95,BLACK,BLACK,True,0,0.0012999989849049598,BLACK,True,CORRECT,0.754062599997269,754.062599997269
6,20260325_140431,D,J,False,AUTOMATION1,3,176,976,fixed_delta,0.04169584712997743,0.012883078076194597,,,,,0.44944577699785104,1618,1982,1,0.95,WHITE,WHITE,True,0,0.0018999999156221747,WHITE,True,CORRECT,0.570730100000219,570.730100000219
6,20260325_140431,D,J,False,AUTOMATION1,3,177,977,fixed_delta,0.04169584712997743,0.012883078076194597,,,,,0.5397349962446012,1943,1657,1,0.95,BLACK,BLACK,True,0,0.0013999997463542968,WHITE,False,INCORRECT,0.539888899998914,539.888899998914
6,20260325_140431,D,J,False,AUTOMATION1,3,178,978,fixed_delta,0.04169584712997743,0.012883078076194597,,,,,0.5326547595774214,1918,1682,1,0.95,BLACK,BLACK,True,0,0.0015000005078036338,WHITE,False,INCORRECT,0.5424999999995634,542.4999999995634
6,20260325_140431,D,J,False,AUTOMATION1,3,179,979,fixed_delta,0.04169584712997743,0.012883078076194597,,,,,0.5362605309166706,1931,1669,1,0.95,BLACK,BLACK,True,0,0.0013999997463542968,WHITE,False,INCORRECT,0.5713585999983479,571.3585999983479
6,20260325_140431,D,J,False,AUTOMATION1,3,180,980,fixed_delta,0.04169584712997743,0.012883078076194597,,,,,0.5162994390657363,1859,1741,1,0.95,BLACK,BLACK,True,0,0.0013999997463542968,BLACK,True,CORRECT,0.5585114000023168,558.5114000023168
6,20260325_140431,D,J,False,AUTOMATION1,3,181,981,fixed_delta,0.04169584712997743,0.012883078076194597,,,,,0.5561810649467551,2002,1598,1,0.95,BLACK,BLACK,True,0,0.0012999989849049598,BLACK,True,CORRECT,0.4809466999977303,480.9466999977303
6,20260325_140431,D,J,False,AUTOMATION1,3,182,982,fixed_delta,0.04169584712997743,0.012883078076194597,,,,,0.5260025250875072,1894,1706,1,0.95,BLACK,BLACK,True,0,0.001400003384333104,BLACK,True,CORRECT,0.41155500000240863,411.55500000240863
6,20260325_140431,D,J,False,AUTOMATION1,3,183,983,fixed_delta,0.04169584712997743,0.012883078076194597,,,,,0.48858064269976775,1759,1841,1,0.95,WHITE,WHITE,True,0,0.0017000020307023078,WHITE,True,CORRECT,0.6538822000002256,653.8822000002256
6,20260325_140431,D,J,False,AUTOMATION1,3,184,984,fixed_delta,0.04169584712997743,0.012883078076194597,,,,,0.5280481995874121,1901,1699,1,0.95,BLACK,BLACK,True,0,0.0018000027921516448,BLACK,True,CORRECT,1.9745852000014565,1974.5852000014565
6,20260325_140431,D,J,False,AUTOMATION1,3,185,985,fixed_delta,0.04169584712997743,0.012883078076194597,,,,,0.4631583987000566,1667,1933,1,0.95,WHITE,WHITE,True,0,0.0013999997463542968,WHITE,True,CORRECT,0.6441603000021132,644.1603000021132
6,20260325_140431,D,J,False,AUTOMATION1,3,186,986,fixed_delta,0.04169584712997743,0.012883078076194597,,,,,0.46231779746170376,1664,1936,1,0.95,WHITE,WHITE,True,0,0.0016000012692529708,WHITE,True,CORRECT,0.6868266000019503,686.8266000019503
6,20260325_140431,D,J,False,AUTOMATION1,3,187,987,fixed_delta,0.04169584712997743,0.012883078076194597,,,,,0.4868311692314757,1753,1847,1,0.95,WHITE,WHITE,True,0,0.0016999983927235007,BLACK,False,INCORRECT,0.6869571999995969,686.9571999995969
6,20260325_140431,D,J,False,AUTOMATION1,3,188,988,fixed_delta,0.04169584712997743,0.012883078076194597,,,,,0.5312594898568679,1913,1687,1,0.95,BLACK,BLACK,True,0,0.0013999997463542968,WHITE,False,INCORRECT,1.2235614000019268,1223.5614000019268
6,20260325_140431,D,J,False,AUTOMATION1,3,189,989,fixed_delta,0.04169584712997743,0.012883078076194597,,,,,0.4538789765600727,1634,1966,1,0.95,WHITE,WHITE,True,0,0.0017000020307023078,WHITE,True,CORRECT,0.28971309999906225,289.71309999906225
6,20260325_140431,D,J,False,AUTOMATION1,3,190,990,fixed_delta,0.04169584712997743,0.012883078076194597,,,,,0.4383469550894575,1578,2022,1,0.95,WHITE,WHITE,True,0,0.0016999983927235007,WHITE,True,CORRECT,0.6070118999996339,607.0118999996339
6,20260325_140431,D,J,False,AUTOMATION1,3,191,991,fixed_delta,0.04169584712997743,0.012883078076194597,,,,,0.5365462812446634,1932,1668,1,0.95,BLACK,BLACK,True,0,0.0015999976312741637,BLACK,True,CORRECT,0.5899145000003045,589.9145000003045
6,20260325_140431,D,J,False,AUTOMATION1,3,192,992,fixed_delta,0.04169584712997743,0.012883078076194597,,,,,0.4532246302349329,1632,1968,1,0.95,WHITE,WHITE,True,0,0.0013999997463542968,WHITE,True,CORRECT,0.7323689000004379,732.3689000004379
6,20260325_140431,D,J,False,AUTOMATION1,3,193,993,fixed_delta,0.04169584712997743,0.012883078076194597,,,,,0.45671206800551806,1644,1956,1,0.95,WHITE,WHITE,True,0,0.0013000026228837669,WHITE,True,CORRECT,0.6585575999997673,658.5575999997673
6,20260325_140431,D,J,False,AUTOMATION1,3,194,994,fixed_delta,0.04169584712997743,0.012883078076194597,,,,,0.4541592244624491,1635,1965,1,0.95,WHITE,BLACK,False,0,0.0012000018614344299,WHITE,True,CORRECT,0.6935573000009754,693.5573000009754
6,20260325_140431,D,J,False,AUTOMATION1,3,195,995,fixed_delta,0.04169584712997743,0.012883078076194597,,,,,0.5542499192861615,1995,1605,1,0.95,BLACK,BLACK,True,0,0.0015000005078036338,BLACK,True,CORRECT,0.6214940999998362,621.4940999998362
6,20260325_140431,D,J,False,AUTOMATION1,3,196,996,fixed_delta,0.04169584712997743,0.012883078076194597,,,,,0.46342601104287795,1668,1932,1,0.95,WHITE,WHITE,True,0,0.0012999989849049598,WHITE,True,CORRECT,1.4405270999995992,1440.5270999995992
6,20260325_140431,D,J,False,AUTOMATION1,3,197,997,fixed_delta,0.04169584712997743,0.012883078076194597,,,,,0.5439332954837456,1958,1642,1,0.95,BLACK,BLACK,True,0,0.0012999989849049598,BLACK,True,CORRECT,2.2489083999971626,2248.9083999971626
6,20260325_140431,D,J,False,AUTOMATION1,3,198,998,fixed_delta,0.04169584712997743,0.012883078076194597,,,,,0.5656055619789537,2036,1564,1,0.95,BLACK,BLACK,True,0,0.0016000012692529708,BLACK,True,CORRECT,1.81079630000022,1810.79630000022
6,20260325_140431,D,J,False,AUTOMATION1,3,199,999,fixed_delta,0.04169584712997743,0.012883078076194597,,,,,0.530875231299101,1911,1689,1,0.95,BLACK,BLACK,True,0,0.0013999997463542968,WHITE,False,INCORRECT,0.6476851000006718,647.6851000006718
6,20260325_140431,D,J,False,AUTOMATION1,3,200,1000,fixed_delta,0.04169584712997743,0.012883078076194597,,,,,0.5386844284675149,1939,1661,1,0.95,BLACK,BLACK,True,0,0.0015000005078036338,BLACK,True,CORRECT,1.7403120000017225,1740.3120000017225
6,20260325_140431,D,J,False,AUTOMATION1,3,201,1001,fixed_delta,0.04169584712997743,0.012883078076194597,,,,,0.45513230176484615,1638,1962,1,0.95,WHITE,WHITE,True,0,0.001400003384333104,WHITE,True,CORRECT,0.662889000002906,662.889000002906
6,20260325_140431,D,J,False,AUTOMATION1,3,202,1002,fixed_delta,0.04169584712997743,0.012883078076194597,,,,,0.5350037736273081,1926,1674,1,0.95,BLACK,BLACK,True,0,0.0012999989849049598,BLACK,True,CORRECT,0.9568599999984144,956.8599999984144
6,20260325_140431,D,J,False,AUTOMATION1,3,203,1003,fixed_delta,0.04169584712997743,0.012883078076194597,,,,,0.5392573759575741,1941,1659,1,0.95,BLACK,BLACK,True,0,0.0013999997463542968,BLACK,True,CORRECT,1.3024847999986378,1302.4847999986378
6,20260325_140431,D,J,False,AUTOMATION1,3,204,1004,fixed_delta,0.04169584712997743,0.012883078076194597,,,,,0.5297325404934344,1907,1693,1,0.95,BLACK,BLACK,True,0,0.0012000018614344299,WHITE,False,INCORRECT,1.1874056000015116,1187.4056000015116
6,20260325_140431,D,J,False,AUTOMATION1,3,205,1005,fixed_delta,0.04169584712997743,0.012883078076194597,,,,,0.5598307157079697,2015,1585,1,0.95,BLACK,BLACK,True,0,0.0015999976312741637,BLACK,True,CORRECT,0.8256963999992877,825.6963999992877
6,20260325_140431,D,J,False,AUTOMATION1,3,206,1006,fixed_delta,0.04169584712997743,0.012883078076194597,,,,,0.46388625787247967,1670,1930,1,0.95,WHITE,WHITE,True,0,0.0016000012692529708,WHITE,True,CORRECT,0.9414438000021619,941.4438000021619
6,20260325_140431,D,J,False,AUTOMATION1,3,207,1007,fixed_delta,0.04169584712997743,0.012883078076194597,,,,,0.4626887762253023,1666,1934,1,0.95,WHITE,WHITE,True,0,0.0017000020307023078,WHITE,True,CORRECT,0.9224584000003233,922.4584000003233
6,20260325_140431,D,J,False,AUTOMATION1,3,208,1008,fixed_delta,0.04169584712997743,0.012883078076194597,,,,,0.5386408561657258,1939,1661,1,0.95,BLACK,BLACK,True,0,0.0020000006770715117,BLACK,True,CORRECT,0.9592186999980186,959.2186999980186
6,20260325_140431,D,J,False,AUTOMATION1,3,209,1009,fixed_delta,0.04169584712997743,0.012883078076194597,,,,,0.530189087610039,1909,1691,1,0.95,BLACK,BLACK,True,0,0.0012999989849049598,WHITE,False,INCORRECT,1.1072604000000865,1107.2604000000865
6,20260325_140431,D,J,False,AUTOMATION1,3,210,1010,fixed_delta,0.04169584712997743,0.012883078076194597,,,,,0.5492360997916967,1977,1623,1,0.95,BLACK,BLACK,True,0,0.0015999976312741637,BLACK,True,CORRECT,1.306042599997454,1306.042599997454
6,20260325_140431,D,J,False,AUTOMATION1,3,211,1011,fixed_delta,0.04169584712997743,0.012883078076194597,,,,,0.5587558648175877,2012,1588,1,0.95,BLACK,BLACK,True,0,0.0012999989849049598,BLACK,True,CORRECT,1.1649534999996831,1164.9534999996831
6,20260325_140431,D,J,False,AUTOMATION1,3,212,1012,fixed_delta,0.04169584712997743,0.012883078076194597,,,,,0.45958539701386353,1655,1945,1,0.95,WHITE,WHITE,True,0,0.0017999991541728377,WHITE,True,CORRECT,0.6376098000000638,637.6098000000638
6,20260325_140431,D,J,False,AUTOMATION1,3,213,1013,fixed_delta,0.04169584712997743,0.012883078076194597,,,,,0.5325391368495928,1917,1683,1,0.95,BLACK,BLACK,True,0,0.0015000005078036338,BLACK,True,CORRECT,0.7378461000007519,737.8461000007519
6,20260325_140431,D,J,False,AUTOMATION1,3,214,1014,fixed_delta,0.04169584712997743,0.012883078076194597,,,,,0.45506043342411956,1638,1962,1,0.95,WHITE,WHITE,True,0,0.0015999976312741637,WHITE,True,CORRECT,0.7351101999993261,735.1101999993261
6,20260325_140431,D,J,False,AUTOMATION1,3,215,1015,fixed_delta,0.04169584712997743,0.012883078076194597,,,,,0.43792046407466495,1577,2023,1,0.95,WHITE,WHITE,True,0,0.0015000005078036338,WHITE,True,CORRECT,0.7390472999977646,739.0472999977646
6,20260325_140431,D,J,False,AUTOMATION1,3,216,1016,fixed_delta,0.04169584712997743,0.012883078076194597,,,,,0.5501909063743182,1981,1619,1,0.95,BLACK,BLACK,True,0,0.0012999989849049598,BLACK,True,CORRECT,0.5460315999989689,546.0315999989689
6,20260325_140431,D,J,False,AUTOMATION1,3,217,1017,fixed_delta,0.04169584712997743,0.012883078076194597,,,,,0.47179078812393815,1698,1902,1,0.95,WHITE,WHITE,True,0,0.0010999974620062858,WHITE,True,CORRECT,0.7202689000005194,720.2689000005194
6,20260325_140431,D,J,False,AUTOMATION1,3,218,1018,fixed_delta,0.04169584712997743,0.012883078076194597,,,,,0.46723680535642553,1682,1918,1,0.95,WHITE,WHITE,True,0,0.0013999997463542968,WHITE,True,CORRECT,0.6834591000006185,683.4591000006185
6,20260325_140431,D,J,False,AUTOMATION1,3,219,1019,fixed_delta,0.04169584712997743,0.012883078076194597,,,,,0.5448553874733243,1961,1639,1,0.95,BLACK,BLACK,True,0,0.0013999997463542968,BLACK,True,CORRECT,0.5776867999993556,577.6867999993556
6,20260325_140431,D,J,False,AUTOMATION1,3,220,1020,fixed_delta,0.04169584712997743,0.012883078076194597,,,,,0.5301882092173782,1909,1691,1,0.95,BLACK,BLACK,True,0,0.0012999989849049598,BLACK,True,CORRECT,1.0514791999994486,1051.4791999994486
6,20260325_140431,D,J,False,AUTOMATION1,3,221,1021,fixed_delta,0.04169584712997743,0.012883078076194597,,,,,0.5420980110054597,1952,1648,1,0.95,BLACK,BLACK,True,0,0.0013999997463542968,BLACK,True,CORRECT,0.6832878999994136,683.2878999994136
6,20260325_140431,D,J,False,AUTOMATION1,3,222,1022,fixed_delta,0.04169584712997743,0.012883078076194597,,,,,0.46637820197479735,1679,1921,1,0.95,WHITE,WHITE,True,0,0.0013999997463542968,WHITE,True,CORRECT,0.5841503999981796,584.1503999981796
6,20260325_140431,D,J,False,AUTOMATION1,3,223,1023,fixed_delta,0.04169584712997743,0.012883078076194597,,,,,0.4538680540358349,1634,1966,1,0.95,WHITE,WHITE,True,0,0.0013999997463542968,BLACK,False,INCORRECT,1.0630694999999832,1063.0694999999832
6,20260325_140431,D,J,False,AUTOMATION1,3,224,1024,fixed_delta,0.04169584712997743,0.012883078076194597,,,,,0.5362400085676148,1930,1670,1,0.95,BLACK,BLACK,True,0,0.0012999989849049598,BLACK,True,CORRECT,0.6721536000004562,672.1536000004562
6,20260325_140431,D,J,False,AUTOMATION1,3,225,1025,fixed_delta,0.04169584712997743,0.012883078076194597,,,,,0.5402798151375398,1945,1655,1,0.95,BLACK,BLACK,True,0,0.0017999991541728377,BLACK,True,CORRECT,0.8058918999995512,805.8918999995512
6,20260325_140431,D,J,False,AUTOMATION1,3,226,1026,fixed_delta,0.04169584712997743,0.012883078076194597,,,,,0.5517088797133233,1986,1614,1,0.95,BLACK,BLACK,True,0,0.0015000005078036338,BLACK,True,CORRECT,0.6828029000025708,682.8029000025708
6,20260325_140431,D,J,False,AUTOMATION1,3,227,1027,fixed_delta,0.04169584712997743,0.012883078076194597,,,,,0.44807080992357806,1613,1987,1,0.95,WHITE,WHITE,True,0,0.0013000026228837669,WHITE,True,CORRECT,0.5630686000004061,563.0686000004061
6,20260325_140431,D,J,False,AUTOMATION1,3,228,1028,fixed_delta,0.04169584712997743,0.012883078076194597,,,,,0.47696598169754867,1717,1883,1,0.95,WHITE,WHITE,True,0,0.0013999997463542968,WHITE,True,CORRECT,1.2391504000006535,1239.1504000006535
6,20260325_140431,D,J,False,AUTOMATION1,3,229,1029,fixed_delta,0.04169584712997743,0.012883078076194597,,,,,0.4738348064739815,1706,1894,1,0.95,WHITE,WHITE,True,0,0.0017999991541728377,WHITE,True,CORRECT,0.8515447999998287,851.5447999998287
6,20260325_140431,D,J,False,AUTOMATION1,3,230,1030,fixed_delta,0.04169584712997743,0.012883078076194597,,,,,0.5341767402003482,1923,1677,1,0.95,BLACK,BLACK,True,0,0.001400003384333104,BLACK,True,CORRECT,0.6034023000029265,603.4023000029265
6,20260325_140431,D,J,False,AUTOMATION1,3,231,1031,fixed_delta,0.04169584712997743,0.012883078076194597,,,,,0.5350649894048296,1926,1674,1,0.95,BLACK,BLACK,True,0,0.0013000026228837669,BLACK,True,CORRECT,0.7005382000024838,700.5382000024838
6,20260325_140431,D,J,False,AUTOMATION1,3,232,1032,fixed_delta,0.04169584712997743,0.012883078076194597,,,,,0.5432050939092932,1956,1644,1,0.95,BLACK,BLACK,True,0,0.0016999983927235007,BLACK,True,CORRECT,0.5951591000011831,595.1591000011831
6,20260325_140431,D,J,False,AUTOMATION1,3,233,1033,fixed_delta,0.04169584712997743,0.012883078076194597,,,,,0.5608539057236692,2019,1581,1,0.95,BLACK,BLACK,True,0,0.0015000005078036338,BLACK,True,CORRECT,0.5911081000012928,591.1081000012928
6,20260325_140431,D,J,False,AUTOMATION1,3,234,1034,fixed_delta,0.04169584712997743,0.012883078076194597,,,,,0.4774124772884169,1719,1881,1,0.95,WHITE,WHITE,True,0,0.0012999989849049598,WHITE,True,CORRECT,0.5730041999995592,573.0041999995592
6,20260325_140431,D,J,False,AUTOMATION1,3,235,1035,fixed_delta,0.04169584712997743,0.012883078076194597,,,,,0.43875201891549886,1580,2020,1,0.95,WHITE,WHITE,True,0,0.0015000005078036338,WHITE,True,CORRECT,0.6781613000021025,678.1613000021025
6,20260325_140431,D,J,False,AUTOMATION1,3,236,1036,fixed_delta,0.04169584712997743,0.012883078076194597,,,,,0.4580315809376557,1649,1951,1,0.95,WHITE,WHITE,True,0,0.0013999997463542968,WHITE,True,CORRECT,0.5751275000002352,575.1275000002352
6,20260325_140431,D,J,False,AUTOMATION1,3,237,1037,fixed_delta,0.04169584712997743,0.012883078076194597,,,,,0.42787525356701894,1540,2060,1,0.95,WHITE,WHITE,True,0,0.0011999982234556228,WHITE,True,CORRECT,0.5195625999986078,519.5625999986078
6,20260325_140431,D,J,False,AUTOMATION1,3,238,1038,fixed_delta,0.04169584712997743,0.012883078076194597,,,,,0.5527300235682994,1990,1610,1,0.95,BLACK,WHITE,False,0,0.0018000027921516448,BLACK,True,CORRECT,0.6494979000017338,649.4979000017338
6,20260325_140431,D,J,False,AUTOMATION1,3,239,1039,fixed_delta,0.04169584712997743,0.012883078076194597,,,,,0.5480780049727241,1973,1627,1,0.95,BLACK,BLACK,True,0,0.0014999968698248267,BLACK,True,CORRECT,1.2257112999977835,1225.7112999977835
6,20260325_140431,D,J,False,AUTOMATION1,3,240,1040,fixed_delta,0.04169584712997743,0.012883078076194597,,,,,0.439162349917407,1581,2019,1,0.95,WHITE,WHITE,True,0,0.0012000018614344299,WHITE,True,CORRECT,1.31297270000141,1312.97270000141
6,20260325_140431,D,J,False,AUTOMATION1,3,241,1041,fixed_delta,0.04169584712997743,0.012883078076194597,,,,,0.5669068503028875,2041,1559,1,0.95,BLACK,WHITE,False,0,0.0017999991541728377,WHITE,False,INCORRECT,1.3210104999998293,1321.0104999998293
6,20260325_140431,D,J,False,AUTOMATION1,3,242,1042,fixed_delta,0.04169584712997743,0.012883078076194597,,,,,0.5357419875518128,1929,1671,1,0.95,BLACK,BLACK,True,0,0.0011999982234556228,BLACK,True,CORRECT,0.4263960999996925,426.3960999996925
6,20260325_140431,D,J,False,AUTOMATION1,3,243,1043,fixed_delta,0.04169584712997743,0.012883078076194597,,,,,0.5436444616947678,1957,1643,1,0.95,BLACK,BLACK,True,0,0.0015000005078036338,BLACK,True,CORRECT,0.5001456000027247,500.1456000027247
6,20260325_140431,D,J,False,AUTOMATION1,3,244,1044,fixed_delta,0.04169584712997743,0.012883078076194597,,,,,0.539263356521678,1941,1659,1,0.95,BLACK,BLACK,True,0,0.0016999983927235007,WHITE,False,INCORRECT,0.8070440999981656,807.0440999981656
6,20260325_140431,D,J,False,AUTOMATION1,3,245,1045,fixed_delta,0.04169584712997743,0.012883078076194597,,,,,0.5662844220355958,2039,1561,1,0.95,BLACK,BLACK,True,0,0.0013000026228837669,BLACK,True,CORRECT,0.6869230000011157,686.9230000011157
6,20260325_140431,D,J,False,AUTOMATION1,3,246,1046,fixed_delta,0.04169584712997743,0.012883078076194597,,,,,0.47034624986209694,1693,1907,1,0.95,WHITE,WHITE,True,0,0.0016999983927235007,WHITE,True,CORRECT,0.6683961999988242,668.3961999988242
6,20260325_140431,D,J,False,AUTOMATION1,3,247,1047,fixed_delta,0.04169584712997743,0.012883078076194597,,,,,0.5435161013911908,1957,1643,1,0.95,BLACK,BLACK,True,0,0.0015000005078036338,BLACK,True,CORRECT,1.1355169000016758,1135.5169000016758
6,20260325_140431,D,J,False,AUTOMATION1,3,248,1048,fixed_delta,0.04169584712997743,0.012883078076194597,,,,,0.538090388608697,1937,1663,1,0.95,BLACK,BLACK,True,0,0.0013999997463542968,WHITE,False,INCORRECT,1.1584122000022035,1158.4122000022035
6,20260325_140431,D,J,False,AUTOMATION1,3,249,1049,fixed_delta,0.04169584712997743,0.012883078076194597,,,,,0.5393690221435761,1942,1658,1,0.95,BLACK,BLACK,True,0,0.0015000005078036338,WHITE,False,INCORRECT,0.9833421000003,983.3421000003
6,20260325_140431,D,J,False,AUTOMATION1,3,250,1050,fixed_delta,0.04169584712997743,0.012883078076194597,,,,,0.549396261863395,1978,1622,1,0.95,BLACK,BLACK,True,0,0.0013999997463542968,BLACK,True,CORRECT,0.7186424999999872,718.6424999999872
6,20260325_140431,D,J,False,AUTOMATION1,3,251,1051,fixed_delta,0.04169584712997743,0.012883078076194597,,,,,0.5448779901281684,1962,1638,1,0.95,BLACK,BLACK,True,0,0.0012999989849049598,WHITE,False,INCORRECT,0.9269234999992477,926.9234999992477
6,20260325_140431,D,J,False,AUTOMATION1,3,252,1052,fixed_delta,0.04169584712997743,0.012883078076194597,,,,,0.5530364092621111,1991,1609,1,0.95,BLACK,BLACK,True,0,0.0017999991541728377,BLACK,True,CORRECT,0.6599558999987494,659.9558999987494
6,20260325_140431,D,J,False,AUTOMATION1,3,253,1053,fixed_delta,0.04169584712997743,0.012883078076194597,,,,,0.524503528032899,1888,1712,1,0.95,BLACK,BLACK,True,0,0.0013999997463542968,WHITE,False,INCORRECT,0.5974586999982421,597.4586999982421
6,20260325_140431,D,J,False,AUTOMATION1,3,254,1054,fixed_delta,0.04169584712997743,0.012883078076194597,,,,,0.4665962488362086,1680,1920,1,0.95,WHITE,WHITE,True,0,0.0017000020307023078,WHITE,True,CORRECT,0.615966400000616,615.966400000616
6,20260325_140431,D,J,False,AUTOMATION1,3,255,1055,fixed_delta,0.04169584712997743,0.012883078076194597,,,,,0.4351518453295441,1567,2033,1,0.95,WHITE,BLACK,False,0,0.0015000005078036338,WHITE,True,CORRECT,0.7073457000005874,707.3457000005874
6,20260325_140431,D,J,False,AUTOMATION1,3,256,1056,fixed_delta,0.04169584712997743,0.012883078076194597,,,,,0.44938093537811485,1618,1982,1,0.95,WHITE,WHITE,True,0,0.0017999991541728377,WHITE,True,CORRECT,0.6034619999991264,603.4619999991264
6,20260325_140431,D,J,False,AUTOMATION1,3,257,1057,fixed_delta,0.04169584712997743,0.012883078076194597,,,,,0.5437361081164181,1957,1643,1,0.95,BLACK,BLACK,True,0,0.0018000027921516448,WHITE,False,INCORRECT,0.6458974000015587,645.8974000015587
6,20260325_140431,D,J,False,AUTOMATION1,3,258,1058,fixed_delta,0.04169584712997743,0.012883078076194597,,,,,0.4552996332587328,1639,1961,1,0.95,WHITE,WHITE,True,0,0.0016999983927235007,WHITE,True,CORRECT,0.6365340999982436,636.5340999982436
6,20260325_140431,D,J,False,AUTOMATION1,3,259,1059,fixed_delta,0.04169584712997743,0.012883078076194597,,,,,0.5404387290699305,1946,1654,1,0.95,BLACK,BLACK,True,0,0.0014999968698248267,BLACK,True,CORRECT,2.46847539999726,2468.47539999726
6,20260325_140431,D,J,False,AUTOMATION1,3,260,1060,fixed_delta,0.04169584712997743,0.012883078076194597,,,,,0.5470351145323098,1969,1631,1,0.95,BLACK,BLACK,True,0,0.0012999989849049598,BLACK,True,CORRECT,0.6935254999989411,693.5254999989411
6,20260325_140431,D,J,False,AUTOMATION1,3,261,1061,fixed_delta,0.04169584712997743,0.012883078076194597,,,,,0.44508696335151376,1602,1998,1,0.95,WHITE,WHITE,True,0,0.0016000012692529708,WHITE,True,CORRECT,0.7905558000020392,790.5558000020392
6,20260325_140431,D,J,False,AUTOMATION1,3,262,1062,fixed_delta,0.04169584712997743,0.012883078076194597,,,,,0.47546429896746173,1712,1888,1,0.95,WHITE,WHITE,True,0,0.0012999989849049598,WHITE,True,CORRECT,1.1047833999982686,1104.7833999982686
6,20260325_140431,D,J,False,AUTOMATION1,3,263,1063,fixed_delta,0.04169584712997743,0.012883078076194597,,,,,0.5275364907992711,1899,1701,1,0.95,BLACK,BLACK,True,0,0.0013000026228837669,WHITE,False,INCORRECT,1.0144017999991775,1014.4017999991775
6,20260325_140431,D,J,False,AUTOMATION1,3,264,1064,fixed_delta,0.04169584712997743,0.012883078076194597,,,,,0.5606276599402679,2018,1582,1,0.95,BLACK,BLACK,True,0,0.0015000005078036338,BLACK,True,CORRECT,0.5089923000014096,508.9923000014096
6,20260325_140431,D,J,False,AUTOMATION1,3,265,1065,fixed_delta,0.04169584712997743,0.012883078076194597,,,,,0.45294145366641997,1631,1969,1,0.95,WHITE,WHITE,True,0,0.0015000005078036338,WHITE,True,CORRECT,0.7079470999997284,707.9470999997284
6,20260325_140431,D,J,False,AUTOMATION1,3,266,1066,fixed_delta,0.04169584712997743,0.012883078076194597,,,,,0.4513163976606259,1625,1975,1,0.95,WHITE,WHITE,True,0,0.0017999991541728377,WHITE,True,CORRECT,0.7867733999992197,786.7733999992197
6,20260325_140431,D,J,False,AUTOMATION1,3,267,1067,fixed_delta,0.04169584712997743,0.012883078076194597,,,,,0.4652908680915683,1675,1925,1,0.95,WHITE,WHITE,True,0,0.0013000026228837669,WHITE,True,CORRECT,1.608497700002772,1608.497700002772
6,20260325_140431,D,J,False,AUTOMATION1,3,268,1068,fixed_delta,0.04169584712997743,0.012883078076194597,,,,,0.544068683131566,1959,1641,1,0.95,BLACK,BLACK,True,0,0.0013000026228837669,BLACK,True,CORRECT,0.8270014000008814,827.0014000008814
6,20260325_140431,D,J,False,AUTOMATION1,3,269,1069,fixed_delta,0.04169584712997743,0.012883078076194597,,,,,0.43824589566335126,1578,2022,1,0.95,WHITE,WHITE,True,0,0.0015999976312741637,WHITE,True,CORRECT,0.6848838999976579,684.8838999976579
6,20260325_140431,D,J,False,AUTOMATION1,3,270,1070,fixed_delta,0.04169584712997743,0.012883078076194597,,,,,0.44216936031105025,1592,2008,1,0.95,WHITE,WHITE,True,0,0.0013999997463542968,WHITE,True,CORRECT,1.289491799998359,1289.491799998359
6,20260325_140431,D,J,False,AUTOMATION1,3,271,1071,fixed_delta,0.04169584712997743,0.012883078076194597,,,,,0.5406021877983307,1946,1654,1,0.95,BLACK,WHITE,False,0,0.0015000005078036338,BLACK,True,CORRECT,1.36555959999896,1365.55959999896
6,20260325_140431,D,J,False,AUTOMATION1,3,272,1072,fixed_delta,0.04169584712997743,0.012883078076194597,,,,,0.46564436914015905,1676,1924,1,0.95,WHITE,WHITE,True,0,0.0011999982234556228,WHITE,True,CORRECT,0.906787699997949,906.787699997949
6,20260325_140431,D,J,False,AUTOMATION1,3,273,1073,fixed_delta,0.04169584712997743,0.012883078076194597,,,,,0.5449472834465764,1962,1638,1,0.95,BLACK,BLACK,True,0,0.0016999983927235007,BLACK,True,CORRECT,0.8103388999988965,810.3388999988965
6,20260325_140431,D,J,False,AUTOMATION1,3,274,1074,fixed_delta,0.04169584712997743,0.012883078076194597,,,,,0.5325263438354136,1917,1683,1,0.95,BLACK,BLACK,True,0,0.0015000005078036338,BLACK,True,CORRECT,1.2592967000018689,1259.2967000018689
6,20260325_140431,D,J,False,AUTOMATION1,3,275,1075,fixed_delta,0.04169584712997743,0.012883078076194597,,,,,0.45390077415613306,1634,1966,1,0.95,WHITE,WHITE,True,0,0.0013999997463542968,WHITE,True,CORRECT,1.016244899998128,1016.244899998128
6,20260325_140431,D,J,False,AUTOMATION1,3,276,1076,fixed_delta,0.04169584712997743,0.012883078076194597,,,,,0.5318166734141586,1915,1685,1,0.95,BLACK,BLACK,True,0,0.001400003384333104,BLACK,True,CORRECT,1.066459700003179,1066.459700003179
6,20260325_140431,D,J,False,AUTOMATION1,3,277,1077,fixed_delta,0.04169584712997743,0.012883078076194597,,,,,0.45165982900713175,1626,1974,1,0.95,WHITE,WHITE,True,0,0.0012999989849049598,WHITE,True,CORRECT,0.6763933000001998,676.3933000001998
6,20260325_140431,D,J,False,AUTOMATION1,3,278,1078,fixed_delta,0.04169584712997743,0.012883078076194597,,,,,0.4440774219297591,1599,2001,1,0.95,WHITE,WHITE,True,0,0.0017000020307023078,WHITE,True,CORRECT,0.8665082000006805,866.5082000006805
6,20260325_140431,D,J,False,AUTOMATION1,3,279,1079,fixed_delta,0.04169584712997743,0.012883078076194597,,,,,0.44853185562674597,1615,1985,1,0.95,WHITE,WHITE,True,0,0.0012999989849049598,WHITE,True,CORRECT,0.6913420999990194,691.3420999990194
6,20260325_140431,D,J,False,AUTOMATION1,3,280,1080,fixed_delta,0.04169584712997743,0.012883078076194597,,,,,0.5383710146537627,1938,1662,1,0.95,BLACK,BLACK,True,0,0.0013999997463542968,BLACK,True,CORRECT,1.0517977999988943,1051.7977999988943
6,20260325_140431,D,J,False,AUTOMATION1,3,281,1081,fixed_delta,0.04169584712997743,0.012883078076194597,,,,,0.4465568024110103,1608,1992,1,0.95,WHITE,WHITE,True,0,0.0012999989849049598,WHITE,True,CORRECT,0.78001900000163,780.01900000163
6,20260325_140431,D,J,False,AUTOMATION1,3,282,1082,fixed_delta,0.04169584712997743,0.012883078076194597,,,,,0.5464291298159112,1967,1633,1,0.95,BLACK,BLACK,True,0,0.0011000010999850929,BLACK,True,CORRECT,1.3336180000005697,1333.6180000005697
6,20260325_140431,D,J,False,AUTOMATION1,3,283,1083,fixed_delta,0.04169584712997743,0.012883078076194597,,,,,0.5282419671869978,1902,1698,1,0.95,BLACK,BLACK,True,0,0.0020000006770715117,WHITE,False,INCORRECT,1.8193467000019155,1819.3467000019155
6,20260325_140431,D,J,False,AUTOMATION1,3,284,1084,fixed_delta,0.04169584712997743,0.012883078076194597,,,,,0.5485567629229673,1975,1625,1,0.95,BLACK,BLACK,True,0,0.0012999989849049598,BLACK,True,CORRECT,0.5869272999989334,586.9272999989334
6,20260325_140431,D,J,False,AUTOMATION1,3,285,1085,fixed_delta,0.04169584712997743,0.012883078076194597,,,,,0.4590325800638383,1653,1947,1,0.95,WHITE,WHITE,True,0,0.0013999997463542968,WHITE,True,CORRECT,0.5807987000007415,580.7987000007415
6,20260325_140431,D,J,False,AUTOMATION1,3,286,1086,fixed_delta,0.04169584712997743,0.012883078076194597,,,,,0.5342699208908142,1923,1677,1,0.95,BLACK,BLACK,True,0,0.0015999976312741637,BLACK,True,CORRECT,0.6338331000006292,633.8331000006292
6,20260325_140431,D,J,False,AUTOMATION1,3,287,1087,fixed_delta,0.04169584712997743,0.012883078076194597,,,,,0.5392408856169875,1941,1659,1,0.95,BLACK,BLACK,True,0,0.0017000020307023078,BLACK,True,CORRECT,3.242450600002485,3242.450600002485
6,20260325_140431,D,J,False,AUTOMATION1,3,288,1088,fixed_delta,0.04169584712997743,0.012883078076194597,,,,,0.47676537159207044,1716,1884,1,0.95,WHITE,WHITE,True,0,0.0016000012692529708,WHITE,True,CORRECT,0.6018560999982583,601.8560999982583
6,20260325_140431,D,J,False,AUTOMATION1,3,289,1089,fixed_delta,0.04169584712997743,0.012883078076194597,,,,,0.4634119735660284,1668,1932,1,0.95,WHITE,WHITE,True,0,0.0016000012692529708,WHITE,True,CORRECT,0.5909222999980557,590.9222999980557
6,20260325_140431,D,J,False,AUTOMATION1,3,290,1090,fixed_delta,0.04169584712997743,0.012883078076194597,,,,,0.4653489751911286,1675,1925,1,0.95,WHITE,WHITE,True,0,0.0016999983927235007,WHITE,True,CORRECT,0.4942842999989807,494.2842999989807
6,20260325_140431,D,J,False,AUTOMATION1,3,291,1091,fixed_delta,0.04169584712997743,0.012883078076194597,,,,,0.5167153019811835,1860,1740,1,0.95,BLACK,BLACK,True,0,0.0016000012692529708,BLACK,True,CORRECT,0.4848835999982839,484.8835999982839
6,20260325_140431,D,J,False,AUTOMATION1,3,292,1092,fixed_delta,0.04169584712997743,0.012883078076194597,,,,,0.4550390524639459,1638,1962,1,0.95,WHITE,WHITE,True,0,0.0013999997463542968,WHITE,True,CORRECT,0.5151975000007951,515.1975000007951
6,20260325_140431,D,J,False,AUTOMATION1,3,293,1093,fixed_delta,0.04169584712997743,0.012883078076194597,,,,,0.5390551475945763,1941,1659,1,0.95,BLACK,BLACK,True,0,0.0015000005078036338,BLACK,True,CORRECT,0.40194070000143256,401.94070000143256
6,20260325_140431,D,J,False,AUTOMATION1,3,294,1094,fixed_delta,0.04169584712997743,0.012883078076194597,,,,,0.4598941070373722,1656,1944,1,0.95,WHITE,WHITE,True,0,0.0016000012692529708,WHITE,True,CORRECT,0.48384299999815994,483.84299999815994
6,20260325_140431,D,J,False,AUTOMATION1,3,295,1095,fixed_delta,0.04169584712997743,0.012883078076194597,,,,,0.5356619348062216,1928,1672,1,0.95,BLACK,BLACK,True,0,0.0012999989849049598,BLACK,True,CORRECT,0.5916422000009334,591.6422000009334
6,20260325_140431,D,J,False,AUTOMATION1,3,296,1096,fixed_delta,0.04169584712997743,0.012883078076194597,,,,,0.5492637572547149,1977,1623,1,0.95,BLACK,BLACK,True,0,0.0013999997463542968,BLACK,True,CORRECT,0.5047328000000562,504.73280000005616
6,20260325_140431,D,J,False,AUTOMATION1,3,297,1097,fixed_delta,0.04169584712997743,0.012883078076194597,,,,,0.45916994436358965,1653,1947,1,0.95,WHITE,WHITE,True,0,0.0013999997463542968,WHITE,True,CORRECT,0.6082180000012158,608.2180000012158
6,20260325_140431,D,J,False,AUTOMATION1,3,298,1098,fixed_delta,0.04169584712997743,0.012883078076194597,,,,,0.45907000369403683,1653,1947,1,0.95,WHITE,WHITE,True,0,0.0013999997463542968,WHITE,True,CORRECT,0.5463706999980786,546.3706999980786
6,20260325_140431,D,J,False,AUTOMATION1,3,299,1099,fixed_delta,0.04169584712997743,0.012883078076194597,,,,,0.4762259129507391,1714,1886,1,0.95,WHITE,WHITE,True,0,0.0015000005078036338,WHITE,True,CORRECT,0.5022568999993382,502.2568999993382
6,20260325_140431,D,J,False,AUTOMATION1,3,300,1100,fixed_delta,0.04169584712997743,0.012883078076194597,,,,,0.4525426718626344,1629,1971,1,0.95,WHITE,WHITE,True,0,0.0012000018614344299,WHITE,True,CORRECT,0.48702330000014626,487.02330000014626
6,20260325_140431,D,J,False,AUTOMATION1,3,301,1101,fixed_delta,0.04169584712997743,0.012883078076194597,,,,,0.46024524170642794,1657,1943,1,0.95,WHITE,WHITE,True,0,0.0012999989849049598,WHITE,True,CORRECT,0.4436161000012362,443.6161000012362
6,20260325_140431,D,J,False,AUTOMATION1,3,302,1102,fixed_delta,0.04169584712997743,0.012883078076194597,,,,,0.5611754196007481,2020,1580,1,0.95,BLACK,BLACK,True,0,0.0013999997463542968,BLACK,True,CORRECT,0.6268846999992093,626.8846999992093
6,20260325_140431,D,J,False,AUTOMATION1,3,303,1103,fixed_delta,0.04169584712997743,0.012883078076194597,,,,,0.5344764337419787,1924,1676,1,0.95,BLACK,BLACK,True,0,0.0020000006770715117,BLACK,True,CORRECT,0.4388403999982984,438.8403999982984
6,20260325_140431,D,J,False,AUTOMATION1,3,304,1104,fixed_delta,0.04169584712997743,0.012883078076194597,,,,,0.4607358728025124,1659,1941,1,0.95,WHITE,WHITE,True,0,0.0013999997463542968,WHITE,True,CORRECT,0.5967087999997602,596.7087999997602
6,20260325_140431,D,J,False,AUTOMATION1,3,305,1105,fixed_delta,0.04169584712997743,0.012883078076194597,,,,,0.46528901009898693,1675,1925,1,0.95,WHITE,WHITE,True,0,0.0012999989849049598,WHITE,True,CORRECT,0.5266417999991972,526.6417999991972
6,20260325_140431,D,J,False,AUTOMATION1,3,306,1106,fixed_delta,0.04169584712997743,0.012883078076194597,,,,,0.4790941878558543,1725,1875,1,0.95,WHITE,WHITE,True,0,0.0012999989849049598,WHITE,True,CORRECT,0.5208215000020573,520.8215000020573
6,20260325_140431,D,J,False,AUTOMATION1,3,307,1107,fixed_delta,0.04169584712997743,0.012883078076194597,,,,,0.45549877865910376,1640,1960,1,0.95,WHITE,WHITE,True,0,0.0012999989849049598,WHITE,True,CORRECT,0.42577840000012657,425.77840000012657
6,20260325_140431,D,J,False,AUTOMATION1,3,308,1108,fixed_delta,0.04169584712997743,0.012883078076194597,,,,,0.5409376110646902,1947,1653,1,0.95,BLACK,WHITE,False,0,0.0017999991541728377,WHITE,False,INCORRECT,0.4431684999981371,443.1684999981371
6,20260325_140431,D,J,False,AUTOMATION1,3,309,1109,fixed_delta,0.04169584712997743,0.012883078076194597,,,,,0.4560226571019162,1642,1958,1,0.95,WHITE,WHITE,True,0,0.0016999983927235007,WHITE,True,CORRECT,0.6040513000007195,604.0513000007195
6,20260325_140431,D,J,False,AUTOMATION1,3,310,1110,fixed_delta,0.04169584712997743,0.012883078076194597,,,,,0.4451740634466195,1603,1997,1,0.95,WHITE,WHITE,True,0,0.0014999968698248267,WHITE,True,CORRECT,0.47447789999932866,474.47789999932866
6,20260325_140431,D,J,False,AUTOMATION1,3,311,1111,fixed_delta,0.04169584712997743,0.012883078076194597,,,,,0.5240806686889425,1887,1713,1,0.95,BLACK,BLACK,True,0,0.0015999976312741637,BLACK,True,CORRECT,1.2356452999993053,1235.6452999993053
6,20260325_140431,D,J,False,AUTOMATION1,3,312,1112,fixed_delta,0.04169584712997743,0.012883078076194597,,,,,0.524842366603148,1889,1711,1,0.95,BLACK,WHITE,False,0,0.0015999976312741637,WHITE,False,INCORRECT,0.6017952000001969,601.7952000001969
6,20260325_140431,D,J,False,AUTOMATION1,3,313,1113,fixed_delta,0.04169584712997743,0.012883078076194597,,,,,0.46436599576657894,1672,1928,1,0.95,WHITE,WHITE,True,0,0.0012999989849049598,WHITE,True,CORRECT,0.6160497999990184,616.0497999990184
6,20260325_140431,D,J,False,AUTOMATION1,3,314,1114,fixed_delta,0.04169584712997743,0.012883078076194597,,,,,0.4709558242751466,1695,1905,1,0.95,WHITE,WHITE,True,0,0.0013999997463542968,WHITE,True,CORRECT,0.7523543000024802,752.3543000024802
6,20260325_140431,D,J,False,AUTOMATION1,3,315,1115,fixed_delta,0.04169584712997743,0.012883078076194597,,,,,0.5220203260707147,1879,1721,1,0.95,BLACK,BLACK,True,0,0.0012999989849049598,BLACK,True,CORRECT,0.7747353000013391,774.735300001339
6,20260325_140431,D,J,False,AUTOMATION1,3,316,1116,fixed_delta,0.04169584712997743,0.012883078076194597,,,,,0.5335230405482121,1921,1679,1,0.95,BLACK,BLACK,True,0,0.0012999989849049598,BLACK,True,CORRECT,1.3359349999991537,1335.9349999991537
6,20260325_140431,D,J,False,AUTOMATION1,3,317,1117,fixed_delta,0.04169584712997743,0.012883078076194597,,,,,0.5210988211508687,1876,1724,1,0.95,BLACK,BLACK,True,0,0.0013000026228837669,BLACK,True,CORRECT,0.7143210000031104,714.3210000031104
6,20260325_140431,D,J,False,AUTOMATION1,3,318,1118,fixed_delta,0.04169584712997743,0.012883078076194597,,,,,0.4547689563567241,1637,1963,1,0.95,WHITE,WHITE,True,0,0.0012999989849049598,WHITE,True,CORRECT,0.5962073000009696,596.2073000009696
6,20260325_140431,D,J,False,AUTOMATION1,3,319,1119,fixed_delta,0.04169584712997743,0.012883078076194597,,,,,0.5580472123575994,2009,1591,1,0.95,BLACK,BLACK,True,0,0.0013999997463542968,BLACK,True,CORRECT,0.7115635000009206,711.5635000009206
6,20260325_140431,D,J,False,AUTOMATION1,3,320,1120,fixed_delta,0.04169584712997743,0.012883078076194597,,,,,0.5241844701189206,1887,1713,1,0.95,BLACK,BLACK,True,0,0.0012000018614344299,BLACK,True,CORRECT,1.036083700000745,1036.083700000745
6,20260325_140431,D,J,False,AUTOMATION1,3,321,1121,fixed_delta,0.04169584712997743,0.012883078076194597,,,,,0.5453767174087331,1963,1637,1,0.95,BLACK,BLACK,True,0,0.0016000012692529708,BLACK,True,CORRECT,0.8718412000016542,871.8412000016542
6,20260325_140431,D,J,False,AUTOMATION1,3,322,1122,fixed_delta,0.04169584712997743,0.012883078076194597,,,,,0.44704850256527934,1609,1991,1,0.95,WHITE,WHITE,True,0,0.0013999997463542968,WHITE,True,CORRECT,0.6206101999996463,620.6101999996463
6,20260325_140431,D,J,False,AUTOMATION1,3,323,1123,fixed_delta,0.04169584712997743,0.012883078076194597,,,,,0.46154719443331943,1662,1938,1,0.95,WHITE,WHITE,True,0,0.0013999997463542968,WHITE,True,CORRECT,0.6718360999984725,671.8360999984725
6,20260325_140431,D,J,False,AUTOMATION1,3,324,1124,fixed_delta,0.04169584712997743,0.012883078076194597,,,,,0.5470770284121687,1969,1631,1,0.95,BLACK,BLACK,True,0,0.0016999983927235007,BLACK,True,CORRECT,1.197554599999421,1197.554599999421
6,20260325_140431,D,J,False,AUTOMATION1,3,325,1125,fixed_delta,0.04169584712997743,0.012883078076194597,,,,,0.5339633923262725,1922,1678,1,0.95,BLACK,BLACK,True,0,0.0013999997463542968,BLACK,True,CORRECT,0.814562699997623,814.562699997623
6,20260325_140431,D,J,False,AUTOMATION1,3,326,1126,fixed_delta,0.04169584712997743,0.012883078076194597,,,,,0.5232017916038034,1884,1716,1,0.95,BLACK,BLACK,True,0,0.0016999983927235007,WHITE,False,INCORRECT,2.1261292999988655,2126.1292999988655
6,20260325_140431,D,J,False,AUTOMATION1,3,327,1127,fixed_delta,0.04169584712997743,0.012883078076194597,,,,,0.5332794067108139,1920,1680,1,0.95,BLACK,BLACK,True,0,0.0012999989849049598,BLACK,True,CORRECT,0.6813078000013775,681.3078000013775
6,20260325_140431,D,J,False,AUTOMATION1,3,328,1128,fixed_delta,0.04169584712997743,0.012883078076194597,,,,,0.5404370508591952,1946,1654,1,0.95,BLACK,BLACK,True,0,0.0015999976312741637,BLACK,True,CORRECT,0.5668038999974669,566.8038999974669
6,20260325_140431,D,J,False,AUTOMATION1,3,329,1129,fixed_delta,0.04169584712997743,0.012883078076194597,,,,,0.4371545602365589,1574,2026,1,0.95,WHITE,WHITE,True,0,0.0013999997463542968,WHITE,True,CORRECT,0.9098215000012715,909.8215000012715
6,20260325_140431,D,J,False,AUTOMATION1,3,330,1130,fixed_delta,0.04169584712997743,0.012883078076194597,,,,,0.4740531335343988,1707,1893,1,0.95,WHITE,WHITE,True,0,0.0012999989849049598,WHITE,True,CORRECT,0.677882399999362,677.882399999362
6,20260325_140431,D,J,False,AUTOMATION1,3,331,1131,fixed_delta,0.04169584712997743,0.012883078076194597,,,,,0.5366256679195984,1932,1668,1,0.95,BLACK,BLACK,True,0,0.0015000005078036338,BLACK,True,CORRECT,0.784115099999326,784.115099999326
6,20260325_140431,D,J,False,AUTOMATION1,3,332,1132,fixed_delta,0.04169584712997743,0.012883078076194597,,,,,0.5540544002670894,1995,1605,1,0.95,BLACK,BLACK,True,0,0.0012999989849049598,BLACK,True,CORRECT,1.017325199998595,1017.325199998595
6,20260325_140431,D,J,False,AUTOMATION1,3,333,1133,fixed_delta,0.04169584712997743,0.012883078076194597,,,,,0.5236513898544362,1885,1715,1,0.95,BLACK,BLACK,True,0,0.0013999997463542968,BLACK,True,CORRECT,0.9499665000003006,949.9665000003006
6,20260325_140431,D,J,False,AUTOMATION1,3,334,1134,fixed_delta,0.04169584712997743,0.012883078076194597,,,,,0.45330578348944756,1632,1968,1,0.95,WHITE,WHITE,True,0,0.0013999997463542968,WHITE,True,CORRECT,1.057985200000985,1057.985200000985
6,20260325_140431,D,J,False,AUTOMATION1,3,335,1135,fixed_delta,0.04169584712997743,0.012883078076194597,,,,,0.44857029472989696,1615,1985,1,0.95,WHITE,WHITE,True,0,0.0012999989849049598,WHITE,True,CORRECT,1.059616399998049,1059.616399998049
6,20260325_140431,D,J,False,AUTOMATION1,3,336,1136,fixed_delta,0.04169584712997743,0.012883078076194597,,,,,0.4569878910261675,1645,1955,1,0.95,WHITE,WHITE,True,0,0.0020000006770715117,WHITE,True,CORRECT,0.6959814000001643,695.9814000001643
6,20260325_140431,D,J,False,AUTOMATION1,3,337,1137,fixed_delta,0.04169584712997743,0.012883078076194597,,,,,0.4665226132373243,1679,1921,1,0.95,WHITE,WHITE,True,0,0.0011999982234556228,WHITE,True,CORRECT,0.7620590999977139,762.0590999977139
6,20260325_140431,D,J,False,AUTOMATION1,3,338,1138,fixed_delta,0.04169584712997743,0.012883078076194597,,,,,0.45325181644596424,1632,1968,1,0.95,WHITE,WHITE,True,0,0.0016000012692529708,WHITE,True,CORRECT,0.5341291000004276,534.1291000004276
6,20260325_140431,D,J,False,AUTOMATION1,3,339,1139,fixed_delta,0.04169584712997743,0.012883078076194597,,,,,0.43632057484411946,1571,2029,1,0.95,WHITE,WHITE,True,0,0.0016000012692529708,WHITE,True,CORRECT,0.9139537999981258,913.9537999981258
6,20260325_140431,D,J,False,AUTOMATION1,3,340,1140,fixed_delta,0.04169584712997743,0.012883078076194597,,,,,0.5690669552268525,2049,1551,1,0.95,BLACK,BLACK,True,0,0.0013999997463542968,BLACK,True,CORRECT,0.7649203000000853,764.9203000000853
6,20260325_140431,D,J,False,AUTOMATION1,3,341,1141,fixed_delta,0.04169584712997743,0.012883078076194597,,,,,0.4637259948316196,1669,1931,1,0.95,WHITE,WHITE,True,0,0.0015000005078036338,WHITE,True,CORRECT,0.733038000002125,733.038000002125
6,20260325_140431,D,J,False,AUTOMATION1,3,342,1142,fixed_delta,0.04169584712997743,0.012883078076194597,,,,,0.5411286876379049,1948,1652,1,0.95,BLACK,BLACK,True,0,0.0013999997463542968,WHITE,False,INCORRECT,0.7627778999994916,762.7778999994916
6,20260325_140431,D,J,False,AUTOMATION1,3,343,1143,fixed_delta,0.04169584712997743,0.012883078076194597,,,,,0.4363849625230407,1571,2029,1,0.95,WHITE,WHITE,True,0,0.0013999997463542968,WHITE,True,CORRECT,0.5159807000018191,515.9807000018191
6,20260325_140431,D,J,False,AUTOMATION1,3,344,1144,fixed_delta,0.04169584712997743,0.012883078076194597,,,,,0.44758529894965127,1611,1989,1,0.95,WHITE,BLACK,False,0,0.0013999997463542968,WHITE,True,CORRECT,0.4861717999992834,486.1717999992834
6,20260325_140431,D,J,False,AUTOMATION1,3,345,1145,fixed_delta,0.04169584712997743,0.012883078076194597,,,,,0.478873427947696,1724,1876,1,0.95,WHITE,BLACK,False,0,0.0015000005078036338,WHITE,True,CORRECT,0.6282374000002164,628.2374000002164
6,20260325_140431,D,J,False,AUTOMATION1,3,346,1146,fixed_delta,0.04169584712997743,0.012883078076194597,,,,,0.5292108308357424,1905,1695,1,0.95,BLACK,BLACK,True,0,0.0013999997463542968,WHITE,False,INCORRECT,0.9396083999999973,939.6083999999973
6,20260325_140431,D,J,False,AUTOMATION1,3,347,1147,fixed_delta,0.04169584712997743,0.012883078076194597,,,,,0.5493723763120917,1978,1622,1,0.95,BLACK,BLACK,True,0,0.0015000005078036338,WHITE,False,INCORRECT,1.152897200001462,1152.897200001462
6,20260325_140431,D,J,False,AUTOMATION1,3,348,1148,fixed_delta,0.04169584712997743,0.012883078076194597,,,,,0.4602026017736141,1657,1943,1,0.95,WHITE,WHITE,True,0,0.0013999997463542968,WHITE,True,CORRECT,0.5385937000028207,538.5937000028207
6,20260325_140431,D,J,False,AUTOMATION1,3,349,1149,fixed_delta,0.04169584712997743,0.012883078076194597,,,,,0.46896329107647416,1688,1912,1,0.95,WHITE,WHITE,True,0,0.0015000005078036338,WHITE,True,CORRECT,0.6367079000010563,636.7079000010563
6,20260325_140431,D,J,False,AUTOMATION1,3,350,1150,fixed_delta,0.04169584712997743,0.012883078076194597,,,,,0.4912896951714365,1769,1831,1,0.95,WHITE,WHITE,True,0,0.0013999997463542968,BLACK,False,INCORRECT,0.956270399998175,956.270399998175
6,20260325_140431,D,J,False,AUTOMATION1,3,351,1151,fixed_delta,0.04169584712997743,0.012883078076194597,,,,,0.5392124406512431,1941,1659,1,0.95,BLACK,BLACK,True,0,0.001400003384333104,BLACK,True,CORRECT,0.7094173000004957,709.4173000004957
6,20260325_140431,D,J,False,AUTOMATION1,3,352,1152,fixed_delta,0.04169584712997743,0.012883078076194597,,,,,0.44969605389511924,1619,1981,1,0.95,WHITE,WHITE,True,0,0.0016999983927235007,WHITE,True,CORRECT,0.5858888999973715,585.8888999973715
6,20260325_140431,D,J,False,AUTOMATION1,3,353,1153,fixed_delta,0.04169584712997743,0.012883078076194597,,,,,0.4680996490685387,1685,1915,1,0.95,WHITE,WHITE,True,0,0.0013999997463542968,WHITE,True,CORRECT,0.6251107999996748,625.1107999996748
6,20260325_140431,D,J,False,AUTOMATION1,3,354,1154,fixed_delta,0.04169584712997743,0.012883078076194597,,,,,0.5371273680554233,1934,1666,1,0.95,BLACK,BLACK,True,0,0.0016999983927235007,BLACK,True,CORRECT,1.143267499999638,1143.267499999638
6,20260325_140431,D,J,False,AUTOMATION1,3,355,1155,fixed_delta,0.04169584712997743,0.012883078076194597,,,,,0.5067955285779274,1824,1776,1,0.95,BLACK,BLACK,True,0,0.0013999997463542968,WHITE,False,INCORRECT,0.6809038999999757,680.9038999999757
6,20260325_140431,D,J,False,AUTOMATION1,3,356,1156,fixed_delta,0.04169584712997743,0.012883078076194597,,,,,0.5392944615293115,1941,1659,1,0.95,BLACK,BLACK,True,0,0.0012999989849049598,BLACK,True,CORRECT,0.5213886000019556,521.3886000019556
6,20260325_140431,D,J,False,AUTOMATION1,3,357,1157,fixed_delta,0.04169584712997743,0.012883078076194597,,,,,0.4725307540248444,1701,1899,1,0.95,WHITE,WHITE,True,0,0.0013000026228837669,WHITE,True,CORRECT,0.8157906000014918,815.7906000014918
6,20260325_140431,D,J,False,AUTOMATION1,3,358,1158,fixed_delta,0.04169584712997743,0.012883078076194597,,,,,0.5330656254825417,1919,1681,1,0.95,BLACK,BLACK,True,0,0.0012000018614344299,BLACK,True,CORRECT,1.1499887999998464,1149.9887999998464
6,20260325_140431,D,J,False,AUTOMATION1,3,359,1159,fixed_delta,0.04169584712997743,0.012883078076194597,,,,,0.5541592860182729,1995,1605,1,0.95,BLACK,WHITE,False,0,0.0015999976312741637,BLACK,True,CORRECT,1.0017485999997007,1001.7485999997007
6,20260325_140431,D,J,False,AUTOMATION1,3,360,1160,fixed_delta,0.04169584712997743,0.012883078076194597,,,,,0.4764414930764477,1715,1885,1,0.95,WHITE,WHITE,True,0,0.0013999997463542968,WHITE,True,CORRECT,0.6500634999974864,650.0634999974864
6,20260325_140431,D,J,False,AUTOMATION1,3,361,1161,fixed_delta,0.04169584712997743,0.012883078076194597,,,,,0.47412707831535816,1707,1893,1,0.95,WHITE,WHITE,True,0,0.0020000006770715117,WHITE,True,CORRECT,1.9184965999993437,1918.4965999993437
6,20260325_140431,D,J,False,AUTOMATION1,3,362,1162,fixed_delta,0.04169584712997743,0.012883078076194597,,,,,0.525257970929541,1891,1709,1,0.95,BLACK,BLACK,True,0,0.0017999991541728377,BLACK,True,CORRECT,0.8210413999986486,821.0413999986486
6,20260325_140431,D,J,False,AUTOMATION1,3,363,1163,fixed_delta,0.04169584712997743,0.012883078076194597,,,,,0.45731435358217654,1646,1954,1,0.95,WHITE,WHITE,True,0,0.0011999982234556228,WHITE,True,CORRECT,0.6558397000007972,655.8397000007972
6,20260325_140431,D,J,False,AUTOMATION1,3,364,1164,fixed_delta,0.04169584712997743,0.012883078076194597,,,,,0.4497639175201076,1619,1981,1,0.95,WHITE,WHITE,True,0,0.0013999997463542968,WHITE,True,CORRECT,0.8107319999980973,810.7319999980973
6,20260325_140431,D,J,False,AUTOMATION1,3,365,1165,fixed_delta,0.04169584712997743,0.012883078076194597,,,,,0.4413475193430556,1589,2011,1,0.95,WHITE,WHITE,True,0,0.0016999983927235007,WHITE,True,CORRECT,0.6908957999985432,690.8957999985432
6,20260325_140431,D,J,False,AUTOMATION1,3,366,1166,fixed_delta,0.04169584712997743,0.012883078076194597,,,,,0.4803419809883671,1729,1871,1,0.95,WHITE,WHITE,True,0,0.0015999976312741637,WHITE,True,CORRECT,0.5957742999999027,595.7742999999027
6,20260325_140431,D,J,False,AUTOMATION1,3,367,1167,fixed_delta,0.04169584712997743,0.012883078076194597,,,,,0.465313814283741,1675,1925,1,0.95,WHITE,WHITE,True,0,0.0017999991541728377,WHITE,True,CORRECT,0.7073859000010998,707.3859000010998
6,20260325_140431,D,J,False,AUTOMATION1,3,368,1168,fixed_delta,0.04169584712997743,0.012883078076194597,,,,,0.4596330953965634,1655,1945,1,0.95,WHITE,WHITE,True,0,0.0015999976312741637,WHITE,True,CORRECT,0.5691656999988481,569.1656999988481
6,20260325_140431,D,J,False,AUTOMATION1,3,369,1169,fixed_delta,0.04169584712997743,0.012883078076194597,,,,,0.5472692973442842,1970,1630,1,0.95,BLACK,BLACK,True,0,0.0013999997463542968,BLACK,True,CORRECT,0.9613476999984414,961.3476999984414
6,20260325_140431,D,J,False,AUTOMATION1,3,370,1170,fixed_delta,0.04169584712997743,0.012883078076194597,,,,,0.4517852611839675,1626,1974,1,0.95,WHITE,WHITE,True,0,0.0020000006770715117,WHITE,True,CORRECT,0.5405358000025444,540.5358000025444
6,20260325_140431,D,J,False,AUTOMATION1,3,371,1171,fixed_delta,0.04169584712997743,0.012883078076194597,,,,,0.447560809566865,1611,1989,1,0.95,WHITE,WHITE,True,0,0.0013999997463542968,WHITE,True,CORRECT,0.6932702000012796,693.2702000012796
6,20260325_140431,D,J,False,AUTOMATION1,3,372,1172,fixed_delta,0.04169584712997743,0.012883078076194597,,,,,0.46460826750587236,1673,1927,1,0.95,WHITE,WHITE,True,0,0.0015999976312741637,WHITE,True,CORRECT,0.8375548999974853,837.5548999974853
6,20260325_140431,D,J,False,AUTOMATION1,3,373,1173,fixed_delta,0.04169584712997743,0.012883078076194597,,,,,0.5272093106222777,1898,1702,1,0.95,BLACK,BLACK,True,0,0.0017999991541728377,BLACK,True,CORRECT,0.623247800001991,623.247800001991
6,20260325_140431,D,J,False,AUTOMATION1,3,374,1174,fixed_delta,0.04169584712997743,0.012883078076194597,,,,,0.5532512705016865,1992,1608,1,0.95,BLACK,BLACK,True,0,0.0015000005078036338,BLACK,True,CORRECT,0.5622063999981037,562.2063999981037
6,20260325_140431,D,J,False,AUTOMATION1,3,375,1175,fixed_delta,0.04169584712997743,0.012883078076194597,,,,,0.4638176468255802,1670,1930,1,0.95,WHITE,WHITE,True,0,0.0012999989849049598,WHITE,True,CORRECT,0.992054399997869,992.054399997869
6,20260325_140431,D,J,False,AUTOMATION1,3,376,1176,fixed_delta,0.04169584712997743,0.012883078076194597,,,,,0.4453267395669541,1603,1997,1,0.95,WHITE,WHITE,True,0,0.0012999989849049598,WHITE,True,CORRECT,1.3847496999987925,1384.7496999987925
6,20260325_140431,D,J,False,AUTOMATION1,3,377,1177,fixed_delta,0.04169584712997743,0.012883078076194597,,,,,0.5273233188723099,1898,1702,1,0.95,BLACK,BLACK,True,0,0.0011000010999850929,BLACK,True,CORRECT,0.7597571000005701,759.7571000005701
6,20260325_140431,D,J,False,AUTOMATION1,3,378,1178,fixed_delta,0.04169584712997743,0.012883078076194597,,,,,0.45095875926618445,1623,1977,1,0.95,WHITE,WHITE,True,0,0.0016999983927235007,WHITE,True,CORRECT,0.9469153999998525,946.9153999998525
6,20260325_140431,D,J,False,AUTOMATION1,3,379,1179,fixed_delta,0.04169584712997743,0.012883078076194597,,,,,0.5379348471329047,1937,1663,1,0.95,BLACK,BLACK,True,0,0.0011999982234556228,BLACK,True,CORRECT,0.7236278999989736,723.6278999989736
6,20260325_140431,D,J,False,AUTOMATION1,3,380,1180,fixed_delta,0.04169584712997743,0.012883078076194597,,,,,0.5643969825753393,2032,1568,1,0.95,BLACK,BLACK,True,0,0.0013999997463542968,BLACK,True,CORRECT,0.563273300002038,563.273300002038
6,20260325_140431,D,J,False,AUTOMATION1,3,381,1181,fixed_delta,0.04169584712997743,0.012883078076194597,,,,,0.44789459295979006,1612,1988,1,0.95,WHITE,WHITE,True,0,0.0013999997463542968,WHITE,True,CORRECT,0.6935716000007233,693.5716000007233
6,20260325_140431,D,J,False,AUTOMATION1,3,382,1182,fixed_delta,0.04169584712997743,0.012883078076194597,,,,,0.4683022559240949,1686,1914,1,0.95,WHITE,WHITE,True,0,0.0016000012692529708,WHITE,True,CORRECT,1.5431265000006533,1543.1265000006533
6,20260325_140431,D,J,False,AUTOMATION1,3,383,1183,fixed_delta,0.04169584712997743,0.012883078076194597,,,,,0.5246777146498357,1889,1711,1,0.95,BLACK,BLACK,True,0,0.0013999997463542968,BLACK,True,CORRECT,0.5866019000022789,586.6019000022789
6,20260325_140431,D,J,False,AUTOMATION1,3,384,1184,fixed_delta,0.04169584712997743,0.012883078076194597,,,,,0.543294761751187,1956,1644,1,0.95,BLACK,BLACK,True,0,0.0012999989849049598,BLACK,True,CORRECT,0.8264796000003116,826.4796000003116
6,20260325_140431,D,J,False,AUTOMATION1,3,385,1185,fixed_delta,0.04169584712997743,0.012883078076194597,,,,,0.4498709129568999,1620,1980,1,0.95,WHITE,WHITE,True,0,0.0013999997463542968,WHITE,True,CORRECT,0.6561206000005768,656.1206000005768
6,20260325_140431,D,J,False,AUTOMATION1,3,386,1186,fixed_delta,0.04169584712997743,0.012883078076194597,,,,,0.5333602350363301,1920,1680,1,0.95,BLACK,BLACK,True,0,0.0012999989849049598,BLACK,True,CORRECT,1.3697400000019115,1369.7400000019115
6,20260325_140431,D,J,False,AUTOMATION1,3,387,1187,fixed_delta,0.04169584712997743,0.012883078076194597,,,,,0.47208785843469636,1700,1900,1,0.95,WHITE,WHITE,True,0,0.0015000005078036338,WHITE,True,CORRECT,0.7463124000023527,746.3124000023527
6,20260325_140431,D,J,False,AUTOMATION1,3,388,1188,fixed_delta,0.04169584712997743,0.012883078076194597,,,,,0.5150032309160942,1854,1746,1,0.95,BLACK,BLACK,True,0,0.0013999997463542968,BLACK,True,CORRECT,0.7762144999978773,776.2144999978773
6,20260325_140431,D,J,False,AUTOMATION1,3,389,1189,fixed_delta,0.04169584712997743,0.012883078076194597,,,,,0.4523836293827173,1629,1971,1,0.95,WHITE,WHITE,True,0,0.0017999991541728377,WHITE,True,CORRECT,0.694929500001308,694.929500001308
6,20260325_140431,D,J,False,AUTOMATION1,3,390,1190,fixed_delta,0.04169584712997743,0.012883078076194597,,,,,0.48136355922376833,1733,1867,1,0.95,WHITE,WHITE,True,0,0.0016000012692529708,BLACK,False,INCORRECT,0.9016472000002977,901.6472000002977
6,20260325_140431,D,J,False,AUTOMATION1,3,391,1191,fixed_delta,0.04169584712997743,0.012883078076194597,,,,,0.480461172645029,1730,1870,1,0.95,WHITE,BLACK,False,0,0.0026000016077887267,WHITE,True,CORRECT,0.665707600001042,665.707600001042
6,20260325_140431,D,J,False,AUTOMATION1,3,392,1192,fixed_delta,0.04169584712997743,0.012883078076194597,,,,,0.45631052814750206,1643,1957,1,0.95,WHITE,WHITE,True,0,0.0013999997463542968,WHITE,True,CORRECT,0.6338680000008026,633.8680000008026
6,20260325_140431,D,J,False,AUTOMATION1,3,393,1193,fixed_delta,0.04169584712997743,0.012883078076194597,,,,,0.4627529994032487,1666,1934,1,0.95,WHITE,WHITE,True,0,0.0013999997463542968,WHITE,True,CORRECT,0.9482519999983197,948.2519999983197
6,20260325_140431,D,J,False,AUTOMATION1,3,394,1194,fixed_delta,0.04169584712997743,0.012883078076194597,,,,,0.5591660042451864,2013,1587,1,0.95,BLACK,BLACK,True,0,0.0015999976312741637,WHITE,False,INCORRECT,0.6045181999979832,604.5181999979832
6,20260325_140431,D,J,False,AUTOMATION1,3,395,1195,fixed_delta,0.04169584712997743,0.012883078076194597,,,,,0.45767087643370175,1648,1952,1,0.95,WHITE,WHITE,True,0,0.0012000018614344299,WHITE,True,CORRECT,0.693912900002033,693.912900002033
6,20260325_140431,D,J,False,AUTOMATION1,3,396,1196,fixed_delta,0.04169584712997743,0.012883078076194597,,,,,0.5528114850124957,1990,1610,1,0.95,BLACK,BLACK,True,0,0.0013999997463542968,WHITE,False,INCORRECT,0.632243699998071,632.243699998071
6,20260325_140431,D,J,False,AUTOMATION1,3,397,1197,fixed_delta,0.04169584712997743,0.012883078076194597,,,,,0.5195701653441535,1870,1730,1,0.95,BLACK,BLACK,True,0,0.0013999997463542968,WHITE,False,INCORRECT,0.5776845000000321,577.6845000000321
6,20260325_140431,D,J,False,AUTOMATION1,3,398,1198,fixed_delta,0.04169584712997743,0.012883078076194597,,,,,0.528047637015193,1901,1699,1,0.95,BLACK,BLACK,True,0,0.0013999997463542968,WHITE,False,INCORRECT,0.6188414000025659,618.8414000025659
6,20260325_140431,D,J,False,AUTOMATION1,3,399,1199,fixed_delta,0.04169584712997743,0.012883078076194597,,,,,0.5183296097241821,1866,1734,1,0.95,BLACK,BLACK,True,0,0.0018999999156221747,WHITE,False,INCORRECT,0.6799782000016421,679.9782000016421
6,20260325_140431,D,J,False,AUTOMATION1,3,400,1200,fixed_delta,0.04169584712997743,0.012883078076194597,,,,,0.5583537422917724,2010,1590,1,0.95,BLACK,BLACK,True,0,0.0013000026228837669,WHITE,False,INCORRECT,0.5009349000029033,500.9349000029033
6,20260325_140431,D,J,False,AUTOMATION1,3,401,1201,fixed_delta,0.04169584712997743,0.012883078076194597,,,,,0.46614295802820765,1678,1922,1,0.95,WHITE,WHITE,True,0,0.0013000026228837669,WHITE,True,CORRECT,0.5596538999998302,559.6538999998302
6,20260325_140431,D,J,False,AUTOMATION1,3,402,1202,fixed_delta,0.04169584712997743,0.012883078076194597,,,,,0.5339661242433409,1922,1678,1,0.95,BLACK,BLACK,True,0,0.0013999997463542968,WHITE,False,INCORRECT,0.4863285999999789,486.3285999999789
6,20260325_140431,D,J,False,AUTOMATION1,3,403,1203,fixed_delta,0.04169584712997743,0.012883078076194597,,,,,0.46340651374958375,1668,1932,1,0.95,WHITE,WHITE,True,0,0.0020999978005420417,WHITE,True,CORRECT,0.44734020000032615,447.34020000032615
6,20260325_140431,D,J,False,AUTOMATION1,3,404,1204,fixed_delta,0.04169584712997743,0.012883078076194597,,,,,0.455628374716611,1640,1960,1,0.95,WHITE,WHITE,True,0,0.0015000005078036338,WHITE,True,CORRECT,0.40821219999997993,408.21219999997993
6,20260325_140431,D,J,False,AUTOMATION1,3,405,1205,fixed_delta,0.04169584712997743,0.012883078076194597,,,,,0.45013887327948215,1620,1980,1,0.95,WHITE,WHITE,True,0,0.0017000020307023078,WHITE,True,CORRECT,0.37230880000061006,372.30880000061006
6,20260325_140431,D,J,False,AUTOMATION1,3,406,1206,fixed_delta,0.04169584712997743,0.012883078076194597,,,,,0.549494795659335,1978,1622,1,0.95,BLACK,BLACK,True,0,0.0019999970390927047,BLACK,True,CORRECT,0.6726069999967876,672.6069999967876
6,20260325_140431,D,J,False,AUTOMATION1,3,407,1207,fixed_delta,0.04169584712997743,0.012883078076194597,,,,,0.47738095144902193,1719,1881,1,0.95,WHITE,BLACK,False,0,0.0013999997463542968,WHITE,True,CORRECT,1.501493700001447,1501.493700001447
6,20260325_140431,D,J,False,AUTOMATION1,3,408,1208,fixed_delta,0.04169584712997743,0.012883078076194597,,,,,0.4642403065766263,1671,1929,1,0.95,WHITE,WHITE,True,0,0.0015999976312741637,WHITE,True,CORRECT,2.612702399997943,2612.702399997943
6,20260325_140431,D,J,False,AUTOMATION1,3,409,1209,fixed_delta,0.04169584712997743,0.012883078076194597,,,,,0.5337847264995722,1922,1678,1,0.95,BLACK,BLACK,True,0,0.0017000020307023078,BLACK,True,CORRECT,0.7284588000002259,728.4588000002259
6,20260325_140431,D,J,False,AUTOMATION1,3,410,1210,fixed_delta,0.04169584712997743,0.012883078076194597,,,,,0.4634621062212433,1668,1932,1,0.95,WHITE,WHITE,True,0,0.0013999997463542968,WHITE,True,CORRECT,0.5595604000009189,559.5604000009189
6,20260325_140431,D,J,False,AUTOMATION1,3,411,1211,fixed_delta,0.04169584712997743,0.012883078076194597,,,,,0.5383197938483673,1938,1662,1,0.95,BLACK,BLACK,True,0,0.0018000027921516448,BLACK,True,CORRECT,0.40281619999950635,402.81619999950635
6,20260325_140431,D,J,False,AUTOMATION1,3,412,1212,fixed_delta,0.04169584712997743,0.012883078076194597,,,,,0.5371110614105528,1934,1666,1,0.95,BLACK,BLACK,True,0,0.0019999970390927047,BLACK,True,CORRECT,0.5439258999977028,543.9258999977028
