participant_id,run_timestamp,key_black,key_white,keymap_flip,block,block_idx,trial,global_trial,difficulty_mode,delta_fixed_mean,delta_fixed_sd,delta_stair_realised,delta_stair_mean,delta_step_down_used,delta_step_up_used,vblack_prop,n_vblack,n_vwhite,auto_on,aid_accuracy_setting,stimulus,aid_label,aid_correct,aid_onset_ms,aid_onset_ms_rel,response,correct,feedback,rt_s,rt_ms
5,20260325_140546,D,J,False,AUTOMATION1,4,1,1301,fixed_delta,0.03841730837928436,0.012782208620853738,,,,,0.4481231699936802,1613,1987,1,0.95,WHITE,WHITE,True,0,0.0015000005078036338,WHITE,True,CORRECT,1.3211967999995977,1321.1967999995977
5,20260325_140546,D,J,False,AUTOMATION1,4,2,1302,fixed_delta,0.03841730837928436,0.012782208620853738,,,,,0.5178344147388473,1864,1736,1,0.95,BLACK,BLACK,True,0,0.0015000005078036338,BLACK,True,CORRECT,0.8425262000018847,842.5262000018847
5,20260325_140546,D,J,False,AUTOMATION1,4,3,1303,fixed_delta,0.03841730837928436,0.012782208620853738,,,,,0.477758420119279,1720,1880,1,0.95,WHITE,WHITE,True,0,0.0017999991541728377,WHITE,True,CORRECT,0.6909979000010935,690.9979000010935
5,20260325_140546,D,J,False,AUTOMATION1,4,4,1304,fixed_delta,0.03841730837928436,0.012782208620853738,,,,,0.4434987332766732,1597,2003,1,0.95,WHITE,WHITE,True,0,0.0016000012692529708,WHITE,True,CORRECT,0.6180053000025509,618.0053000025509
5,20260325_140546,D,J,False,AUTOMATION1,4,5,1305,fixed_delta,0.03841730837928436,0.012782208620853738,,,,,0.5354136764644619,1927,1673,1,0.95,BLACK,BLACK,True,0,0.0012999989849049598,BLACK,True,CORRECT,0.8489550000012969,848.9550000012969
5,20260325_140546,D,J,False,AUTOMATION1,4,6,1306,fixed_delta,0.03841730837928436,0.012782208620853738,,,,,0.5514332593501482,1985,1615,1,0.95,BLACK,BLACK,True,0,0.0013999997463542968,BLACK,True,CORRECT,1.2586559999981546,1258.6559999981546
5,20260325_140546,D,J,False,AUTOMATION1,4,7,1307,fixed_delta,0.03841730837928436,0.012782208620853738,,,,,0.5073634431837105,1827,1773,1,0.95,BLACK,BLACK,True,0,0.0016000012692529708,BLACK,True,CORRECT,0.9907253999990644,990.7253999990644
5,20260325_140546,D,J,False,AUTOMATION1,4,8,1308,fixed_delta,0.03841730837928436,0.012782208620853738,,,,,0.530069217898753,1908,1692,1,0.95,BLACK,BLACK,True,0,0.0017000020307023078,BLACK,True,CORRECT,0.7513610999994853,751.3610999994853
5,20260325_140546,D,J,False,AUTOMATION1,4,9,1309,fixed_delta,0.03841730837928436,0.012782208620853738,,,,,0.5515915498364856,1986,1614,1,0.95,BLACK,BLACK,True,0,0.0016000012692529708,BLACK,True,CORRECT,1.8775917000020854,1877.5917000020854
5,20260325_140546,D,J,False,AUTOMATION1,4,10,1310,fixed_delta,0.03841730837928436,0.012782208620853738,,,,,0.5312853492199495,1913,1687,1,0.95,BLACK,BLACK,True,0,0.0013999997463542968,WHITE,False,INCORRECT,0.7970604000001913,797.0604000001913
5,20260325_140546,D,J,False,AUTOMATION1,4,11,1311,fixed_delta,0.03841730837928436,0.012782208620853738,,,,,0.5147545249412175,1853,1747,1,0.95,BLACK,BLACK,True,0,0.0017999991541728377,WHITE,False,INCORRECT,0.7441324999999779,744.1324999999779
5,20260325_140546,D,J,False,AUTOMATION1,4,12,1312,fixed_delta,0.03841730837928436,0.012782208620853738,,,,,0.4675330415500245,1683,1917,1,0.95,WHITE,WHITE,True,0,0.0016000012692529708,WHITE,True,CORRECT,0.8805084000014176,880.5084000014176
5,20260325_140546,D,J,False,AUTOMATION1,4,13,1313,fixed_delta,0.03841730837928436,0.012782208620853738,,,,,0.4483168139573248,1614,1986,1,0.95,WHITE,WHITE,True,0,0.0013999997463542968,WHITE,True,CORRECT,0.6789213999982167,678.9213999982167
5,20260325_140546,D,J,False,AUTOMATION1,4,14,1314,fixed_delta,0.03841730837928436,0.012782208620853738,,,,,0.4671750311412982,1682,1918,1,0.95,WHITE,WHITE,True,0,0.0017000020307023078,WHITE,True,CORRECT,1.532871100000193,1532.871100000193
5,20260325_140546,D,J,False,AUTOMATION1,4,15,1315,fixed_delta,0.03841730837928436,0.012782208620853738,,,,,0.4645189922782701,1672,1928,1,0.95,WHITE,WHITE,True,0,0.0016000012692529708,WHITE,True,CORRECT,1.011432600000262,1011.432600000262
5,20260325_140546,D,J,False,AUTOMATION1,4,16,1316,fixed_delta,0.03841730837928436,0.012782208620853738,,,,,0.5351522080398997,1927,1673,1,0.95,BLACK,BLACK,True,0,0.0017000020307023078,BLACK,True,CORRECT,1.0341069000023708,1034.1069000023708
5,20260325_140546,D,J,False,AUTOMATION1,4,17,1317,fixed_delta,0.03841730837928436,0.012782208620853738,,,,,0.45068008075509547,1622,1978,1,0.95,WHITE,WHITE,True,0,0.0017999991541728377,WHITE,True,CORRECT,0.9421392999975069,942.1392999975069
5,20260325_140546,D,J,False,AUTOMATION1,4,18,1318,fixed_delta,0.03841730837928436,0.012782208620853738,,,,,0.5486365196334353,1975,1625,1,0.95,BLACK,BLACK,True,0,0.0016000012692529708,BLACK,True,CORRECT,0.8570771000013337,857.0771000013337
5,20260325_140546,D,J,False,AUTOMATION1,4,19,1319,fixed_delta,0.03841730837928436,0.012782208620853738,,,,,0.47798708890162545,1721,1879,1,0.95,WHITE,WHITE,True,0,0.0016000012692529708,WHITE,True,CORRECT,0.7513513000012608,751.3513000012608
5,20260325_140546,D,J,False,AUTOMATION1,4,20,1320,fixed_delta,0.03841730837928436,0.012782208620853738,,,,,0.5406868077107744,1946,1654,1,0.95,BLACK,BLACK,True,0,0.0016999983927235007,BLACK,True,CORRECT,0.9864715999974578,986.4715999974578
5,20260325_140546,D,J,False,AUTOMATION1,4,21,1321,fixed_delta,0.03841730837928436,0.012782208620853738,,,,,0.4604632521034959,1658,1942,1,0.95,WHITE,WHITE,True,0,0.0016000012692529708,WHITE,True,CORRECT,0.6729244000016479,672.9244000016479
5,20260325_140546,D,J,False,AUTOMATION1,4,22,1322,fixed_delta,0.03841730837928436,0.012782208620853738,,,,,0.5572848301504999,2006,1594,1,0.95,BLACK,BLACK,True,0,0.0017000020307023078,BLACK,True,CORRECT,0.7719213000018499,771.9213000018499
5,20260325_140546,D,J,False,AUTOMATION1,4,23,1323,fixed_delta,0.03841730837928436,0.012782208620853738,,,,,0.46673773995483764,1680,1920,1,0.95,WHITE,WHITE,True,0,0.0018999999156221747,WHITE,True,CORRECT,0.9381071999996493,938.1071999996493
5,20260325_140546,D,J,False,AUTOMATION1,4,24,1324,fixed_delta,0.03841730837928436,0.012782208620853738,,,,,0.5351663811287577,1927,1673,1,0.95,BLACK,BLACK,True,0,0.0018999999156221747,BLACK,True,CORRECT,0.8722151000001759,872.2151000001759
5,20260325_140546,D,J,False,AUTOMATION1,4,25,1325,fixed_delta,0.03841730837928436,0.012782208620853738,,,,,0.46841691515626216,1686,1914,1,0.95,WHITE,WHITE,True,0,0.0016999983927235007,WHITE,True,CORRECT,0.9449969999986934,944.9969999986934
5,20260325_140546,D,J,False,AUTOMATION1,4,26,1326,fixed_delta,0.03841730837928436,0.012782208620853738,,,,,0.4444746991942888,1600,2000,1,0.95,WHITE,WHITE,True,0,0.0017000020307023078,WHITE,True,CORRECT,0.7667006000010588,766.7006000010588
5,20260325_140546,D,J,False,AUTOMATION1,4,27,1327,fixed_delta,0.03841730837928436,0.012782208620853738,,,,,0.548339363854145,1974,1626,1,0.95,BLACK,BLACK,True,0,0.0013000026228837669,BLACK,True,CORRECT,1.271098000001075,1271.098000001075
5,20260325_140546,D,J,False,AUTOMATION1,4,28,1328,fixed_delta,0.03841730837928436,0.012782208620853738,,,,,0.5188594943769389,1868,1732,1,0.95,BLACK,BLACK,True,0,0.0018000027921516448,WHITE,False,INCORRECT,1.4155977000009443,1415.5977000009443
5,20260325_140546,D,J,False,AUTOMATION1,4,29,1329,fixed_delta,0.03841730837928436,0.012782208620853738,,,,,0.4478472173043769,1612,1988,1,0.95,WHITE,WHITE,True,0,0.0013999997463542968,WHITE,True,CORRECT,0.7530303000021377,753.0303000021377
5,20260325_140546,D,J,False,AUTOMATION1,4,30,1330,fixed_delta,0.03841730837928436,0.012782208620853738,,,,,0.44396357795317165,1598,2002,1,0.95,WHITE,WHITE,True,0,0.0013000026228837669,WHITE,True,CORRECT,0.6994387000013376,699.4387000013376
5,20260325_140546,D,J,False,AUTOMATION1,4,31,1331,fixed_delta,0.03841730837928436,0.012782208620853738,,,,,0.4538438437112069,1634,1966,1,0.95,WHITE,WHITE,True,0,0.0013999997463542968,WHITE,True,CORRECT,1.238989199999196,1238.989199999196
5,20260325_140546,D,J,False,AUTOMATION1,4,32,1332,fixed_delta,0.03841730837928436,0.012782208620853738,,,,,0.5385562131857929,1939,1661,1,0.95,BLACK,BLACK,True,0,0.0013999997463542968,BLACK,True,CORRECT,0.6384470999983023,638.4470999983023
5,20260325_140546,D,J,False,AUTOMATION1,4,33,1333,fixed_delta,0.03841730837928436,0.012782208620853738,,,,,0.5206600788116326,1874,1726,1,0.95,BLACK,BLACK,True,0,0.0015000005078036338,WHITE,False,INCORRECT,3.313708300000144,3313.708300000144
5,20260325_140546,D,J,False,AUTOMATION1,4,34,1334,fixed_delta,0.03841730837928436,0.012782208620853738,,,,,0.5310073177058655,1912,1688,1,0.95,BLACK,BLACK,True,0,0.0016000012692529708,BLACK,True,CORRECT,0.9271323000029952,927.1323000029952
5,20260325_140546,D,J,False,AUTOMATION1,4,35,1335,fixed_delta,0.03841730837928436,0.012782208620853738,,,,,0.543062807364143,1955,1645,1,0.95,BLACK,BLACK,True,0,0.0018999999156221747,BLACK,True,CORRECT,0.8061215000016091,806.1215000016091
5,20260325_140546,D,J,False,AUTOMATION1,4,36,1336,fixed_delta,0.03841730837928436,0.012782208620853738,,,,,0.45135905266553367,1625,1975,1,0.95,WHITE,WHITE,True,0,0.0016000012692529708,WHITE,True,CORRECT,0.6772307000028377,677.2307000028377
5,20260325_140546,D,J,False,AUTOMATION1,4,37,1337,fixed_delta,0.03841730837928436,0.012782208620853738,,,,,0.5299520739940807,1908,1692,1,0.95,BLACK,BLACK,True,0,0.0017999991541728377,BLACK,True,CORRECT,0.8577066999969247,857.7066999969247
5,20260325_140546,D,J,False,AUTOMATION1,4,38,1338,fixed_delta,0.03841730837928436,0.012782208620853738,,,,,0.5502252177242297,1981,1619,1,0.95,BLACK,BLACK,True,0,0.0018999999156221747,BLACK,True,CORRECT,0.7255465000016557,725.5465000016557
5,20260325_140546,D,J,False,AUTOMATION1,4,39,1339,fixed_delta,0.03841730837928436,0.012782208620853738,,,,,0.5366166762929803,1932,1668,1,0.95,BLACK,BLACK,True,0,0.0020000006770715117,WHITE,False,INCORRECT,1.4706822000007378,1470.6822000007378
5,20260325_140546,D,J,False,AUTOMATION1,4,40,1340,fixed_delta,0.03841730837928436,0.012782208620853738,,,,,0.5581535844109775,2009,1591,1,0.95,BLACK,BLACK,True,0,0.0020000006770715117,BLACK,True,CORRECT,0.940090500000224,940.090500000224
5,20260325_140546,D,J,False,AUTOMATION1,4,41,1341,fixed_delta,0.03841730837928436,0.012782208620853738,,,,,0.44721681663478935,1610,1990,1,0.95,WHITE,WHITE,True,0,0.0017999991541728377,WHITE,True,CORRECT,0.7253543000006175,725.3543000006175
5,20260325_140546,D,J,False,AUTOMATION1,4,42,1342,fixed_delta,0.03841730837928436,0.012782208620853738,,,,,0.542649583405832,1954,1646,1,0.95,BLACK,BLACK,True,0,0.0017000020307023078,BLACK,True,CORRECT,0.8468624000015552,846.8624000015552
5,20260325_140546,D,J,False,AUTOMATION1,4,43,1343,fixed_delta,0.03841730837928436,0.012782208620853738,,,,,0.5393102512062213,1942,1658,1,0.95,BLACK,BLACK,True,0,0.0017999991541728377,BLACK,True,CORRECT,1.1391406000002462,1139.1406000002462
5,20260325_140546,D,J,False,AUTOMATION1,4,44,1344,fixed_delta,0.03841730837928436,0.012782208620853738,,,,,0.5417088763531922,1950,1650,1,0.95,BLACK,BLACK,True,0,0.0013999997463542968,BLACK,True,CORRECT,0.7899393000006967,789.9393000006967
5,20260325_140546,D,J,False,AUTOMATION1,4,45,1345,fixed_delta,0.03841730837928436,0.012782208620853738,,,,,0.5340034127928428,1922,1678,1,0.95,BLACK,BLACK,True,0,0.0015000005078036338,WHITE,False,INCORRECT,2.2020967999997083,2202.0967999997083
5,20260325_140546,D,J,False,AUTOMATION1,4,46,1346,fixed_delta,0.03841730837928436,0.012782208620853738,,,,,0.5258917474332466,1893,1707,1,0.95,BLACK,BLACK,True,0,0.0016000012692529708,BLACK,True,CORRECT,1.5088294999986829,1508.8294999986829
5,20260325_140546,D,J,False,AUTOMATION1,4,47,1347,fixed_delta,0.03841730837928436,0.012782208620853738,,,,,0.5361866474494444,1930,1670,1,0.95,BLACK,BLACK,True,0,0.0019999970390927047,BLACK,True,CORRECT,0.6799248999996053,679.9248999996053
5,20260325_140546,D,J,False,AUTOMATION1,4,48,1348,fixed_delta,0.03841730837928436,0.012782208620853738,,,,,0.4554213282369708,1640,1960,1,0.95,WHITE,WHITE,True,0,0.0012999989849049598,BLACK,False,INCORRECT,1.839214899999206,1839.214899999206
5,20260325_140546,D,J,False,AUTOMATION1,4,49,1349,fixed_delta,0.03841730837928436,0.012782208620853738,,,,,0.5328746287370392,1918,1682,1,0.95,BLACK,BLACK,True,0,0.0013999997463542968,BLACK,True,CORRECT,0.7139059999972233,713.9059999972233
5,20260325_140546,D,J,False,AUTOMATION1,4,50,1350,fixed_delta,0.03841730837928436,0.012782208620853738,,,,,0.45837544021333515,1650,1950,1,0.95,WHITE,WHITE,True,0,0.0015999976312741637,WHITE,True,CORRECT,1.3313119999984337,1331.3119999984337
5,20260325_140546,D,J,False,AUTOMATION1,4,51,1351,fixed_delta,0.03841730837928436,0.012782208620853738,,,,,0.5531477971784484,1991,1609,1,0.95,BLACK,BLACK,True,0,0.0015000005078036338,BLACK,True,CORRECT,0.6799680999974953,679.9680999974953
5,20260325_140546,D,J,False,AUTOMATION1,4,52,1352,fixed_delta,0.03841730837928436,0.012782208620853738,,,,,0.4571896507705161,1646,1954,1,0.95,WHITE,WHITE,True,0,0.0013999997463542968,WHITE,True,CORRECT,0.6343984000013734,634.3984000013734
5,20260325_140546,D,J,False,AUTOMATION1,4,53,1353,fixed_delta,0.03841730837928436,0.012782208620853738,,,,,0.4529524039197888,1631,1969,1,0.95,WHITE,WHITE,True,0,0.0017999991541728377,WHITE,True,CORRECT,0.7586134000011953,758.6134000011953
5,20260325_140546,D,J,False,AUTOMATION1,4,54,1354,fixed_delta,0.03841730837928436,0.012782208620853738,,,,,0.5366592476420086,1932,1668,1,0.95,BLACK,BLACK,True,0,0.0015000005078036338,BLACK,True,CORRECT,1.1923423999978695,1192.3423999978695
5,20260325_140546,D,J,False,AUTOMATION1,4,55,1355,fixed_delta,0.03841730837928436,0.012782208620853738,,,,,0.5234026494573905,1884,1716,1,0.95,BLACK,BLACK,True,0,0.0018000027921516448,BLACK,True,CORRECT,3.5060348000006343,3506.0348000006343
5,20260325_140546,D,J,False,AUTOMATION1,4,56,1356,fixed_delta,0.03841730837928436,0.012782208620853738,,,,,0.4609873593607085,1660,1940,1,0.95,WHITE,WHITE,True,0,0.0017999991541728377,WHITE,True,CORRECT,0.7356346999986272,735.6346999986272
5,20260325_140546,D,J,False,AUTOMATION1,4,57,1357,fixed_delta,0.03841730837928436,0.012782208620853738,,,,,0.5540323394275575,1995,1605,1,0.95,BLACK,WHITE,False,0,0.0015999976312741637,BLACK,True,CORRECT,1.3677958999978728,1367.7958999978728
5,20260325_140546,D,J,False,AUTOMATION1,4,58,1358,fixed_delta,0.03841730837928436,0.012782208620853738,,,,,0.552281458797058,1988,1612,1,0.95,BLACK,BLACK,True,0,0.0017000020307023078,BLACK,True,CORRECT,2.2788472000029287,2278.8472000029287
5,20260325_140546,D,J,False,AUTOMATION1,4,59,1359,fixed_delta,0.03841730837928436,0.012782208620853738,,,,,0.5335526674237568,1921,1679,1,0.95,BLACK,BLACK,True,0,0.0015000005078036338,BLACK,True,CORRECT,1.0369393000000855,1036.9393000000855
5,20260325_140546,D,J,False,AUTOMATION1,4,60,1360,fixed_delta,0.03841730837928436,0.012782208620853738,,,,,0.47171143946925187,1698,1902,1,0.95,WHITE,WHITE,True,0,0.0017000020307023078,WHITE,True,CORRECT,0.7005629000013869,700.5629000013869
5,20260325_140546,D,J,False,AUTOMATION1,4,61,1361,fixed_delta,0.03841730837928436,0.012782208620853738,,,,,0.5493036406571677,1977,1623,1,0.95,BLACK,BLACK,True,0,0.0020000006770715117,BLACK,True,CORRECT,0.76292100000137,762.92100000137
5,20260325_140546,D,J,False,AUTOMATION1,4,62,1362,fixed_delta,0.03841730837928436,0.012782208620853738,,,,,0.48601816831310957,1750,1850,1,0.95,WHITE,WHITE,True,0,0.0015000005078036338,WHITE,True,CORRECT,0.7298238999974274,729.8238999974274
5,20260325_140546,D,J,False,AUTOMATION1,4,63,1363,fixed_delta,0.03841730837928436,0.012782208620853738,,,,,0.5523404991550513,1988,1612,1,0.95,BLACK,BLACK,True,0,0.0016000012692529708,BLACK,True,CORRECT,1.2413887000002433,1241.3887000002433
5,20260325_140546,D,J,False,AUTOMATION1,4,64,1364,fixed_delta,0.03841730837928436,0.012782208620853738,,,,,0.5450890095380487,1962,1638,1,0.95,BLACK,BLACK,True,0,0.0016000012692529708,BLACK,True,CORRECT,0.6882265000022016,688.2265000022016
5,20260325_140546,D,J,False,AUTOMATION1,4,65,1365,fixed_delta,0.03841730837928436,0.012782208620853738,,,,,0.533421481002031,1920,1680,1,0.95,BLACK,BLACK,True,0,0.0016999983927235007,WHITE,False,INCORRECT,0.9319763999992574,931.9763999992574
5,20260325_140546,D,J,False,AUTOMATION1,4,66,1366,fixed_delta,0.03841730837928436,0.012782208620853738,,,,,0.5268420239647063,1897,1703,1,0.95,BLACK,BLACK,True,0,0.0015000005078036338,BLACK,True,CORRECT,1.3688048000003619,1368.8048000003619
5,20260325_140546,D,J,False,AUTOMATION1,4,67,1367,fixed_delta,0.03841730837928436,0.012782208620853738,,,,,0.4740050190296573,1706,1894,1,0.95,WHITE,WHITE,True,0,0.0016999983927235007,WHITE,True,CORRECT,0.840296300000773,840.296300000773
5,20260325_140546,D,J,False,AUTOMATION1,4,68,1368,fixed_delta,0.03841730837928436,0.012782208620853738,,,,,0.4657597456995695,1677,1923,1,0.95,WHITE,WHITE,True,0,0.0016000012692529708,WHITE,True,CORRECT,0.8497881000002963,849.7881000002963
5,20260325_140546,D,J,False,AUTOMATION1,4,69,1369,fixed_delta,0.03841730837928436,0.012782208620853738,,,,,0.4568524390547918,1645,1955,1,0.95,WHITE,WHITE,True,0,0.0014999968698248267,WHITE,True,CORRECT,0.8423207999985607,842.3207999985607
5,20260325_140546,D,J,False,AUTOMATION1,4,70,1370,fixed_delta,0.03841730837928436,0.012782208620853738,,,,,0.5529484277037537,1991,1609,1,0.95,BLACK,BLACK,True,0,0.0018000027921516448,BLACK,True,CORRECT,1.0005911000007472,1000.5911000007472
5,20260325_140546,D,J,False,AUTOMATION1,4,71,1371,fixed_delta,0.03841730837928436,0.012782208620853738,,,,,0.45906562790665717,1653,1947,1,0.95,WHITE,WHITE,True,0,0.0015000005078036338,WHITE,True,CORRECT,0.7095126999993226,709.5126999993226
5,20260325_140546,D,J,False,AUTOMATION1,4,72,1372,fixed_delta,0.03841730837928436,0.012782208620853738,,,,,0.5427775110519796,1954,1646,1,0.95,BLACK,BLACK,True,0,0.0013999997463542968,BLACK,True,CORRECT,0.6531299000016588,653.1299000016588
5,20260325_140546,D,J,False,AUTOMATION1,4,73,1373,fixed_delta,0.03841730837928436,0.012782208620853738,,,,,0.5330093902258672,1919,1681,1,0.95,BLACK,BLACK,True,0,0.0014999968698248267,WHITE,False,INCORRECT,0.970703399998456,970.703399998456
5,20260325_140546,D,J,False,AUTOMATION1,4,74,1374,fixed_delta,0.03841730837928436,0.012782208620853738,,,,,0.5166409653155084,1860,1740,1,0.95,BLACK,BLACK,True,0,0.0016999983927235007,WHITE,False,INCORRECT,1.16500570000062,1165.00570000062
5,20260325_140546,D,J,False,AUTOMATION1,4,75,1375,fixed_delta,0.03841730837928436,0.012782208620853738,,,,,0.5413482563380414,1949,1651,1,0.95,BLACK,WHITE,False,0,0.0019999970390927047,WHITE,False,INCORRECT,1.3769345999971847,1376.9345999971847
5,20260325_140546,D,J,False,AUTOMATION1,4,76,1376,fixed_delta,0.03841730837928436,0.012782208620853738,,,,,0.5440727582845813,1959,1641,1,0.95,BLACK,BLACK,True,0,0.0017000020307023078,BLACK,True,CORRECT,1.0095572999998694,1009.5572999998694
5,20260325_140546,D,J,False,AUTOMATION1,4,77,1377,fixed_delta,0.03841730837928436,0.012782208620853738,,,,,0.5619549496195827,2023,1577,1,0.95,BLACK,BLACK,True,0,0.0015000005078036338,BLACK,True,CORRECT,1.2328555999993114,1232.8555999993114
5,20260325_140546,D,J,False,AUTOMATION1,4,78,1378,fixed_delta,0.03841730837928436,0.012782208620853738,,,,,0.5472580338615904,1970,1630,1,0.95,BLACK,BLACK,True,0,0.0018000027921516448,BLACK,True,CORRECT,0.8020207000008668,802.0207000008668
5,20260325_140546,D,J,False,AUTOMATION1,4,79,1379,fixed_delta,0.03841730837928436,0.012782208620853738,,,,,0.4576367504076095,1647,1953,1,0.95,WHITE,WHITE,True,0,0.0014999968698248267,WHITE,True,CORRECT,0.6633029999975406,663.3029999975406
5,20260325_140546,D,J,False,AUTOMATION1,4,80,1380,fixed_delta,0.03841730837928436,0.012782208620853738,,,,,0.5538814020850393,1994,1606,1,0.95,BLACK,BLACK,True,0,0.0013999997463542968,BLACK,True,CORRECT,0.7580010999990918,758.0010999990918
5,20260325_140546,D,J,False,AUTOMATION1,4,81,1381,fixed_delta,0.03841730837928436,0.012782208620853738,,,,,0.4582083518094447,1650,1950,1,0.95,WHITE,WHITE,True,0,0.0013999997463542968,WHITE,True,CORRECT,0.6772361000003002,677.2361000003002
5,20260325_140546,D,J,False,AUTOMATION1,4,82,1382,fixed_delta,0.03841730837928436,0.012782208620853738,,,,,0.5335175936557335,1921,1679,1,0.95,BLACK,BLACK,True,0,0.0018999999156221747,BLACK,True,CORRECT,1.3059524000018428,1305.9524000018428
5,20260325_140546,D,J,False,AUTOMATION1,4,83,1383,fixed_delta,0.03841730837928436,0.012782208620853738,,,,,0.48390110471340414,1742,1858,1,0.95,WHITE,WHITE,True,0,0.0017999991541728377,WHITE,True,CORRECT,0.6924428999991505,692.4428999991505
5,20260325_140546,D,J,False,AUTOMATION1,4,84,1384,fixed_delta,0.03841730837928436,0.012782208620853738,,,,,0.46737006724737595,1683,1917,1,0.95,WHITE,WHITE,True,0,0.0016999983927235007,WHITE,True,CORRECT,0.8237308999996458,823.7308999996458
5,20260325_140546,D,J,False,AUTOMATION1,4,85,1385,fixed_delta,0.03841730837928436,0.012782208620853738,,,,,0.47523721926240003,1711,1889,1,0.95,WHITE,WHITE,True,0,0.0013999997463542968,WHITE,True,CORRECT,0.7817481999991287,781.7481999991287
5,20260325_140546,D,J,False,AUTOMATION1,4,86,1386,fixed_delta,0.03841730837928436,0.012782208620853738,,,,,0.5579513371022569,2009,1591,1,0.95,BLACK,BLACK,True,0,0.0015999976312741637,BLACK,True,CORRECT,0.7659238999985973,765.9238999985973
5,20260325_140546,D,J,False,AUTOMATION1,4,87,1387,fixed_delta,0.03841730837928436,0.012782208620853738,,,,,0.5269729633400734,1897,1703,1,0.95,BLACK,BLACK,True,0,0.0016999983927235007,WHITE,False,INCORRECT,1.0049582999999984,1004.9582999999984
5,20260325_140546,D,J,False,AUTOMATION1,4,88,1388,fixed_delta,0.03841730837928436,0.012782208620853738,,,,,0.45313696321348973,1631,1969,1,0.95,WHITE,WHITE,True,0,0.0016000012692529708,WHITE,True,CORRECT,0.7613966999997501,761.3966999997501
5,20260325_140546,D,J,False,AUTOMATION1,4,89,1389,fixed_delta,0.03841730837928436,0.012782208620853738,,,,,0.45128773120510135,1625,1975,1,0.95,WHITE,WHITE,True,0,0.0022999993234407157,WHITE,True,CORRECT,1.1896760999989056,1189.6760999989056
5,20260325_140546,D,J,False,AUTOMATION1,4,90,1390,fixed_delta,0.03841730837928436,0.012782208620853738,,,,,0.46856348794568164,1687,1913,1,0.95,WHITE,WHITE,True,0,0.0015000005078036338,WHITE,True,CORRECT,0.8178732000014861,817.8732000014861
5,20260325_140546,D,J,False,AUTOMATION1,4,91,1391,fixed_delta,0.03841730837928436,0.012782208620853738,,,,,0.4676668516319344,1684,1916,1,0.95,WHITE,WHITE,True,0,0.0015999976312741637,WHITE,True,CORRECT,0.8541714999992109,854.1714999992109
5,20260325_140546,D,J,False,AUTOMATION1,4,92,1392,fixed_delta,0.03841730837928436,0.012782208620853738,,,,,0.5439452636520872,1958,1642,1,0.95,BLACK,BLACK,True,0,0.0016000012692529708,BLACK,True,CORRECT,0.8422224999994796,842.2224999994796
5,20260325_140546,D,J,False,AUTOMATION1,4,93,1393,fixed_delta,0.03841730837928436,0.012782208620853738,,,,,0.46255737156409116,1665,1935,1,0.95,WHITE,WHITE,True,0,0.0015000005078036338,WHITE,True,CORRECT,0.8635370999982115,863.5370999982115
5,20260325_140546,D,J,False,AUTOMATION1,4,94,1394,fixed_delta,0.03841730837928436,0.012782208620853738,,,,,0.5412519678418038,1949,1651,1,0.95,BLACK,BLACK,True,0,0.0015999976312741637,BLACK,True,CORRECT,2.022562599999219,2022.562599999219
5,20260325_140546,D,J,False,AUTOMATION1,4,95,1395,fixed_delta,0.03841730837928436,0.012782208620853738,,,,,0.522925531498575,1883,1717,1,0.95,BLACK,BLACK,True,0,0.0016000012692529708,BLACK,True,CORRECT,0.8681832000002032,868.1832000002032
5,20260325_140546,D,J,False,AUTOMATION1,4,96,1396,fixed_delta,0.03841730837928436,0.012782208620853738,,,,,0.5368875235587514,1933,1667,1,0.95,BLACK,BLACK,True,0,0.0015000005078036338,BLACK,True,CORRECT,1.2164349999984552,1216.4349999984552
5,20260325_140546,D,J,False,AUTOMATION1,4,97,1397,fixed_delta,0.03841730837928436,0.012782208620853738,,,,,0.5310265864675706,1912,1688,1,0.95,BLACK,BLACK,True,0,0.0017999991541728377,WHITE,False,INCORRECT,1.1860859000007622,1186.0859000007622
5,20260325_140546,D,J,False,AUTOMATION1,4,98,1398,fixed_delta,0.03841730837928436,0.012782208620853738,,,,,0.539100725381552,1941,1659,1,0.95,BLACK,BLACK,True,0,0.0015000005078036338,BLACK,True,CORRECT,0.889282700001786,889.282700001786
5,20260325_140546,D,J,False,AUTOMATION1,4,99,1399,fixed_delta,0.03841730837928436,0.012782208620853738,,,,,0.47444068507379067,1708,1892,1,0.95,WHITE,WHITE,True,0,0.0017999991541728377,WHITE,True,CORRECT,0.772341799998685,772.341799998685
5,20260325_140546,D,J,False,AUTOMATION1,4,100,1400,fixed_delta,0.03841730837928436,0.012782208620853738,,,,,0.5558781467551293,2001,1599,1,0.95,BLACK,BLACK,True,0,0.0013999997463542968,BLACK,True,CORRECT,1.5284988999992493,1528.4988999992493
5,20260325_140546,D,J,False,AUTOMATION1,4,101,1401,fixed_delta,0.03841730837928436,0.012782208620853738,,,,,0.47249218278259403,1701,1899,1,0.95,WHITE,WHITE,True,0,0.0016999983927235007,WHITE,True,CORRECT,0.9551380000011704,955.1380000011704
5,20260325_140546,D,J,False,AUTOMATION1,4,102,1402,fixed_delta,0.03841730837928436,0.012782208620853738,,,,,0.4755097228320686,1712,1888,1,0.95,WHITE,WHITE,True,0,0.0013999997463542968,WHITE,True,CORRECT,0.957833299999038,957.833299999038
5,20260325_140546,D,J,False,AUTOMATION1,4,103,1403,fixed_delta,0.03841730837928436,0.012782208620853738,,,,,0.5321435087380615,1916,1684,1,0.95,BLACK,BLACK,True,0,0.0013999997463542968,BLACK,True,CORRECT,1.9116728000008152,1911.6728000008152
5,20260325_140546,D,J,False,AUTOMATION1,4,104,1404,fixed_delta,0.03841730837928436,0.012782208620853738,,,,,0.4596506128808171,1655,1945,1,0.95,WHITE,WHITE,True,0,0.0018000027921516448,WHITE,True,CORRECT,0.7794606000024942,779.4606000024942
5,20260325_140546,D,J,False,AUTOMATION1,4,105,1405,fixed_delta,0.03841730837928436,0.012782208620853738,,,,,0.5281429459126488,1901,1699,1,0.95,BLACK,BLACK,True,0,0.0016000012692529708,WHITE,False,INCORRECT,2.7785072999977274,2778.5072999977274
5,20260325_140546,D,J,False,AUTOMATION1,4,106,1406,fixed_delta,0.03841730837928436,0.012782208620853738,,,,,0.441538336366565,1590,2010,1,0.95,WHITE,WHITE,True,0,0.0015000005078036338,WHITE,True,CORRECT,0.7404274000000441,740.4274000000441
5,20260325_140546,D,J,False,AUTOMATION1,4,107,1407,fixed_delta,0.03841730837928436,0.012782208620853738,,,,,0.5418703018478921,1951,1649,1,0.95,BLACK,BLACK,True,0,0.0017999991541728377,BLACK,True,CORRECT,1.2943491000005451,1294.3491000005451
5,20260325_140546,D,J,False,AUTOMATION1,4,108,1408,fixed_delta,0.03841730837928436,0.012782208620853738,,,,,0.5447654484762525,1961,1639,1,0.95,BLACK,WHITE,False,0,0.0013999997463542968,WHITE,False,INCORRECT,0.706815400000778,706.815400000778
5,20260325_140546,D,J,False,AUTOMATION1,4,109,1409,fixed_delta,0.03841730837928436,0.012782208620853738,,,,,0.4544370695422418,1636,1964,1,0.95,WHITE,WHITE,True,0,0.0013999997463542968,WHITE,True,CORRECT,1.4166733999991266,1416.6733999991266
5,20260325_140546,D,J,False,AUTOMATION1,4,110,1410,fixed_delta,0.03841730837928436,0.012782208620853738,,,,,0.5151379712309339,1854,1746,1,0.95,BLACK,BLACK,True,0,0.0016000012692529708,BLACK,True,CORRECT,1.089716500002396,1089.716500002396
5,20260325_140546,D,J,False,AUTOMATION1,4,111,1411,fixed_delta,0.03841730837928436,0.012782208620853738,,,,,0.4547660546484858,1637,1963,1,0.95,WHITE,WHITE,True,0,0.0016999983927235007,WHITE,True,CORRECT,0.8414235999989614,841.4235999989614
5,20260325_140546,D,J,False,AUTOMATION1,4,112,1412,fixed_delta,0.03841730837928436,0.012782208620853738,,,,,0.5244636112943911,1888,1712,1,0.95,BLACK,BLACK,True,0,0.0015000005078036338,BLACK,True,CORRECT,0.9807834999992338,980.7834999992338
5,20260325_140546,D,J,False,AUTOMATION1,4,113,1413,fixed_delta,0.03841730837928436,0.012782208620853738,,,,,0.4683051785642702,1686,1914,1,0.95,WHITE,WHITE,True,0,0.0015000005078036338,WHITE,True,CORRECT,0.8842513000017789,884.2513000017789
5,20260325_140546,D,J,False,AUTOMATION1,4,114,1414,fixed_delta,0.03841730837928436,0.012782208620853738,,,,,0.5565498156217049,2004,1596,1,0.95,BLACK,BLACK,True,0,0.0016000012692529708,BLACK,True,CORRECT,0.6951171000000613,695.1171000000613
5,20260325_140546,D,J,False,AUTOMATION1,4,115,1415,fixed_delta,0.03841730837928436,0.012782208620853738,,,,,0.5349051144742566,1926,1674,1,0.95,BLACK,BLACK,True,0,0.0013000026228837669,BLACK,True,CORRECT,0.5495088999996369,549.5088999996369
5,20260325_140546,D,J,False,AUTOMATION1,4,116,1416,fixed_delta,0.03841730837928436,0.012782208620853738,,,,,0.5550159018262376,1998,1602,1,0.95,BLACK,BLACK,True,0,0.0016999983927235007,BLACK,True,CORRECT,0.6203984999992826,620.3984999992826
5,20260325_140546,D,J,False,AUTOMATION1,4,117,1417,fixed_delta,0.03841730837928436,0.012782208620853738,,,,,0.5523583302550995,1988,1612,1,0.95,BLACK,BLACK,True,0,0.0018999999156221747,WHITE,False,INCORRECT,2.899467500003084,2899.467500003084
5,20260325_140546,D,J,False,AUTOMATION1,4,118,1418,fixed_delta,0.03841730837928436,0.012782208620853738,,,,,0.4616120566421919,1662,1938,1,0.95,WHITE,WHITE,True,0,0.0015000005078036338,WHITE,True,CORRECT,1.2178158999995503,1217.8158999995503
5,20260325_140546,D,J,False,AUTOMATION1,4,119,1419,fixed_delta,0.03841730837928436,0.012782208620853738,,,,,0.4643700180275543,1672,1928,1,0.95,WHITE,WHITE,True,0,0.0016999983927235007,BLACK,False,INCORRECT,2.629395600000862,2629.395600000862
5,20260325_140546,D,J,False,AUTOMATION1,4,120,1420,fixed_delta,0.03841730837928436,0.012782208620853738,,,,,0.470969100807077,1695,1905,1,0.95,WHITE,WHITE,True,0,0.0015999976312741637,BLACK,False,INCORRECT,1.6135873999992327,1613.5873999992327
5,20260325_140546,D,J,False,AUTOMATION1,4,121,1421,fixed_delta,0.03841730837928436,0.012782208620853738,,,,,0.46112669856797067,1660,1940,1,0.95,WHITE,WHITE,True,0,0.0016000012692529708,WHITE,True,CORRECT,1.2096826000015426,1209.6826000015426
5,20260325_140546,D,J,False,AUTOMATION1,4,122,1422,fixed_delta,0.03841730837928436,0.012782208620853738,,,,,0.5478347358510108,1972,1628,1,0.95,BLACK,BLACK,True,0,0.0013999997463542968,BLACK,True,CORRECT,1.4865183000001707,1486.5183000001707
5,20260325_140546,D,J,False,AUTOMATION1,4,123,1423,fixed_delta,0.03841730837928436,0.012782208620853738,,,,,0.4491869405563295,1617,1983,1,0.95,WHITE,WHITE,True,0,0.0015000005078036338,WHITE,True,CORRECT,0.9300717000005534,930.0717000005534
5,20260325_140546,D,J,False,AUTOMATION1,4,124,1424,fixed_delta,0.03841730837928436,0.012782208620853738,,,,,0.5478600333309662,1972,1628,1,0.95,BLACK,BLACK,True,0,0.0015000005078036338,BLACK,True,CORRECT,0.8279957000013383,827.9957000013383
5,20260325_140546,D,J,False,AUTOMATION1,4,125,1425,fixed_delta,0.03841730837928436,0.012782208620853738,,,,,0.52466740020354,1889,1711,1,0.95,BLACK,BLACK,True,0,0.0012999989849049598,BLACK,True,CORRECT,0.7391160000006494,739.1160000006494
5,20260325_140546,D,J,False,AUTOMATION1,4,126,1426,fixed_delta,0.03841730837928436,0.012782208620853738,,,,,0.5448813872915919,1962,1638,1,0.95,BLACK,BLACK,True,0,0.0013999997463542968,BLACK,True,CORRECT,1.3261069000000134,1326.1069000000134
5,20260325_140546,D,J,False,AUTOMATION1,4,127,1427,fixed_delta,0.03841730837928436,0.012782208620853738,,,,,0.5424513417243854,1953,1647,1,0.95,BLACK,BLACK,True,0,0.0020000006770715117,BLACK,True,CORRECT,0.823015400001168,823.015400001168
5,20260325_140546,D,J,False,AUTOMATION1,4,128,1428,fixed_delta,0.03841730837928436,0.012782208620853738,,,,,0.46513044279313137,1674,1926,1,0.95,WHITE,WHITE,True,0,0.0016000012692529708,WHITE,True,CORRECT,0.6873296999983722,687.3296999983722
5,20260325_140546,D,J,False,AUTOMATION1,4,129,1429,fixed_delta,0.03841730837928436,0.012782208620853738,,,,,0.5218621225610295,1879,1721,1,0.95,BLACK,BLACK,True,0,0.0015999976312741637,BLACK,True,CORRECT,0.8455135999975028,845.5135999975028
5,20260325_140546,D,J,False,AUTOMATION1,4,130,1430,fixed_delta,0.03841730837928436,0.012782208620853738,,,,,0.45696994937921726,1645,1955,1,0.95,WHITE,WHITE,True,0,0.0015999976312741637,WHITE,True,CORRECT,0.655175899999449,655.175899999449
5,20260325_140546,D,J,False,AUTOMATION1,4,131,1431,fixed_delta,0.03841730837928436,0.012782208620853738,,,,,0.5385797644373629,1939,1661,1,0.95,BLACK,BLACK,True,0,0.0017999991541728377,BLACK,True,CORRECT,0.6453193000015744,645.3193000015744
5,20260325_140546,D,J,False,AUTOMATION1,4,132,1432,fixed_delta,0.03841730837928436,0.012782208620853738,,,,,0.4640330639045415,1671,1929,1,0.95,WHITE,WHITE,True,0,0.0017999991541728377,WHITE,True,CORRECT,0.7547309000001405,754.7309000001405
5,20260325_140546,D,J,False,AUTOMATION1,4,133,1433,fixed_delta,0.03841730837928436,0.012782208620853738,,,,,0.5500976820880134,1980,1620,1,0.95,BLACK,BLACK,True,0,0.0015000005078036338,BLACK,True,CORRECT,0.9287254000009852,928.7254000009852
5,20260325_140546,D,J,False,AUTOMATION1,4,134,1434,fixed_delta,0.03841730837928436,0.012782208620853738,,,,,0.5517359597690827,1986,1614,1,0.95,BLACK,BLACK,True,0,0.0013999997463542968,BLACK,True,CORRECT,1.409544800000731,1409.544800000731
5,20260325_140546,D,J,False,AUTOMATION1,4,135,1435,fixed_delta,0.03841730837928436,0.012782208620853738,,,,,0.5286267736069461,1903,1697,1,0.95,BLACK,BLACK,True,0,0.0012999989849049598,BLACK,True,CORRECT,1.811889799999335,1811.889799999335
5,20260325_140546,D,J,False,AUTOMATION1,4,136,1436,fixed_delta,0.03841730837928436,0.012782208620853738,,,,,0.5516098067035379,1986,1614,1,0.95,BLACK,BLACK,True,0,0.0015999976312741637,BLACK,True,CORRECT,0.7386504999994941,738.6504999994941
5,20260325_140546,D,J,False,AUTOMATION1,4,137,1437,fixed_delta,0.03841730837928436,0.012782208620853738,,,,,0.4614713608663174,1661,1939,1,0.95,WHITE,WHITE,True,0,0.0020000006770715117,BLACK,False,INCORRECT,0.8190484000006109,819.0484000006109
5,20260325_140546,D,J,False,AUTOMATION1,4,138,1438,fixed_delta,0.03841730837928436,0.012782208620853738,,,,,0.4575248239147865,1647,1953,1,0.95,WHITE,WHITE,True,0,0.0015000005078036338,WHITE,True,CORRECT,0.6726039000022865,672.6039000022865
5,20260325_140546,D,J,False,AUTOMATION1,4,139,1439,fixed_delta,0.03841730837928436,0.012782208620853738,,,,,0.5009875440885673,1804,1796,1,0.95,BLACK,BLACK,True,0,0.0013999997463542968,WHITE,False,INCORRECT,0.6927596999994421,692.7596999994421
5,20260325_140546,D,J,False,AUTOMATION1,4,140,1440,fixed_delta,0.03841730837928436,0.012782208620853738,,,,,0.4536190326435194,1633,1967,1,0.95,WHITE,WHITE,True,0,0.0017999991541728377,WHITE,True,CORRECT,0.7071581999989576,707.1581999989576
5,20260325_140546,D,J,False,AUTOMATION1,4,141,1441,fixed_delta,0.03841730837928436,0.012782208620853738,,,,,0.5482854071099513,1974,1626,1,0.95,BLACK,BLACK,True,0,0.0015999976312741637,BLACK,True,CORRECT,0.8744084999998449,874.4084999998449
5,20260325_140546,D,J,False,AUTOMATION1,4,142,1442,fixed_delta,0.03841730837928436,0.012782208620853738,,,,,0.5383574489413316,1938,1662,1,0.95,BLACK,BLACK,True,0,0.0014999968698248267,BLACK,True,CORRECT,0.8060851999980514,806.0851999980514
5,20260325_140546,D,J,False,AUTOMATION1,4,143,1443,fixed_delta,0.03841730837928436,0.012782208620853738,,,,,0.5095974172548267,1835,1765,1,0.95,BLACK,BLACK,True,0,0.0016999983927235007,WHITE,False,INCORRECT,0.783020499999111,783.020499999111
5,20260325_140546,D,J,False,AUTOMATION1,4,144,1444,fixed_delta,0.03841730837928436,0.012782208620853738,,,,,0.4641810838008267,1671,1929,1,0.95,WHITE,WHITE,True,0,0.0017000020307023078,WHITE,True,CORRECT,0.6070403000012448,607.0403000012448
5,20260325_140546,D,J,False,AUTOMATION1,4,145,1445,fixed_delta,0.03841730837928436,0.012782208620853738,,,,,0.45875558397548877,1652,1948,1,0.95,WHITE,WHITE,True,0,0.0013999997463542968,WHITE,True,CORRECT,0.646234200001345,646.234200001345
5,20260325_140546,D,J,False,AUTOMATION1,4,146,1446,fixed_delta,0.03841730837928436,0.012782208620853738,,,,,0.5409199772032931,1947,1653,1,0.95,BLACK,BLACK,True,0,0.0016999983927235007,WHITE,False,INCORRECT,1.4699708000007377,1469.9708000007377
5,20260325_140546,D,J,False,AUTOMATION1,4,147,1447,fixed_delta,0.03841730837928436,0.012782208620853738,,,,,0.4662769948622025,1679,1921,1,0.95,WHITE,WHITE,True,0,0.0015000005078036338,WHITE,True,CORRECT,0.6436816999994335,643.6816999994335
5,20260325_140546,D,J,False,AUTOMATION1,4,148,1448,fixed_delta,0.03841730837928436,0.012782208620853738,,,,,0.5516310911962778,1986,1614,1,0.95,BLACK,BLACK,True,0,0.0018999999156221747,BLACK,True,CORRECT,0.8398847999997088,839.8847999997088
5,20260325_140546,D,J,False,AUTOMATION1,4,149,1449,fixed_delta,0.03841730837928436,0.012782208620853738,,,,,0.4550598041598332,1638,1962,1,0.95,WHITE,WHITE,True,0,0.0016000012692529708,WHITE,True,CORRECT,0.8240566000022227,824.0566000022227
5,20260325_140546,D,J,False,AUTOMATION1,4,150,1450,fixed_delta,0.03841730837928436,0.012782208620853738,,,,,0.4734169976703267,1704,1896,1,0.95,WHITE,WHITE,True,0,0.0018000027921516448,BLACK,False,INCORRECT,1.633466999999655,1633.466999999655
5,20260325_140546,D,J,False,AUTOMATION1,4,151,1451,fixed_delta,0.03841730837928436,0.012782208620853738,,,,,0.4655677247046006,1676,1924,1,0.95,WHITE,WHITE,True,0,0.0013999997463542968,WHITE,True,CORRECT,1.0829420999980357,1082.9420999980357
5,20260325_140546,D,J,False,AUTOMATION1,4,152,1452,fixed_delta,0.03841730837928436,0.012782208620853738,,,,,0.5257781047005654,1893,1707,1,0.95,BLACK,BLACK,True,0,0.0015000005078036338,BLACK,True,CORRECT,2.0656510000007984,2065.6510000007984
5,20260325_140546,D,J,False,AUTOMATION1,4,153,1453,fixed_delta,0.03841730837928436,0.012782208620853738,,,,,0.4696734423168112,1691,1909,1,0.95,WHITE,WHITE,True,0,0.0016999983927235007,WHITE,True,CORRECT,1.3390256999991834,1339.0256999991834
5,20260325_140546,D,J,False,AUTOMATION1,4,154,1454,fixed_delta,0.03841730837928436,0.012782208620853738,,,,,0.4625777665212268,1665,1935,1,0.95,WHITE,WHITE,True,0,0.0016000012692529708,WHITE,True,CORRECT,0.6503910999999789,650.3910999999789
5,20260325_140546,D,J,False,AUTOMATION1,4,155,1455,fixed_delta,0.03841730837928436,0.012782208620853738,,,,,0.5564894106988983,2003,1597,1,0.95,BLACK,BLACK,True,0,0.0017000020307023078,BLACK,True,CORRECT,0.7738080999988597,773.8080999988597
5,20260325_140546,D,J,False,AUTOMATION1,4,156,1456,fixed_delta,0.03841730837928436,0.012782208620853738,,,,,0.46114768084385793,1660,1940,1,0.95,WHITE,WHITE,True,0,0.0017000020307023078,WHITE,True,CORRECT,0.9413568999989366,941.3568999989366
5,20260325_140546,D,J,False,AUTOMATION1,4,157,1457,fixed_delta,0.03841730837928436,0.012782208620853738,,,,,0.47122794441591426,1696,1904,1,0.95,WHITE,WHITE,True,0,0.0015000005078036338,BLACK,False,INCORRECT,1.1512158000005002,1151.2158000005002
5,20260325_140546,D,J,False,AUTOMATION1,4,158,1458,fixed_delta,0.03841730837928436,0.012782208620853738,,,,,0.4557345929457746,1641,1959,1,0.95,WHITE,WHITE,True,0,0.0015999976312741637,BLACK,False,INCORRECT,2.0632773999968776,2063.2773999968776
5,20260325_140546,D,J,False,AUTOMATION1,4,159,1459,fixed_delta,0.03841730837928436,0.012782208620853738,,,,,0.4544925054435896,1636,1964,1,0.95,WHITE,WHITE,True,0,0.0013999997463542968,WHITE,True,CORRECT,2.181326599999011,2181.326599999011
5,20260325_140546,D,J,False,AUTOMATION1,4,160,1460,fixed_delta,0.03841730837928436,0.012782208620853738,,,,,0.4545123048403861,1636,1964,1,0.95,WHITE,WHITE,True,0,0.0016000012692529708,WHITE,True,CORRECT,0.76939560000028,769.39560000028
5,20260325_140546,D,J,False,AUTOMATION1,4,161,1461,fixed_delta,0.03841730837928436,0.012782208620853738,,,,,0.5585087476711073,2011,1589,1,0.95,BLACK,BLACK,True,0,0.0016000012692529708,BLACK,True,CORRECT,0.8388532999997551,838.8532999997551
5,20260325_140546,D,J,False,AUTOMATION1,4,162,1462,fixed_delta,0.03841730837928436,0.012782208620853738,,,,,0.4711410657928417,1696,1904,1,0.95,WHITE,WHITE,True,0,0.0018000027921516448,WHITE,True,CORRECT,0.96788480000032,967.88480000032
5,20260325_140546,D,J,False,AUTOMATION1,4,163,1463,fixed_delta,0.03841730837928436,0.012782208620853738,,,,,0.45192672378748705,1627,1973,1,0.95,WHITE,WHITE,True,0,0.0017000020307023078,WHITE,True,CORRECT,0.7971018999996886,797.1018999996886
5,20260325_140546,D,J,False,AUTOMATION1,4,164,1464,fixed_delta,0.03841730837928436,0.012782208620853738,,,,,0.44547654470645126,1604,1996,1,0.95,WHITE,WHITE,True,0,0.0016999983927235007,WHITE,True,CORRECT,0.6957637999985309,695.7637999985309
5,20260325_140546,D,J,False,AUTOMATION1,4,165,1465,fixed_delta,0.03841730837928436,0.012782208620853738,,,,,0.5243182173658536,1888,1712,1,0.95,BLACK,BLACK,True,0,0.0018999999156221747,BLACK,True,CORRECT,1.3816417999987607,1381.6417999987607
5,20260325_140546,D,J,False,AUTOMATION1,4,166,1466,fixed_delta,0.03841730837928436,0.012782208620853738,,,,,0.45867975654774007,1651,1949,1,0.95,WHITE,WHITE,True,0,0.0013999997463542968,WHITE,True,CORRECT,0.7246107999999367,724.6107999999367
5,20260325_140546,D,J,False,AUTOMATION1,4,167,1467,fixed_delta,0.03841730837928436,0.012782208620853738,,,,,0.4748577237906484,1709,1891,1,0.95,WHITE,WHITE,True,0,0.0015000005078036338,WHITE,True,CORRECT,2.4191369000000122,2419.1369000000122
5,20260325_140546,D,J,False,AUTOMATION1,4,168,1468,fixed_delta,0.03841730837928436,0.012782208620853738,,,,,0.44441761692649084,1600,2000,1,0.95,WHITE,WHITE,True,0,0.0013999997463542968,WHITE,True,CORRECT,0.7616140999998606,761.6140999998606
5,20260325_140546,D,J,False,AUTOMATION1,4,169,1469,fixed_delta,0.03841730837928436,0.012782208620853738,,,,,0.5339257688784627,1922,1678,1,0.95,BLACK,BLACK,True,0,0.0016999983927235007,BLACK,True,CORRECT,2.456657800001267,2456.657800001267
5,20260325_140546,D,J,False,AUTOMATION1,4,170,1470,fixed_delta,0.03841730837928436,0.012782208620853738,,,,,0.46121154034060724,1660,1940,1,0.95,WHITE,WHITE,True,0,0.0017000020307023078,WHITE,True,CORRECT,0.9338759000020218,933.8759000020218
5,20260325_140546,D,J,False,AUTOMATION1,4,171,1471,fixed_delta,0.03841730837928436,0.012782208620853738,,,,,0.5339385981128746,1922,1678,1,0.95,BLACK,BLACK,True,0,0.0017000020307023078,BLACK,True,CORRECT,0.9713215000010678,971.3215000010678
5,20260325_140546,D,J,False,AUTOMATION1,4,172,1472,fixed_delta,0.03841730837928436,0.012782208620853738,,,,,0.5440997918076359,1959,1641,1,0.95,BLACK,BLACK,True,0,0.0016999983927235007,BLACK,True,CORRECT,0.7645721000008052,764.5721000008052
5,20260325_140546,D,J,False,AUTOMATION1,4,173,1473,fixed_delta,0.03841730837928436,0.012782208620853738,,,,,0.4608274827446372,1659,1941,1,0.95,WHITE,WHITE,True,0,0.0018000027921516448,WHITE,True,CORRECT,0.7816197000029206,781.6197000029206
5,20260325_140546,D,J,False,AUTOMATION1,4,174,1474,fixed_delta,0.03841730837928436,0.012782208620853738,,,,,0.45382487203651023,1634,1966,1,0.95,WHITE,WHITE,True,0,0.0015000005078036338,WHITE,True,CORRECT,0.8984324999983073,898.4324999983073
5,20260325_140546,D,J,False,AUTOMATION1,4,175,1475,fixed_delta,0.03841730837928436,0.012782208620853738,,,,,0.4929129409978152,1774,1826,1,0.95,WHITE,WHITE,True,0,0.0019999970390927047,WHITE,True,CORRECT,1.211217799998849,1211.217799998849
5,20260325_140546,D,J,False,AUTOMATION1,4,176,1476,fixed_delta,0.03841730837928436,0.012782208620853738,,,,,0.5292318566124994,1905,1695,1,0.95,BLACK,BLACK,True,0,0.0020000006770715117,BLACK,True,CORRECT,1.074353300002258,1074.353300002258
5,20260325_140546,D,J,False,AUTOMATION1,4,177,1477,fixed_delta,0.03841730837928436,0.012782208620853738,,,,,0.45754610882301794,1647,1953,1,0.95,WHITE,WHITE,True,0,0.0016000012692529708,WHITE,True,CORRECT,0.7836978000013914,783.6978000013914
5,20260325_140546,D,J,False,AUTOMATION1,4,178,1478,fixed_delta,0.03841730837928436,0.012782208620853738,,,,,0.4633530833061852,1668,1932,1,0.95,WHITE,WHITE,True,0,0.0020999978005420417,WHITE,True,CORRECT,0.8800545999984024,880.0545999984024
5,20260325_140546,D,J,False,AUTOMATION1,4,179,1479,fixed_delta,0.03841730837928436,0.012782208620853738,,,,,0.5391097659759347,1941,1659,1,0.95,BLACK,BLACK,True,0,0.0017999991541728377,BLACK,True,CORRECT,0.7608416000002762,760.8416000002762
5,20260325_140546,D,J,False,AUTOMATION1,4,180,1480,fixed_delta,0.03841730837928436,0.012782208620853738,,,,,0.4831419242844578,1739,1861,1,0.95,WHITE,WHITE,True,0,0.0015000005078036338,WHITE,True,CORRECT,0.8091366000007838,809.1366000007838
5,20260325_140546,D,J,False,AUTOMATION1,4,181,1481,fixed_delta,0.03841730837928436,0.012782208620853738,,,,,0.4753186821619848,1711,1889,1,0.95,WHITE,WHITE,True,0,0.0016999983927235007,BLACK,False,INCORRECT,3.104316499997367,3104.316499997367
5,20260325_140546,D,J,False,AUTOMATION1,4,182,1482,fixed_delta,0.03841730837928436,0.012782208620853738,,,,,0.4459444599570857,1605,1995,1,0.95,WHITE,WHITE,True,0,0.0013999997463542968,WHITE,True,CORRECT,0.6089075000018056,608.9075000018056
5,20260325_140546,D,J,False,AUTOMATION1,4,183,1483,fixed_delta,0.03841730837928436,0.012782208620853738,,,,,0.4469051693234815,1609,1991,1,0.95,WHITE,WHITE,True,0,0.0018000027921516448,WHITE,True,CORRECT,0.699407500000234,699.407500000234
5,20260325_140546,D,J,False,AUTOMATION1,4,184,1484,fixed_delta,0.03841730837928436,0.012782208620853738,,,,,0.5280105491537235,1901,1699,1,0.95,BLACK,BLACK,True,0,0.0013000026228837669,BLACK,True,CORRECT,1.3361003000027267,1336.1003000027267
5,20260325_140546,D,J,False,AUTOMATION1,4,185,1485,fixed_delta,0.03841730837928436,0.012782208620853738,,,,,0.5405031431195201,1946,1654,1,0.95,BLACK,BLACK,True,0,0.0013999997463542968,BLACK,True,CORRECT,0.6658004999990226,665.8004999990226
5,20260325_140546,D,J,False,AUTOMATION1,4,186,1486,fixed_delta,0.03841730837928436,0.012782208620853738,,,,,0.5471651331171364,1970,1630,1,0.95,BLACK,BLACK,True,0,0.001400003384333104,BLACK,True,CORRECT,1.1422772000005352,1142.2772000005352
5,20260325_140546,D,J,False,AUTOMATION1,4,187,1487,fixed_delta,0.03841730837928436,0.012782208620853738,,,,,0.5520977652742884,1988,1612,1,0.95,BLACK,BLACK,True,0,0.0016000012692529708,BLACK,True,CORRECT,0.7538712999994459,753.8712999994459
5,20260325_140546,D,J,False,AUTOMATION1,4,188,1488,fixed_delta,0.03841730837928436,0.012782208620853738,,,,,0.45742788342089735,1647,1953,1,0.95,WHITE,WHITE,True,0,0.0018999999156221747,WHITE,True,CORRECT,2.858488199999556,2858.488199999556
5,20260325_140546,D,J,False,AUTOMATION1,4,189,1489,fixed_delta,0.03841730837928436,0.012782208620853738,,,,,0.4630841020405425,1667,1933,1,0.95,WHITE,WHITE,True,0,0.0016999983927235007,WHITE,True,CORRECT,0.7506952000003366,750.6952000003366
5,20260325_140546,D,J,False,AUTOMATION1,4,190,1490,fixed_delta,0.03841730837928436,0.012782208620853738,,,,,0.44930713115790455,1618,1982,1,0.95,WHITE,WHITE,True,0,0.0015000005078036338,WHITE,True,CORRECT,1.1526279000026989,1152.6279000026989
5,20260325_140546,D,J,False,AUTOMATION1,4,191,1491,fixed_delta,0.03841730837928436,0.012782208620853738,,,,,0.44947896790893793,1618,1982,1,0.95,WHITE,WHITE,True,0,0.0015999976312741637,WHITE,True,CORRECT,0.8426874999968277,842.6874999968277
5,20260325_140546,D,J,False,AUTOMATION1,4,192,1492,fixed_delta,0.03841730837928436,0.012782208620853738,,,,,0.5113918865651856,1841,1759,1,0.95,BLACK,BLACK,True,0,0.0018999999156221747,BLACK,True,CORRECT,0.9400778000017453,940.0778000017453
5,20260325_140546,D,J,False,AUTOMATION1,4,193,1493,fixed_delta,0.03841730837928436,0.012782208620853738,,,,,0.4558677935434602,1641,1959,1,0.95,WHITE,WHITE,True,0,0.0017000020307023078,WHITE,True,CORRECT,0.8130645000019285,813.0645000019285
5,20260325_140546,D,J,False,AUTOMATION1,4,194,1494,fixed_delta,0.03841730837928436,0.012782208620853738,,,,,0.4502100154278189,1621,1979,1,0.95,WHITE,WHITE,True,0,0.0021000014385208488,WHITE,True,CORRECT,1.9760071999990032,1976.0071999990032
5,20260325_140546,D,J,False,AUTOMATION1,4,195,1495,fixed_delta,0.03841730837928436,0.012782208620853738,,,,,0.4735822362775242,1705,1895,1,0.95,WHITE,WHITE,True,0,0.0021000014385208488,WHITE,True,CORRECT,1.5387233000001288,1538.7233000001288
5,20260325_140546,D,J,False,AUTOMATION1,4,196,1496,fixed_delta,0.03841730837928436,0.012782208620853738,,,,,0.5367489311569783,1932,1668,1,0.95,BLACK,BLACK,True,0,0.0015000005078036338,BLACK,True,CORRECT,0.8266473999974551,826.6473999974551
5,20260325_140546,D,J,False,AUTOMATION1,4,197,1497,fixed_delta,0.03841730837928436,0.012782208620853738,,,,,0.5266243356365451,1896,1704,1,0.95,BLACK,BLACK,True,0,0.0016000012692529708,BLACK,True,CORRECT,0.8139520000004268,813.9520000004268
5,20260325_140546,D,J,False,AUTOMATION1,4,198,1498,fixed_delta,0.03841730837928436,0.012782208620853738,,,,,0.5340150409722343,1922,1678,1,0.95,BLACK,BLACK,True,0,0.0016999983927235007,WHITE,False,INCORRECT,0.668187700000999,668.187700000999
5,20260325_140546,D,J,False,AUTOMATION1,4,199,1499,fixed_delta,0.03841730837928436,0.012782208620853738,,,,,0.5399402286535465,1944,1656,1,0.95,BLACK,BLACK,True,0,0.0013999997463542968,BLACK,True,CORRECT,1.113079700000526,1113.079700000526
5,20260325_140546,D,J,False,AUTOMATION1,4,200,1500,fixed_delta,0.03841730837928436,0.012782208620853738,,,,,0.5444335561269222,1960,1640,1,0.95,BLACK,BLACK,True,0,0.0015000005078036338,BLACK,True,CORRECT,0.6541870000000927,654.1870000000927
5,20260325_140546,D,J,False,AUTOMATION1,4,201,1501,fixed_delta,0.03841730837928436,0.012782208620853738,,,,,0.567180787379615,2042,1558,1,0.95,BLACK,BLACK,True,0,0.0020000006770715117,BLACK,True,CORRECT,2.5179085999989184,2517.9085999989184
5,20260325_140546,D,J,False,AUTOMATION1,4,202,1502,fixed_delta,0.03841730837928436,0.012782208620853738,,,,,0.438811775498095,1580,2020,1,0.95,WHITE,WHITE,True,0,0.0020000006770715117,WHITE,True,CORRECT,1.4803690999979153,1480.3690999979153
5,20260325_140546,D,J,False,AUTOMATION1,4,203,1503,fixed_delta,0.03841730837928436,0.012782208620853738,,,,,0.45131246324875496,1625,1975,1,0.95,WHITE,WHITE,True,0,0.0015000005078036338,WHITE,True,CORRECT,0.8506076000012399,850.6076000012399
5,20260325_140546,D,J,False,AUTOMATION1,4,204,1504,fixed_delta,0.03841730837928436,0.012782208620853738,,,,,0.4527998724179854,1630,1970,1,0.95,WHITE,BLACK,False,0,0.0015999976312741637,WHITE,True,CORRECT,0.9033060000001569,903.3060000001569
5,20260325_140546,D,J,False,AUTOMATION1,4,205,1505,fixed_delta,0.03841730837928436,0.012782208620853738,,,,,0.549411470044651,1978,1622,1,0.95,BLACK,BLACK,True,0,0.0013999997463542968,BLACK,True,CORRECT,1.5672678999981144,1567.2678999981144
5,20260325_140546,D,J,False,AUTOMATION1,4,206,1506,fixed_delta,0.03841730837928436,0.012782208620853738,,,,,0.4646521008380562,1673,1927,1,0.95,WHITE,WHITE,True,0,0.0017999991541728377,BLACK,False,INCORRECT,1.5514067000003706,1551.4067000003706
5,20260325_140546,D,J,False,AUTOMATION1,4,207,1507,fixed_delta,0.03841730837928436,0.012782208620853738,,,,,0.5333775527295773,1920,1680,1,0.95,BLACK,BLACK,True,0,0.0017999991541728377,WHITE,False,INCORRECT,2.7694289999999455,2769.4289999999455
5,20260325_140546,D,J,False,AUTOMATION1,4,208,1508,fixed_delta,0.03841730837928436,0.012782208620853738,,,,,0.530332650510054,1909,1691,1,0.95,BLACK,BLACK,True,0,0.0015999976312741637,BLACK,True,CORRECT,1.185970799997449,1185.970799997449
5,20260325_140546,D,J,False,AUTOMATION1,4,209,1509,fixed_delta,0.03841730837928436,0.012782208620853738,,,,,0.5444929361838102,1960,1640,1,0.95,BLACK,WHITE,False,0,0.0015000005078036338,WHITE,False,INCORRECT,1.2323217000011937,1232.3217000011937
5,20260325_140546,D,J,False,AUTOMATION1,4,210,1510,fixed_delta,0.03841730837928436,0.012782208620853738,,,,,0.5497430605627314,1979,1621,1,0.95,BLACK,BLACK,True,0,0.0017000020307023078,WHITE,False,INCORRECT,1.134930300002452,1134.930300002452
5,20260325_140546,D,J,False,AUTOMATION1,4,211,1511,fixed_delta,0.03841730837928436,0.012782208620853738,,,,,0.5260301718803785,1894,1706,1,0.95,BLACK,WHITE,False,0,0.0020999978005420417,WHITE,False,INCORRECT,0.8753322999982629,875.3322999982629
5,20260325_140546,D,J,False,AUTOMATION1,4,212,1512,fixed_delta,0.03841730837928436,0.012782208620853738,,,,,0.5364376840115932,1931,1669,1,0.95,BLACK,BLACK,True,0,0.0015999976312741637,BLACK,True,CORRECT,1.942703499997151,1942.703499997151
5,20260325_140546,D,J,False,AUTOMATION1,4,213,1513,fixed_delta,0.03841730837928436,0.012782208620853738,,,,,0.5494249227424745,1978,1622,1,0.95,BLACK,BLACK,True,0,0.0017000020307023078,WHITE,False,INCORRECT,1.0195701000011468,1019.5701000011468
5,20260325_140546,D,J,False,AUTOMATION1,4,214,1514,fixed_delta,0.03841730837928436,0.012782208620853738,,,,,0.5477714682999154,1972,1628,1,0.95,BLACK,BLACK,True,0,0.0017000020307023078,BLACK,True,CORRECT,4.480556700000307,4480.556700000307
5,20260325_140546,D,J,False,AUTOMATION1,4,215,1515,fixed_delta,0.03841730837928436,0.012782208620853738,,,,,0.4750961683429851,1710,1890,1,0.95,WHITE,WHITE,True,0,0.0013999997463542968,WHITE,True,CORRECT,0.8303407999992487,830.3407999992487
5,20260325_140546,D,J,False,AUTOMATION1,4,216,1516,fixed_delta,0.03841730837928436,0.012782208620853738,,,,,0.4530683322401032,1631,1969,1,0.95,WHITE,WHITE,True,0,0.0018000027921516448,WHITE,True,CORRECT,0.7742402000003494,774.2402000003494
5,20260325_140546,D,J,False,AUTOMATION1,4,217,1517,fixed_delta,0.03841730837928436,0.012782208620853738,,,,,0.5209391266582506,1875,1725,1,0.95,BLACK,BLACK,True,0,0.0015999976312741637,BLACK,True,CORRECT,0.7424246999980824,742.4246999980824
5,20260325_140546,D,J,False,AUTOMATION1,4,218,1518,fixed_delta,0.03841730837928436,0.012782208620853738,,,,,0.44961126336788765,1619,1981,1,0.95,WHITE,WHITE,True,0,0.0020000006770715117,WHITE,True,CORRECT,0.8593935000026249,859.3935000026249
5,20260325_140546,D,J,False,AUTOMATION1,4,219,1519,fixed_delta,0.03841730837928436,0.012782208620853738,,,,,0.5392218662172868,1941,1659,1,0.95,BLACK,BLACK,True,0,0.0017000020307023078,BLACK,True,CORRECT,0.7497098000021651,749.7098000021651
5,20260325_140546,D,J,False,AUTOMATION1,4,220,1520,fixed_delta,0.03841730837928436,0.012782208620853738,,,,,0.5368564024938545,1933,1667,1,0.95,BLACK,BLACK,True,0,0.0013999997463542968,BLACK,True,CORRECT,2.5148872999998275,2514.8872999998275
5,20260325_140546,D,J,False,AUTOMATION1,4,221,1521,fixed_delta,0.03841730837928436,0.012782208620853738,,,,,0.5462945546096986,1967,1633,1,0.95,BLACK,BLACK,True,0,0.0015000005078036338,WHITE,False,INCORRECT,1.3819822999976168,1381.9822999976168
5,20260325_140546,D,J,False,AUTOMATION1,4,222,1522,fixed_delta,0.03841730837928436,0.012782208620853738,,,,,0.46679105432538437,1680,1920,1,0.95,WHITE,WHITE,True,0,0.0013999997463542968,WHITE,True,CORRECT,0.6349732999988191,634.9732999988191
5,20260325_140546,D,J,False,AUTOMATION1,4,223,1523,fixed_delta,0.03841730837928436,0.012782208620853738,,,,,0.5459105249125291,1965,1635,1,0.95,BLACK,BLACK,True,0,0.0020000006770715117,BLACK,True,CORRECT,0.5397515000004205,539.7515000004205
5,20260325_140546,D,J,False,AUTOMATION1,4,224,1524,fixed_delta,0.03841730837928436,0.012782208620853738,,,,,0.4698961463382821,1692,1908,1,0.95,WHITE,WHITE,True,0,0.0016000012692529708,WHITE,True,CORRECT,0.6422684999997728,642.2684999997728
5,20260325_140546,D,J,False,AUTOMATION1,4,225,1525,fixed_delta,0.03841730837928436,0.012782208620853738,,,,,0.5365233369833109,1931,1669,1,0.95,BLACK,BLACK,True,0,0.0016999983927235007,WHITE,False,INCORRECT,0.7108483999982127,710.8483999982127
5,20260325_140546,D,J,False,AUTOMATION1,4,226,1526,fixed_delta,0.03841730837928436,0.012782208620853738,,,,,0.4344219496868443,1564,2036,1,0.95,WHITE,WHITE,True,0,0.0013999997463542968,WHITE,True,CORRECT,0.6698862999983248,669.8862999983248
5,20260325_140546,D,J,False,AUTOMATION1,4,227,1527,fixed_delta,0.03841730837928436,0.012782208620853738,,,,,0.45084195658235715,1623,1977,1,0.95,WHITE,WHITE,True,0,0.0016000012692529708,WHITE,True,CORRECT,0.8381088000023738,838.1088000023738
5,20260325_140546,D,J,False,AUTOMATION1,4,228,1528,fixed_delta,0.03841730837928436,0.012782208620853738,,,,,0.4549033177385721,1638,1962,1,0.95,WHITE,WHITE,True,0,0.0013999997463542968,WHITE,True,CORRECT,0.7344554999981483,734.4554999981483
5,20260325_140546,D,J,False,AUTOMATION1,4,229,1529,fixed_delta,0.03841730837928436,0.012782208620853738,,,,,0.5580805047866263,2009,1591,1,0.95,BLACK,BLACK,True,0,0.0015000005078036338,BLACK,True,CORRECT,0.8277347000002919,827.7347000002919
5,20260325_140546,D,J,False,AUTOMATION1,4,230,1530,fixed_delta,0.03841730837928436,0.012782208620853738,,,,,0.4506650375132447,1622,1978,1,0.95,WHITE,WHITE,True,0,0.0019999970390927047,WHITE,True,CORRECT,0.8428475999971852,842.8475999971852
5,20260325_140546,D,J,False,AUTOMATION1,4,231,1531,fixed_delta,0.03841730837928436,0.012782208620853738,,,,,0.48178984646703255,1734,1866,1,0.95,WHITE,WHITE,True,0,0.0018999999156221747,WHITE,True,CORRECT,0.9306039000002784,930.6039000002784
5,20260325_140546,D,J,False,AUTOMATION1,4,232,1532,fixed_delta,0.03841730837928436,0.012782208620853738,,,,,0.5623528171601374,2024,1576,1,0.95,BLACK,BLACK,True,0,0.0013999997463542968,BLACK,True,CORRECT,0.6184696999989683,618.4696999989683
5,20260325_140546,D,J,False,AUTOMATION1,4,233,1533,fixed_delta,0.03841730837928436,0.012782208620853738,,,,,0.46649568092815175,1679,1921,1,0.95,WHITE,WHITE,True,0,0.0015000005078036338,WHITE,True,CORRECT,0.8382883000012953,838.2883000012953
5,20260325_140546,D,J,False,AUTOMATION1,4,234,1534,fixed_delta,0.03841730837928436,0.012782208620853738,,,,,0.5335174637214715,1921,1679,1,0.95,BLACK,BLACK,True,0,0.0017000020307023078,BLACK,True,CORRECT,0.6529119000006176,652.9119000006176
5,20260325_140546,D,J,False,AUTOMATION1,4,235,1535,fixed_delta,0.03841730837928436,0.012782208620853738,,,,,0.5515894544395594,1986,1614,1,0.95,BLACK,BLACK,True,0,0.0016000012692529708,BLACK,True,CORRECT,0.7609119000007922,760.9119000007922
5,20260325_140546,D,J,False,AUTOMATION1,4,236,1536,fixed_delta,0.03841730837928436,0.012782208620853738,,,,,0.5383349656880935,1938,1662,1,0.95,BLACK,BLACK,True,0,0.0017999991541728377,BLACK,True,CORRECT,1.4111895999994886,1411.1895999994886
5,20260325_140546,D,J,False,AUTOMATION1,4,237,1537,fixed_delta,0.03841730837928436,0.012782208620853738,,,,,0.44084693891089155,1587,2013,1,0.95,WHITE,WHITE,True,0,0.0015000005078036338,WHITE,True,CORRECT,1.1651896000003035,1165.1896000003035
5,20260325_140546,D,J,False,AUTOMATION1,4,238,1538,fixed_delta,0.03841730837928436,0.012782208620853738,,,,,0.45766311492180095,1648,1952,1,0.95,WHITE,WHITE,True,0,0.0017000020307023078,WHITE,True,CORRECT,0.914221400002134,914.221400002134
5,20260325_140546,D,J,False,AUTOMATION1,4,239,1539,fixed_delta,0.03841730837928436,0.012782208620853738,,,,,0.48256507192032644,1737,1863,1,0.95,WHITE,WHITE,True,0,0.0013999997463542968,WHITE,True,CORRECT,0.8734695999992255,873.4695999992255
5,20260325_140546,D,J,False,AUTOMATION1,4,240,1540,fixed_delta,0.03841730837928436,0.012782208620853738,,,,,0.5142572711469231,1851,1749,1,0.95,BLACK,BLACK,True,0,0.0022000021999701858,WHITE,False,INCORRECT,0.8096289000022807,809.6289000022807
5,20260325_140546,D,J,False,AUTOMATION1,4,241,1541,fixed_delta,0.03841730837928436,0.012782208620853738,,,,,0.46983109216196745,1691,1909,1,0.95,WHITE,WHITE,True,0,0.0016999983927235007,WHITE,True,CORRECT,0.905044099999941,905.044099999941
5,20260325_140546,D,J,False,AUTOMATION1,4,242,1542,fixed_delta,0.03841730837928436,0.012782208620853738,,,,,0.5523082435593542,1988,1612,1,0.95,BLACK,BLACK,True,0,0.0015000005078036338,BLACK,True,CORRECT,0.6759444000017538,675.9444000017538
5,20260325_140546,D,J,False,AUTOMATION1,4,243,1543,fixed_delta,0.03841730837928436,0.012782208620853738,,,,,0.558470290179336,2010,1590,1,0.95,BLACK,WHITE,False,0,0.0017000020307023078,WHITE,False,INCORRECT,1.829537400000845,1829.537400000845
5,20260325_140546,D,J,False,AUTOMATION1,4,244,1544,fixed_delta,0.03841730837928436,0.012782208620853738,,,,,0.5085573530453433,1831,1769,1,0.95,BLACK,BLACK,True,0,0.0016000012692529708,BLACK,True,CORRECT,1.655073000001721,1655.073000001721
5,20260325_140546,D,J,False,AUTOMATION1,4,245,1545,fixed_delta,0.03841730837928436,0.012782208620853738,,,,,0.4733680763675911,1704,1896,1,0.95,WHITE,WHITE,True,0,0.0012999989849049598,WHITE,True,CORRECT,0.8578731999987212,857.8731999987212
5,20260325_140546,D,J,False,AUTOMATION1,4,246,1546,fixed_delta,0.03841730837928436,0.012782208620853738,,,,,0.4652778077508264,1675,1925,1,0.95,WHITE,WHITE,True,0,0.0017999991541728377,WHITE,True,CORRECT,2.3655910000015865,2365.5910000015865
5,20260325_140546,D,J,False,AUTOMATION1,4,247,1547,fixed_delta,0.03841730837928436,0.012782208620853738,,,,,0.5549535043804199,1998,1602,1,0.95,BLACK,BLACK,True,0,0.0013999997463542968,BLACK,True,CORRECT,0.6638655999995535,663.8655999995535
5,20260325_140546,D,J,False,AUTOMATION1,4,248,1548,fixed_delta,0.03841730837928436,0.012782208620853738,,,,,0.5463362317229047,1967,1633,1,0.95,BLACK,BLACK,True,0,0.0016000012692529708,BLACK,True,CORRECT,2.1611849000000802,2161.1849000000802
5,20260325_140546,D,J,False,AUTOMATION1,4,249,1549,fixed_delta,0.03841730837928436,0.012782208620853738,,,,,0.5476866764621067,1972,1628,1,0.95,BLACK,BLACK,True,0,0.0015999976312741637,BLACK,True,CORRECT,0.7187401999981375,718.7401999981375
5,20260325_140546,D,J,False,AUTOMATION1,4,250,1550,fixed_delta,0.03841730837928436,0.012782208620853738,,,,,0.47612042025803886,1714,1886,1,0.95,WHITE,WHITE,True,0,0.0015000005078036338,WHITE,True,CORRECT,0.7901190000011411,790.1190000011411
5,20260325_140546,D,J,False,AUTOMATION1,4,251,1551,fixed_delta,0.03841730837928436,0.012782208620853738,,,,,0.5251589935064013,1891,1709,1,0.95,BLACK,BLACK,True,0,0.0016000012692529708,BLACK,True,CORRECT,0.75595869999961,755.95869999961
5,20260325_140546,D,J,False,AUTOMATION1,4,252,1552,fixed_delta,0.03841730837928436,0.012782208620853738,,,,,0.46253366741455126,1665,1935,1,0.95,WHITE,WHITE,True,0,0.0015999976312741637,WHITE,True,CORRECT,0.709577999998146,709.577999998146
5,20260325_140546,D,J,False,AUTOMATION1,4,253,1553,fixed_delta,0.03841730837928436,0.012782208620853738,,,,,0.523652422504781,1885,1715,1,0.95,BLACK,BLACK,True,0,0.0015000005078036338,BLACK,True,CORRECT,0.7569956000006641,756.9956000006641
5,20260325_140546,D,J,False,AUTOMATION1,4,254,1554,fixed_delta,0.03841730837928436,0.012782208620853738,,,,,0.4384487100031033,1578,2022,1,0.95,WHITE,WHITE,True,0,0.0015000005078036338,WHITE,True,CORRECT,0.6550299000009545,655.0299000009545
5,20260325_140546,D,J,False,AUTOMATION1,4,255,1555,fixed_delta,0.03841730837928436,0.012782208620853738,,,,,0.479926489248553,1728,1872,1,0.95,WHITE,WHITE,True,0,0.0015000005078036338,WHITE,True,CORRECT,0.5921054999998887,592.1054999998887
5,20260325_140546,D,J,False,AUTOMATION1,4,256,1556,fixed_delta,0.03841730837928436,0.012782208620853738,,,,,0.5203566580660769,1873,1727,1,0.95,BLACK,BLACK,True,0,0.0015999976312741637,BLACK,True,CORRECT,0.933117199998378,933.117199998378
5,20260325_140546,D,J,False,AUTOMATION1,4,257,1557,fixed_delta,0.03841730837928436,0.012782208620853738,,,,,0.5394540143756327,1942,1658,1,0.95,BLACK,WHITE,False,0,0.0015999976312741637,BLACK,True,CORRECT,1.2715481999985059,1271.5481999985059
5,20260325_140546,D,J,False,AUTOMATION1,4,258,1558,fixed_delta,0.03841730837928436,0.012782208620853738,,,,,0.465517509396074,1676,1924,1,0.95,WHITE,WHITE,True,0,0.0012999989849049598,WHITE,True,CORRECT,0.9915065999994113,991.5065999994113
5,20260325_140546,D,J,False,AUTOMATION1,4,259,1559,fixed_delta,0.03841730837928436,0.012782208620853738,,,,,0.44833756974138567,1614,1986,1,0.95,WHITE,WHITE,True,0,0.0015999976312741637,WHITE,True,CORRECT,0.7625466999998025,762.5466999998025
5,20260325_140546,D,J,False,AUTOMATION1,4,260,1560,fixed_delta,0.03841730837928436,0.012782208620853738,,,,,0.45824111475091095,1650,1950,1,0.95,WHITE,WHITE,True,0,0.0016999983927235007,WHITE,True,CORRECT,0.9004798999994819,900.4798999994819
5,20260325_140546,D,J,False,AUTOMATION1,4,261,1561,fixed_delta,0.03841730837928436,0.012782208620853738,,,,,0.5407041159329751,1947,1653,1,0.95,BLACK,BLACK,True,0,0.0016999983927235007,BLACK,True,CORRECT,0.890835900001548,890.835900001548
5,20260325_140546,D,J,False,AUTOMATION1,4,262,1562,fixed_delta,0.03841730837928436,0.012782208620853738,,,,,0.4773686061822708,1719,1881,1,0.95,WHITE,WHITE,True,0,0.0015999976312741637,WHITE,True,CORRECT,0.6917794000000868,691.7794000000868
5,20260325_140546,D,J,False,AUTOMATION1,4,263,1563,fixed_delta,0.03841730837928436,0.012782208620853738,,,,,0.49342702598983684,1776,1824,1,0.95,WHITE,WHITE,True,0,0.0016000012692529708,WHITE,True,CORRECT,0.6647798000012699,664.7798000012699
5,20260325_140546,D,J,False,AUTOMATION1,4,264,1564,fixed_delta,0.03841730837928436,0.012782208620853738,,,,,0.5267945119782345,1896,1704,1,0.95,BLACK,BLACK,True,0,0.0014999968698248267,BLACK,True,CORRECT,0.7683952999977919,768.3952999977919
5,20260325_140546,D,J,False,AUTOMATION1,4,265,1565,fixed_delta,0.03841730837928436,0.012782208620853738,,,,,0.44214722507249193,1592,2008,1,0.95,WHITE,WHITE,True,0,0.0013999997463542968,WHITE,True,CORRECT,0.961153899999772,961.153899999772
5,20260325_140546,D,J,False,AUTOMATION1,4,266,1566,fixed_delta,0.03841730837928436,0.012782208620853738,,,,,0.5382965865110124,1938,1662,1,0.95,BLACK,BLACK,True,0,0.0015000005078036338,BLACK,True,CORRECT,0.7262654000005568,726.2654000005568
5,20260325_140546,D,J,False,AUTOMATION1,4,267,1567,fixed_delta,0.03841730837928436,0.012782208620853738,,,,,0.5289259123396303,1904,1696,1,0.95,BLACK,BLACK,True,0,0.0015000005078036338,BLACK,True,CORRECT,1.4624364000010246,1462.4364000010246
5,20260325_140546,D,J,False,AUTOMATION1,4,268,1568,fixed_delta,0.03841730837928436,0.012782208620853738,,,,,0.45535114488416756,1639,1961,1,0.95,WHITE,WHITE,True,0,0.0013999997463542968,WHITE,True,CORRECT,2.1686212999993586,2168.6212999993586
5,20260325_140546,D,J,False,AUTOMATION1,4,269,1569,fixed_delta,0.03841730837928436,0.012782208620853738,,,,,0.4443032825071688,1599,2001,1,0.95,WHITE,WHITE,True,0,0.0013999997463542968,WHITE,True,CORRECT,1.0815316000007442,1081.5316000007442
5,20260325_140546,D,J,False,AUTOMATION1,4,270,1570,fixed_delta,0.03841730837928436,0.012782208620853738,,,,,0.45779529462049345,1648,1952,1,0.95,WHITE,WHITE,True,0,0.0013000026228837669,WHITE,True,CORRECT,0.6483871000018553,648.3871000018553
5,20260325_140546,D,J,False,AUTOMATION1,4,271,1571,fixed_delta,0.03841730837928436,0.012782208620853738,,,,,0.4713985662715783,1697,1903,1,0.95,WHITE,WHITE,True,0,0.0013999997463542968,BLACK,False,INCORRECT,0.8417234000007738,841.7234000007738
5,20260325_140546,D,J,False,AUTOMATION1,4,272,1572,fixed_delta,0.03841730837928436,0.012782208620853738,,,,,0.5417095461149891,1950,1650,1,0.95,BLACK,BLACK,True,0,0.0018000027921516448,BLACK,True,CORRECT,0.8114172000023245,811.4172000023245
5,20260325_140546,D,J,False,AUTOMATION1,4,273,1573,fixed_delta,0.03841730837928436,0.012782208620853738,,,,,0.4452597758227653,1603,1997,1,0.95,WHITE,WHITE,True,0,0.0018999999156221747,WHITE,True,CORRECT,1.0783059999994293,1078.3059999994293
5,20260325_140546,D,J,False,AUTOMATION1,4,274,1574,fixed_delta,0.03841730837928436,0.012782208620853738,,,,,0.4773125710612521,1718,1882,1,0.95,WHITE,WHITE,True,0,0.0015000005078036338,WHITE,True,CORRECT,0.690988300000754,690.988300000754
5,20260325_140546,D,J,False,AUTOMATION1,4,275,1575,fixed_delta,0.03841730837928436,0.012782208620853738,,,,,0.4656325723946541,1676,1924,1,0.95,WHITE,WHITE,True,0,0.0014999968698248267,WHITE,True,CORRECT,0.7978198999990127,797.8198999990127
5,20260325_140546,D,J,False,AUTOMATION1,4,276,1576,fixed_delta,0.03841730837928436,0.012782208620853738,,,,,0.4493710143455713,1618,1982,1,0.95,WHITE,WHITE,True,0,0.0017000020307023078,WHITE,True,CORRECT,0.6041769000003114,604.1769000003114
5,20260325_140546,D,J,False,AUTOMATION1,4,277,1577,fixed_delta,0.03841730837928436,0.012782208620853738,,,,,0.5212677894984485,1877,1723,1,0.95,BLACK,BLACK,True,0,0.0020000006770715117,BLACK,True,CORRECT,0.8055469999999332,805.5469999999332
5,20260325_140546,D,J,False,AUTOMATION1,4,278,1578,fixed_delta,0.03841730837928436,0.012782208620853738,,,,,0.5116710093480167,1842,1758,1,0.95,BLACK,BLACK,True,0,0.0015000005078036338,WHITE,False,INCORRECT,1.0445479000009072,1044.5479000009072
5,20260325_140546,D,J,False,AUTOMATION1,4,279,1579,fixed_delta,0.03841730837928436,0.012782208620853738,,,,,0.4444457332722406,1600,2000,1,0.95,WHITE,WHITE,True,0,0.0012999989849049598,WHITE,True,CORRECT,0.6231714999994438,623.1714999994438
5,20260325_140546,D,J,False,AUTOMATION1,4,280,1580,fixed_delta,0.03841730837928436,0.012782208620853738,,,,,0.5582072002352414,2010,1590,1,0.95,BLACK,BLACK,True,0,0.0020999978005420417,BLACK,True,CORRECT,0.6665182999968238,666.5182999968238
5,20260325_140546,D,J,False,AUTOMATION1,4,281,1581,fixed_delta,0.03841730837928436,0.012782208620853738,,,,,0.4612467483930349,1660,1940,1,0.95,WHITE,WHITE,True,0,0.0016999983927235007,WHITE,True,CORRECT,1.284177699999418,1284.177699999418
5,20260325_140546,D,J,False,AUTOMATION1,4,282,1582,fixed_delta,0.03841730837928436,0.012782208620853738,,,,,0.5261137147566337,1894,1706,1,0.95,BLACK,BLACK,True,0,0.0018000027921516448,BLACK,True,CORRECT,0.8837846000024001,883.7846000024001
5,20260325_140546,D,J,False,AUTOMATION1,4,283,1583,fixed_delta,0.03841730837928436,0.012782208620853738,,,,,0.47343207389004244,1704,1896,1,0.95,WHITE,WHITE,True,0,0.0015000005078036338,WHITE,True,CORRECT,1.2648200000003271,1264.8200000003271
5,20260325_140546,D,J,False,AUTOMATION1,4,284,1584,fixed_delta,0.03841730837928436,0.012782208620853738,,,,,0.5405840181064727,1946,1654,1,0.95,BLACK,BLACK,True,0,0.0021000014385208488,BLACK,True,CORRECT,0.6306390999998257,630.6390999998257
5,20260325_140546,D,J,False,AUTOMATION1,4,285,1585,fixed_delta,0.03841730837928436,0.012782208620853738,,,,,0.5444636970365143,1960,1640,1,0.95,BLACK,BLACK,True,0,0.0016000012692529708,BLACK,True,CORRECT,0.7804137999992236,780.4137999992236
5,20260325_140546,D,J,False,AUTOMATION1,4,286,1586,fixed_delta,0.03841730837928436,0.012782208620853738,,,,,0.4575248926642058,1647,1953,1,0.95,WHITE,WHITE,True,0,0.0016000012692529708,BLACK,False,INCORRECT,0.5978180000020075,597.8180000020075
5,20260325_140546,D,J,False,AUTOMATION1,4,287,1587,fixed_delta,0.03841730837928436,0.012782208620853738,,,,,0.4554491381684087,1640,1960,1,0.95,WHITE,WHITE,True,0,0.0015000005078036338,WHITE,True,CORRECT,0.8906917999993311,890.6917999993311
5,20260325_140546,D,J,False,AUTOMATION1,4,288,1588,fixed_delta,0.03841730837928436,0.012782208620853738,,,,,0.48194882908795467,1735,1865,1,0.95,WHITE,WHITE,True,0,0.0021000014385208488,WHITE,True,CORRECT,1.1729865000015707,1172.9865000015707
5,20260325_140546,D,J,False,AUTOMATION1,4,289,1589,fixed_delta,0.03841730837928436,0.012782208620853738,,,,,0.552822802392926,1990,1610,1,0.95,BLACK,BLACK,True,0,0.0013999997463542968,BLACK,True,CORRECT,3.573509899997589,3573.509899997589
5,20260325_140546,D,J,False,AUTOMATION1,4,290,1590,fixed_delta,0.03841730837928436,0.012782208620853738,,,,,0.4541235176801793,1635,1965,1,0.95,WHITE,WHITE,True,0,0.0018000027921516448,WHITE,True,CORRECT,1.0371831000011298,1037.1831000011298
5,20260325_140546,D,J,False,AUTOMATION1,4,291,1591,fixed_delta,0.03841730837928436,0.012782208620853738,,,,,0.537829006851585,1936,1664,1,0.95,BLACK,BLACK,True,0,0.0018000027921516448,BLACK,True,CORRECT,0.7887485000028391,788.7485000028391
5,20260325_140546,D,J,False,AUTOMATION1,4,292,1592,fixed_delta,0.03841730837928436,0.012782208620853738,,,,,0.4625824053921234,1665,1935,1,0.95,WHITE,WHITE,True,0,0.0016000012692529708,BLACK,False,INCORRECT,2.3290875000020606,2329.0875000020606
5,20260325_140546,D,J,False,AUTOMATION1,4,293,1593,fixed_delta,0.03841730837928436,0.012782208620853738,,,,,0.5218765128857168,1879,1721,1,0.95,BLACK,BLACK,True,0,0.0013999997463542968,BLACK,True,CORRECT,0.7259984000011173,725.9984000011173
5,20260325_140546,D,J,False,AUTOMATION1,4,294,1594,fixed_delta,0.03841730837928436,0.012782208620853738,,,,,0.5219145804203553,1879,1721,1,0.95,BLACK,BLACK,True,0,0.0015000005078036338,BLACK,True,CORRECT,0.8498070999994525,849.8070999994525
5,20260325_140546,D,J,False,AUTOMATION1,4,295,1595,fixed_delta,0.03841730837928436,0.012782208620853738,,,,,0.4613769608611971,1661,1939,1,0.95,WHITE,WHITE,True,0,0.0015000005078036338,WHITE,True,CORRECT,0.647426200001064,647.426200001064
5,20260325_140546,D,J,False,AUTOMATION1,4,296,1596,fixed_delta,0.03841730837928436,0.012782208620853738,,,,,0.534133725900895,1923,1677,1,0.95,BLACK,BLACK,True,0,0.0015000005078036338,WHITE,False,INCORRECT,2.1554204000021855,2155.4204000021855
5,20260325_140546,D,J,False,AUTOMATION1,4,297,1597,fixed_delta,0.03841730837928436,0.012782208620853738,,,,,0.4707673364494815,1695,1905,1,0.95,WHITE,WHITE,True,0,0.0016999983927235007,WHITE,True,CORRECT,0.6286550000004354,628.6550000004354
5,20260325_140546,D,J,False,AUTOMATION1,4,298,1598,fixed_delta,0.03841730837928436,0.012782208620853738,,,,,0.5566800354703583,2004,1596,1,0.95,BLACK,BLACK,True,0,0.0015000005078036338,BLACK,True,CORRECT,1.096324000001914,1096.324000001914
5,20260325_140546,D,J,False,AUTOMATION1,4,299,1599,fixed_delta,0.03841730837928436,0.012782208620853738,,,,,0.45568021146104926,1640,1960,1,0.95,WHITE,WHITE,True,0,0.0013999997463542968,WHITE,True,CORRECT,0.8245630999990681,824.5630999990681
5,20260325_140546,D,J,False,AUTOMATION1,4,300,1600,fixed_delta,0.03841730837928436,0.012782208620853738,,,,,0.5371593991860591,1934,1666,1,0.95,BLACK,BLACK,True,0,0.0017999991541728377,BLACK,True,CORRECT,0.7299161000009917,729.9161000009917
5,20260325_140546,D,J,False,AUTOMATION1,4,301,1601,fixed_delta,0.03841730837928436,0.012782208620853738,,,,,0.487585563858726,1755,1845,1,0.95,WHITE,WHITE,True,0,0.0016000012692529708,WHITE,True,CORRECT,0.9475931000015407,947.5931000015407
5,20260325_140546,D,J,False,AUTOMATION1,4,302,1602,fixed_delta,0.03841730837928436,0.012782208620853738,,,,,0.45560599222483245,1640,1960,1,0.95,WHITE,WHITE,True,0,0.0015000005078036338,WHITE,True,CORRECT,0.6986170999989554,698.6170999989554
5,20260325_140546,D,J,False,AUTOMATION1,4,303,1603,fixed_delta,0.03841730837928436,0.012782208620853738,,,,,0.5542325148559966,1995,1605,1,0.95,BLACK,BLACK,True,0,0.0015999976312741637,BLACK,True,CORRECT,1.2028023999992001,1202.8023999992001
5,20260325_140546,D,J,False,AUTOMATION1,4,304,1604,fixed_delta,0.03841730837928436,0.012782208620853738,,,,,0.45878346115807195,1652,1948,1,0.95,WHITE,WHITE,True,0,0.0013999997463542968,WHITE,True,CORRECT,0.8137596000015037,813.7596000015037
5,20260325_140546,D,J,False,AUTOMATION1,4,305,1605,fixed_delta,0.03841730837928436,0.012782208620853738,,,,,0.5364646570915943,1931,1669,1,0.95,BLACK,BLACK,True,0,0.0015000005078036338,BLACK,True,CORRECT,1.665393799998128,1665.393799998128
5,20260325_140546,D,J,False,AUTOMATION1,4,306,1606,fixed_delta,0.03841730837928436,0.012782208620853738,,,,,0.44642240253306587,1607,1993,1,0.95,WHITE,WHITE,True,0,0.0017999991541728377,WHITE,True,CORRECT,0.9713765000014973,971.3765000014973
5,20260325_140546,D,J,False,AUTOMATION1,4,307,1607,fixed_delta,0.03841730837928436,0.012782208620853738,,,,,0.4750541432356178,1710,1890,1,0.95,WHITE,WHITE,True,0,0.0015000005078036338,WHITE,True,CORRECT,0.9270004000027257,927.0004000027257
5,20260325_140546,D,J,False,AUTOMATION1,4,308,1608,fixed_delta,0.03841730837928436,0.012782208620853738,,,,,0.4695772689174084,1690,1910,1,0.95,WHITE,WHITE,True,0,0.0017999991541728377,WHITE,True,CORRECT,1.0182593999998062,1018.2593999998062
5,20260325_140546,D,J,False,AUTOMATION1,4,309,1609,fixed_delta,0.03841730837928436,0.012782208620853738,,,,,0.45203063967383417,1627,1973,1,0.95,WHITE,WHITE,True,0,0.0015999976312741637,WHITE,True,CORRECT,1.0429299999996147,1042.9299999996147
5,20260325_140546,D,J,False,AUTOMATION1,4,310,1610,fixed_delta,0.03841730837928436,0.012782208620853738,,,,,0.4741744499439937,1707,1893,1,0.95,WHITE,WHITE,True,0,0.0017000020307023078,WHITE,True,CORRECT,0.7255654000000504,725.5654000000504
5,20260325_140546,D,J,False,AUTOMATION1,4,311,1611,fixed_delta,0.03841730837928436,0.012782208620853738,,,,,0.48958441829730054,1763,1837,1,0.95,WHITE,WHITE,True,0,0.0018999999156221747,WHITE,True,CORRECT,1.0766657999993186,1076.6657999993186
5,20260325_140546,D,J,False,AUTOMATION1,4,312,1612,fixed_delta,0.03841730837928436,0.012782208620853738,,,,,0.4429134155910392,1594,2006,1,0.95,WHITE,WHITE,True,0,0.0017000020307023078,WHITE,True,CORRECT,0.5910982000023068,591.0982000023068
5,20260325_140546,D,J,False,AUTOMATION1,4,313,1613,fixed_delta,0.03841730837928436,0.012782208620853738,,,,,0.5451572737888462,1963,1637,1,0.95,BLACK,BLACK,True,0,0.0018999999156221747,BLACK,True,CORRECT,0.7785722999979043,778.5722999979043
5,20260325_140546,D,J,False,AUTOMATION1,4,314,1614,fixed_delta,0.03841730837928436,0.012782208620853738,,,,,0.5214063665569253,1877,1723,1,0.95,BLACK,BLACK,True,0,0.0015999976312741637,BLACK,True,CORRECT,1.0790970999987621,1079.0970999987621
5,20260325_140546,D,J,False,AUTOMATION1,4,315,1615,fixed_delta,0.03841730837928436,0.012782208620853738,,,,,0.4585965069282134,1651,1949,1,0.95,WHITE,WHITE,True,0,0.0015999976312741637,WHITE,True,CORRECT,0.705918899999233,705.918899999233
5,20260325_140546,D,J,False,AUTOMATION1,4,316,1616,fixed_delta,0.03841730837928436,0.012782208620853738,,,,,0.4555921044595005,1640,1960,1,0.95,WHITE,WHITE,True,0,0.0020000006770715117,WHITE,True,CORRECT,0.697104800001398,697.104800001398
5,20260325_140546,D,J,False,AUTOMATION1,4,317,1617,fixed_delta,0.03841730837928436,0.012782208620853738,,,,,0.5308885029459257,1911,1689,1,0.95,BLACK,BLACK,True,0,0.0016999983927235007,BLACK,True,CORRECT,0.8309644000000844,830.9644000000844
5,20260325_140546,D,J,False,AUTOMATION1,4,318,1618,fixed_delta,0.03841730837928436,0.012782208620853738,,,,,0.5366583777178756,1932,1668,1,0.95,BLACK,BLACK,True,0,0.0020000006770715117,BLACK,True,CORRECT,2.0270129999989877,2027.0129999989877
5,20260325_140546,D,J,False,AUTOMATION1,4,319,1619,fixed_delta,0.03841730837928436,0.012782208620853738,,,,,0.5476232056370959,1971,1629,1,0.95,BLACK,BLACK,True,0,0.0018000027921516448,WHITE,False,INCORRECT,1.2373542000023008,1237.3542000023008
5,20260325_140546,D,J,False,AUTOMATION1,4,320,1620,fixed_delta,0.03841730837928436,0.012782208620853738,,,,,0.4439037317747264,1598,2002,1,0.95,WHITE,WHITE,True,0,0.0015000005078036338,WHITE,True,CORRECT,0.6490015999988827,649.0015999988827
5,20260325_140546,D,J,False,AUTOMATION1,4,321,1621,fixed_delta,0.03841730837928436,0.012782208620853738,,,,,0.5243599259834741,1888,1712,1,0.95,BLACK,WHITE,False,0,0.0015000005078036338,BLACK,True,CORRECT,0.9435670999991999,943.5670999991999
5,20260325_140546,D,J,False,AUTOMATION1,4,322,1622,fixed_delta,0.03841730837928436,0.012782208620853738,,,,,0.44377077953966365,1598,2002,1,0.95,WHITE,WHITE,True,0,0.0017999991541728377,WHITE,True,CORRECT,0.777794300000096,777.794300000096
5,20260325_140546,D,J,False,AUTOMATION1,4,323,1623,fixed_delta,0.03841730837928436,0.012782208620853738,,,,,0.45538757593569257,1639,1961,1,0.95,WHITE,WHITE,True,0,0.0016000012692529708,WHITE,True,CORRECT,0.942333700000745,942.333700000745
5,20260325_140546,D,J,False,AUTOMATION1,4,324,1624,fixed_delta,0.03841730837928436,0.012782208620853738,,,,,0.46537701057112685,1675,1925,1,0.95,WHITE,WHITE,True,0,0.0015000005078036338,WHITE,True,CORRECT,0.8378128999975161,837.8128999975161
5,20260325_140546,D,J,False,AUTOMATION1,4,325,1625,fixed_delta,0.03841730837928436,0.012782208620853738,,,,,0.551939468794484,1987,1613,1,0.95,BLACK,BLACK,True,0,0.0013999997463542968,BLACK,True,CORRECT,1.2523382999970636,1252.3382999970636
5,20260325_140546,D,J,False,AUTOMATION1,4,326,1626,fixed_delta,0.03841730837928436,0.012782208620853738,,,,,0.4763964741112295,1715,1885,1,0.95,WHITE,WHITE,True,0,0.0015000005078036338,BLACK,False,INCORRECT,0.9677372000005562,967.7372000005562
5,20260325_140546,D,J,False,AUTOMATION1,4,327,1627,fixed_delta,0.03841730837928436,0.012782208620853738,,,,,0.454925338228209,1638,1962,1,0.95,WHITE,WHITE,True,0,0.0020000006770715117,WHITE,True,CORRECT,0.614351500000339,614.351500000339
5,20260325_140546,D,J,False,AUTOMATION1,4,328,1628,fixed_delta,0.03841730837928436,0.012782208620853738,,,,,0.5336020204853275,1921,1679,1,0.95,BLACK,BLACK,True,0,0.0014999968698248267,BLACK,True,CORRECT,1.2885784999998577,1288.5784999998577
5,20260325_140546,D,J,False,AUTOMATION1,4,329,1629,fixed_delta,0.03841730837928436,0.012782208620853738,,,,,0.47704064457777945,1717,1883,1,0.95,WHITE,WHITE,True,0,0.0020000006770715117,WHITE,True,CORRECT,0.7888309999980265,788.8309999980265
5,20260325_140546,D,J,False,AUTOMATION1,4,330,1630,fixed_delta,0.03841730837928436,0.012782208620853738,,,,,0.5272998556735998,1898,1702,1,0.95,BLACK,BLACK,True,0,0.0013999997463542968,BLACK,True,CORRECT,1.8873957999967388,1887.3957999967388
5,20260325_140546,D,J,False,AUTOMATION1,4,331,1631,fixed_delta,0.03841730837928436,0.012782208620853738,,,,,0.4556878182817259,1640,1960,1,0.95,WHITE,WHITE,True,0,0.0018999999156221747,BLACK,False,INCORRECT,2.6358201000002737,2635.8201000002737
5,20260325_140546,D,J,False,AUTOMATION1,4,332,1632,fixed_delta,0.03841730837928436,0.012782208620853738,,,,,0.45923707343034187,1653,1947,1,0.95,WHITE,WHITE,True,0,0.0016000012692529708,WHITE,True,CORRECT,0.874284000001353,874.284000001353
5,20260325_140546,D,J,False,AUTOMATION1,4,333,1633,fixed_delta,0.03841730837928436,0.012782208620853738,,,,,0.5430739273117339,1955,1645,1,0.95,BLACK,BLACK,True,0,0.0018999999156221747,BLACK,True,CORRECT,0.8311604000009538,831.1604000009538
5,20260325_140546,D,J,False,AUTOMATION1,4,334,1634,fixed_delta,0.03841730837928436,0.012782208620853738,,,,,0.4633394977178884,1668,1932,1,0.95,WHITE,WHITE,True,0,0.0016999983927235007,WHITE,True,CORRECT,0.8709740000012971,870.9740000012971
5,20260325_140546,D,J,False,AUTOMATION1,4,335,1635,fixed_delta,0.03841730837928436,0.012782208620853738,,,,,0.5218840476540506,1879,1721,1,0.95,BLACK,BLACK,True,0,0.0016000012692529708,BLACK,True,CORRECT,1.008786800000962,1008.7868000009621
5,20260325_140546,D,J,False,AUTOMATION1,4,336,1636,fixed_delta,0.03841730837928436,0.012782208620853738,,,,,0.5531008379249417,1991,1609,1,0.95,BLACK,BLACK,True,0,0.0016000012692529708,BLACK,True,CORRECT,0.70342779999919,703.42779999919
5,20260325_140546,D,J,False,AUTOMATION1,4,337,1637,fixed_delta,0.03841730837928436,0.012782208620853738,,,,,0.5576022180070258,2007,1593,1,0.95,BLACK,BLACK,True,0,0.0016999983927235007,BLACK,True,CORRECT,1.3486814999996568,1348.6814999996568
5,20260325_140546,D,J,False,AUTOMATION1,4,338,1638,fixed_delta,0.03841730837928436,0.012782208620853738,,,,,0.45301412372554606,1631,1969,1,0.95,WHITE,WHITE,True,0,0.0013999997463542968,WHITE,True,CORRECT,0.9072841999986849,907.2841999986849
5,20260325_140546,D,J,False,AUTOMATION1,4,339,1639,fixed_delta,0.03841730837928436,0.012782208620853738,,,,,0.46600043259353036,1678,1922,1,0.95,WHITE,WHITE,True,0,0.0017000020307023078,WHITE,True,CORRECT,0.7138096000016958,713.8096000016958
5,20260325_140546,D,J,False,AUTOMATION1,4,340,1640,fixed_delta,0.03841730837928436,0.012782208620853738,,,,,0.45624663730980497,1642,1958,1,0.95,WHITE,WHITE,True,0,0.0013999997463542968,WHITE,True,CORRECT,0.7103719999977329,710.3719999977329
5,20260325_140546,D,J,False,AUTOMATION1,4,341,1641,fixed_delta,0.03841730837928436,0.012782208620853738,,,,,0.534028655264192,1923,1677,1,0.95,BLACK,BLACK,True,0,0.0015999976312741637,BLACK,True,CORRECT,3.4104574999983015,3410.4574999983015
5,20260325_140546,D,J,False,AUTOMATION1,4,342,1642,fixed_delta,0.03841730837928436,0.012782208620853738,,,,,0.5339405082922937,1922,1678,1,0.95,BLACK,BLACK,True,0,0.0016000012692529708,BLACK,True,CORRECT,1.4919264999989537,1491.9264999989537
5,20260325_140546,D,J,False,AUTOMATION1,4,343,1643,fixed_delta,0.03841730837928436,0.012782208620853738,,,,,0.5343001565050781,1923,1677,1,0.95,BLACK,BLACK,True,0,0.0013999997463542968,BLACK,True,CORRECT,1.169645900001342,1169.645900001342
5,20260325_140546,D,J,False,AUTOMATION1,4,344,1644,fixed_delta,0.03841730837928436,0.012782208620853738,,,,,0.5256510899518709,1892,1708,1,0.95,BLACK,BLACK,True,0,0.0017000020307023078,WHITE,False,INCORRECT,0.8401116999993974,840.1116999993974
5,20260325_140546,D,J,False,AUTOMATION1,4,345,1645,fixed_delta,0.03841730837928436,0.012782208620853738,,,,,0.5516570881849199,1986,1614,1,0.95,BLACK,BLACK,True,0,0.0015000005078036338,BLACK,True,CORRECT,0.7709675999976753,770.9675999976753
5,20260325_140546,D,J,False,AUTOMATION1,4,346,1646,fixed_delta,0.03841730837928436,0.012782208620853738,,,,,0.46483190571459876,1673,1927,1,0.95,WHITE,WHITE,True,0,0.0016000012692529708,WHITE,True,CORRECT,0.8306525000007241,830.6525000007241
5,20260325_140546,D,J,False,AUTOMATION1,4,347,1647,fixed_delta,0.03841730837928436,0.012782208620853738,,,,,0.5251615663524326,1891,1709,1,0.95,BLACK,BLACK,True,0,0.0017999991541728377,WHITE,False,INCORRECT,1.3312674999979208,1331.2674999979208
5,20260325_140546,D,J,False,AUTOMATION1,4,348,1648,fixed_delta,0.03841730837928436,0.012782208620853738,,,,,0.537356289867839,1934,1666,1,0.95,BLACK,BLACK,True,0,0.0019999970390927047,WHITE,False,INCORRECT,0.9179353999970772,917.9353999970772
5,20260325_140546,D,J,False,AUTOMATION1,4,349,1649,fixed_delta,0.03841730837928436,0.012782208620853738,,,,,0.5425963862204152,1953,1647,1,0.95,BLACK,BLACK,True,0,0.001400003384333104,BLACK,True,CORRECT,0.8248065000007045,824.8065000007045
5,20260325_140546,D,J,False,AUTOMATION1,4,350,1650,fixed_delta,0.03841730837928436,0.012782208620853738,,,,,0.5406622975629233,1946,1654,1,0.95,BLACK,BLACK,True,0,0.0017999991541728377,BLACK,True,CORRECT,0.6589691000008315,658.9691000008315
5,20260325_140546,D,J,False,AUTOMATION1,4,351,1651,fixed_delta,0.03841730837928436,0.012782208620853738,,,,,0.5184358562549639,1866,1734,1,0.95,BLACK,BLACK,True,0,0.0016000012692529708,WHITE,False,INCORRECT,2.7255125000010594,2725.5125000010594
5,20260325_140546,D,J,False,AUTOMATION1,4,352,1652,fixed_delta,0.03841730837928436,0.012782208620853738,,,,,0.5332685284373381,1920,1680,1,0.95,BLACK,WHITE,False,0,0.0018999999156221747,BLACK,True,CORRECT,1.1244533999997657,1124.4533999997657
5,20260325_140546,D,J,False,AUTOMATION1,4,353,1653,fixed_delta,0.03841730837928436,0.012782208620853738,,,,,0.5504747072116575,1982,1618,1,0.95,BLACK,WHITE,False,0,0.0013999997463542968,BLACK,True,CORRECT,0.709362699999474,709.362699999474
5,20260325_140546,D,J,False,AUTOMATION1,4,354,1654,fixed_delta,0.03841730837928436,0.012782208620853738,,,,,0.45391657989876416,1634,1966,1,0.95,WHITE,WHITE,True,0,0.0015000005078036338,WHITE,True,CORRECT,0.7907820000000356,790.7820000000356
5,20260325_140546,D,J,False,AUTOMATION1,4,355,1655,fixed_delta,0.03841730837928436,0.012782208620853738,,,,,0.47904606865869326,1725,1875,1,0.95,WHITE,WHITE,True,0,0.0015999976312741637,WHITE,True,CORRECT,0.8490889999993669,849.0889999993669
5,20260325_140546,D,J,False,AUTOMATION1,4,356,1656,fixed_delta,0.03841730837928436,0.012782208620853738,,,,,0.4561856408129425,1642,1958,1,0.95,WHITE,WHITE,True,0,0.0013999997463542968,WHITE,True,CORRECT,0.8010098000013386,801.0098000013386
5,20260325_140546,D,J,False,AUTOMATION1,4,357,1657,fixed_delta,0.03841730837928436,0.012782208620853738,,,,,0.45497715294526625,1638,1962,1,0.95,WHITE,WHITE,True,0,0.001400003384333104,WHITE,True,CORRECT,1.083950400003232,1083.950400003232
5,20260325_140546,D,J,False,AUTOMATION1,4,358,1658,fixed_delta,0.03841730837928436,0.012782208620853738,,,,,0.4494000405960406,1618,1982,1,0.95,WHITE,WHITE,True,0,0.0016999983927235007,WHITE,True,CORRECT,0.6157538999977987,615.7538999977987
5,20260325_140546,D,J,False,AUTOMATION1,4,359,1659,fixed_delta,0.03841730837928436,0.012782208620853738,,,,,0.5773264619022384,2078,1522,1,0.95,BLACK,BLACK,True,0,0.0015000005078036338,BLACK,True,CORRECT,0.6373204000010446,637.3204000010446
5,20260325_140546,D,J,False,AUTOMATION1,4,360,1660,fixed_delta,0.03841730837928436,0.012782208620853738,,,,,0.471762099303349,1698,1902,1,0.95,WHITE,WHITE,True,0,0.0013999997463542968,WHITE,True,CORRECT,1.0134729000019433,1013.4729000019433
5,20260325_140546,D,J,False,AUTOMATION1,4,361,1661,fixed_delta,0.03841730837928436,0.012782208620853738,,,,,0.4375090749478331,1575,2025,1,0.95,WHITE,WHITE,True,0,0.0021000014385208488,WHITE,True,CORRECT,0.8033265000012761,803.3265000012761
5,20260325_140546,D,J,False,AUTOMATION1,4,362,1662,fixed_delta,0.03841730837928436,0.012782208620853738,,,,,0.5266524907109429,1896,1704,1,0.95,BLACK,BLACK,True,0,0.0016000012692529708,BLACK,True,CORRECT,0.7682368000023416,768.2368000023416
5,20260325_140546,D,J,False,AUTOMATION1,4,363,1663,fixed_delta,0.03841730837928436,0.012782208620853738,,,,,0.5081492707066165,1829,1771,1,0.95,BLACK,BLACK,True,0,0.0012999989849049598,WHITE,False,INCORRECT,1.227153100000578,1227.153100000578
5,20260325_140546,D,J,False,AUTOMATION1,4,364,1664,fixed_delta,0.03841730837928436,0.012782208620853738,,,,,0.46201667404632435,1663,1937,1,0.95,WHITE,WHITE,True,0,0.0015000005078036338,WHITE,True,CORRECT,0.749662400001398,749.662400001398
5,20260325_140546,D,J,False,AUTOMATION1,4,365,1665,fixed_delta,0.03841730837928436,0.012782208620853738,,,,,0.5165886158398114,1860,1740,1,0.95,BLACK,BLACK,True,0,0.0015000005078036338,BLACK,True,CORRECT,0.9459416999998211,945.9416999998211
5,20260325_140546,D,J,False,AUTOMATION1,4,366,1666,fixed_delta,0.03841730837928436,0.012782208620853738,,,,,0.5428062785252783,1954,1646,1,0.95,BLACK,BLACK,True,0,0.0016000012692529708,BLACK,True,CORRECT,1.4167942000021867,1416.7942000021867
5,20260325_140546,D,J,False,AUTOMATION1,4,367,1667,fixed_delta,0.03841730837928436,0.012782208620853738,,,,,0.5443986856762786,1960,1640,1,0.95,BLACK,BLACK,True,0,0.0018999999156221747,BLACK,True,CORRECT,0.6310979000008956,631.0979000008956
5,20260325_140546,D,J,False,AUTOMATION1,4,368,1668,fixed_delta,0.03841730837928436,0.012782208620853738,,,,,0.457900326472965,1648,1952,1,0.95,WHITE,WHITE,True,0,0.0018999999156221747,WHITE,True,CORRECT,0.6907996999980242,690.7996999980242
5,20260325_140546,D,J,False,AUTOMATION1,4,369,1669,fixed_delta,0.03841730837928436,0.012782208620853738,,,,,0.5309189612000408,1911,1689,1,0.95,BLACK,BLACK,True,0,0.0016000012692529708,BLACK,True,CORRECT,1.8580400999999256,1858.0400999999256
5,20260325_140546,D,J,False,AUTOMATION1,4,370,1670,fixed_delta,0.03841730837928436,0.012782208620853738,,,,,0.46336209846546234,1668,1932,1,0.95,WHITE,WHITE,True,0,0.0015000005078036338,WHITE,True,CORRECT,1.1564972000014677,1156.4972000014677
5,20260325_140546,D,J,False,AUTOMATION1,4,371,1671,fixed_delta,0.03841730837928436,0.012782208620853738,,,,,0.5312378601402873,1912,1688,1,0.95,BLACK,BLACK,True,0,0.0013999997463542968,BLACK,True,CORRECT,1.0978316000000632,1097.8316000000632
5,20260325_140546,D,J,False,AUTOMATION1,4,372,1672,fixed_delta,0.03841730837928436,0.012782208620853738,,,,,0.5381374243616855,1937,1663,1,0.95,BLACK,BLACK,True,0,0.0015999976312741637,WHITE,False,INCORRECT,0.956484599999385,956.484599999385
5,20260325_140546,D,J,False,AUTOMATION1,4,373,1673,fixed_delta,0.03841730837928436,0.012782208620853738,,,,,0.4704493780404982,1694,1906,1,0.95,WHITE,WHITE,True,0,0.0018999999156221747,WHITE,True,CORRECT,0.7977812999997695,797.7812999997695
5,20260325_140546,D,J,False,AUTOMATION1,4,374,1674,fixed_delta,0.03841730837928436,0.012782208620853738,,,,,0.5297837982302215,1907,1693,1,0.95,BLACK,BLACK,True,0,0.0017999991541728377,BLACK,True,CORRECT,1.7476052999991225,1747.6052999991225
5,20260325_140546,D,J,False,AUTOMATION1,4,375,1675,fixed_delta,0.03841730837928436,0.012782208620853738,,,,,0.46480022907874163,1673,1927,1,0.95,WHITE,WHITE,True,0,0.0012999989849049598,WHITE,True,CORRECT,1.013258599999972,1013.2585999999719
5,20260325_140546,D,J,False,AUTOMATION1,4,376,1676,fixed_delta,0.03841730837928436,0.012782208620853738,,,,,0.5113220832690009,1841,1759,1,0.95,BLACK,BLACK,True,0,0.0015000005078036338,WHITE,False,INCORRECT,0.809005300001445,809.005300001445
5,20260325_140546,D,J,False,AUTOMATION1,4,377,1677,fixed_delta,0.03841730837928436,0.012782208620853738,,,,,0.5304434033007335,1910,1690,1,0.95,BLACK,BLACK,True,0,0.0013999997463542968,WHITE,False,INCORRECT,0.7540827000011632,754.0827000011632
5,20260325_140546,D,J,False,AUTOMATION1,4,378,1678,fixed_delta,0.03841730837928436,0.012782208620853738,,,,,0.45446782411661957,1636,1964,1,0.95,WHITE,WHITE,True,0,0.0017000020307023078,WHITE,True,CORRECT,0.7998611000002711,799.8611000002711
5,20260325_140546,D,J,False,AUTOMATION1,4,379,1679,fixed_delta,0.03841730837928436,0.012782208620853738,,,,,0.484500664130973,1744,1856,1,0.95,WHITE,WHITE,True,0,0.0015000005078036338,WHITE,True,CORRECT,2.825455800000782,2825.455800000782
5,20260325_140546,D,J,False,AUTOMATION1,4,380,1680,fixed_delta,0.03841730837928436,0.012782208620853738,,,,,0.4735505624105698,1705,1895,1,0.95,WHITE,WHITE,True,0,0.0016000012692529708,WHITE,True,CORRECT,0.8063318999993498,806.3318999993498
5,20260325_140546,D,J,False,AUTOMATION1,4,381,1681,fixed_delta,0.03841730837928436,0.012782208620853738,,,,,0.5050512631522871,1818,1782,1,0.95,BLACK,BLACK,True,0,0.0016000012692529708,BLACK,True,CORRECT,2.3509111999992456,2350.9111999992456
5,20260325_140546,D,J,False,AUTOMATION1,4,382,1682,fixed_delta,0.03841730837928436,0.012782208620853738,,,,,0.47831243961651976,1722,1878,1,0.95,WHITE,WHITE,True,0,0.0016000012692529708,WHITE,True,CORRECT,0.8272389000012481,827.2389000012481
5,20260325_140546,D,J,False,AUTOMATION1,4,383,1683,fixed_delta,0.03841730837928436,0.012782208620853738,,,,,0.5581264550019344,2009,1591,1,0.95,BLACK,BLACK,True,0,0.0017999991541728377,BLACK,True,CORRECT,0.5667329999996582,566.7329999996582
5,20260325_140546,D,J,False,AUTOMATION1,4,384,1684,fixed_delta,0.03841730837928436,0.012782208620853738,,,,,0.5392557253009909,1941,1659,1,0.95,BLACK,BLACK,True,0,0.0013999997463542968,BLACK,True,CORRECT,2.552270000000135,2552.270000000135
5,20260325_140546,D,J,False,AUTOMATION1,4,385,1685,fixed_delta,0.03841730837928436,0.012782208620853738,,,,,0.4639740928026347,1670,1930,1,0.95,WHITE,WHITE,True,0,0.0013999997463542968,WHITE,True,CORRECT,0.7498029999987921,749.8029999987921
5,20260325_140546,D,J,False,AUTOMATION1,4,386,1686,fixed_delta,0.03841730837928436,0.012782208620853738,,,,,0.5532737418703063,1992,1608,1,0.95,BLACK,BLACK,True,0,0.0013999997463542968,BLACK,True,CORRECT,1.1573070000013104,1157.3070000013104
5,20260325_140546,D,J,False,AUTOMATION1,4,387,1687,fixed_delta,0.03841730837928436,0.012782208620853738,,,,,0.5271888622739638,1898,1702,1,0.95,BLACK,BLACK,True,0,0.0013999997463542968,BLACK,True,CORRECT,1.0963445999987016,1096.3445999987016
5,20260325_140546,D,J,False,AUTOMATION1,4,388,1688,fixed_delta,0.03841730837928436,0.012782208620853738,,,,,0.48905259696602343,1761,1839,1,0.95,WHITE,WHITE,True,0,0.0015000005078036338,WHITE,True,CORRECT,1.0296044000024267,1029.6044000024267
5,20260325_140546,D,J,False,AUTOMATION1,4,389,1689,fixed_delta,0.03841730837928436,0.012782208620853738,,,,,0.4558748507083248,1641,1959,1,0.95,WHITE,BLACK,False,0,0.0020000006770715117,WHITE,True,CORRECT,0.6782883000014408,678.2883000014408
5,20260325_140546,D,J,False,AUTOMATION1,4,390,1690,fixed_delta,0.03841730837928436,0.012782208620853738,,,,,0.5249964357066439,1890,1710,1,0.95,BLACK,BLACK,True,0,0.0018999999156221747,WHITE,False,INCORRECT,1.2941959999989194,1294.1959999989194
5,20260325_140546,D,J,False,AUTOMATION1,4,391,1691,fixed_delta,0.03841730837928436,0.012782208620853738,,,,,0.4612639822469254,1661,1939,1,0.95,WHITE,WHITE,True,0,0.0017000020307023078,WHITE,True,CORRECT,0.7116268999998283,711.6268999998283
5,20260325_140546,D,J,False,AUTOMATION1,4,392,1692,fixed_delta,0.03841730837928436,0.012782208620853738,,,,,0.4715185526979859,1697,1903,1,0.95,WHITE,WHITE,True,0,0.0013999997463542968,WHITE,True,CORRECT,0.6230379000007815,623.0379000007815
5,20260325_140546,D,J,False,AUTOMATION1,4,393,1693,fixed_delta,0.03841730837928436,0.012782208620853738,,,,,0.4581551582564852,1649,1951,1,0.95,WHITE,BLACK,False,0,0.0016000012692529708,WHITE,True,CORRECT,0.728379500000301,728.379500000301
5,20260325_140546,D,J,False,AUTOMATION1,4,394,1694,fixed_delta,0.03841730837928436,0.012782208620853738,,,,,0.5144579523046535,1852,1748,1,0.95,BLACK,BLACK,True,0,0.0015000005078036338,BLACK,True,CORRECT,1.2629206000019622,1262.9206000019622
5,20260325_140546,D,J,False,AUTOMATION1,4,395,1695,fixed_delta,0.03841730837928436,0.012782208620853738,,,,,0.4674022286739676,1683,1917,1,0.95,WHITE,WHITE,True,0,0.0012999989849049598,WHITE,True,CORRECT,0.6817292999985511,681.7292999985511
5,20260325_140546,D,J,False,AUTOMATION1,4,396,1696,fixed_delta,0.03841730837928436,0.012782208620853738,,,,,0.4538110091173174,1634,1966,1,0.95,WHITE,WHITE,True,0,0.0015000005078036338,WHITE,True,CORRECT,0.6539908999984618,653.9908999984618
5,20260325_140546,D,J,False,AUTOMATION1,4,397,1697,fixed_delta,0.03841730837928436,0.012782208620853738,,,,,0.5496096490939834,1979,1621,1,0.95,BLACK,BLACK,True,0,0.0016999983927235007,BLACK,True,CORRECT,0.9622157999983756,962.2157999983756
5,20260325_140546,D,J,False,AUTOMATION1,4,398,1698,fixed_delta,0.03841730837928436,0.012782208620853738,,,,,0.5345832517416604,1924,1676,1,0.95,BLACK,BLACK,True,0,0.0013999997463542968,BLACK,True,CORRECT,1.1847710000001825,1184.7710000001825
5,20260325_140546,D,J,False,AUTOMATION1,4,399,1699,fixed_delta,0.03841730837928436,0.012782208620853738,,,,,0.4412510374249169,1589,2011,1,0.95,WHITE,WHITE,True,0,0.0013999997463542968,WHITE,True,CORRECT,0.6584150999988196,658.4150999988196
5,20260325_140546,D,J,False,AUTOMATION1,4,400,1700,fixed_delta,0.03841730837928436,0.012782208620853738,,,,,0.4781858408921578,1721,1879,1,0.95,WHITE,WHITE,True,0,0.0022999993234407157,WHITE,True,CORRECT,1.104021200000716,1104.021200000716
5,20260325_140546,D,J,False,AUTOMATION1,4,401,1701,fixed_delta,0.03841730837928436,0.012782208620853738,,,,,0.4554241140352001,1640,1960,1,0.95,WHITE,WHITE,True,0,0.0013999997463542968,WHITE,True,CORRECT,0.7223696999972162,722.3696999972162
5,20260325_140546,D,J,False,AUTOMATION1,4,402,1702,fixed_delta,0.03841730837928436,0.012782208620853738,,,,,0.5214825049530594,1877,1723,1,0.95,BLACK,BLACK,True,0,0.0016000012692529708,BLACK,True,CORRECT,1.2000205000003916,1200.0205000003916
5,20260325_140546,D,J,False,AUTOMATION1,4,403,1703,fixed_delta,0.03841730837928436,0.012782208620853738,,,,,0.5449538848675232,1962,1638,1,0.95,BLACK,BLACK,True,0,0.0015000005078036338,BLACK,True,CORRECT,0.6607070999998541,660.7070999998541
5,20260325_140546,D,J,False,AUTOMATION1,4,404,1704,fixed_delta,0.03841730837928436,0.012782208620853738,,,,,0.47210108676093815,1700,1900,1,0.95,WHITE,WHITE,True,0,0.0016000012692529708,WHITE,True,CORRECT,0.6993715000025986,699.3715000025986
5,20260325_140546,D,J,False,AUTOMATION1,4,405,1705,fixed_delta,0.03841730837928436,0.012782208620853738,,,,,0.5339834652165913,1922,1678,1,0.95,BLACK,BLACK,True,0,0.0015000005078036338,BLACK,True,CORRECT,0.8200963999988744,820.0963999988744
5,20260325_140546,D,J,False,AUTOMATION1,4,406,1706,fixed_delta,0.03841730837928436,0.012782208620853738,,,,,0.5045108890024954,1816,1784,1,0.95,BLACK,BLACK,True,0,0.0021000014385208488,WHITE,False,INCORRECT,1.005606100003206,1005.6061000032059
5,20260325_140546,D,J,False,AUTOMATION1,4,407,1707,fixed_delta,0.03841730837928436,0.012782208620853738,,,,,0.4601335460936707,1656,1944,1,0.95,WHITE,WHITE,True,0,0.0015999976312741637,WHITE,True,CORRECT,0.7608314999997674,760.8314999997674
5,20260325_140546,D,J,False,AUTOMATION1,4,408,1708,fixed_delta,0.03841730837928436,0.012782208620853738,,,,,0.4691249250575593,1689,1911,1,0.95,WHITE,WHITE,True,0,0.0015000005078036338,BLACK,False,INCORRECT,1.0564420000009704,1056.4420000009704
5,20260325_140546,D,J,False,AUTOMATION1,4,409,1709,fixed_delta,0.03841730837928436,0.012782208620853738,,,,,0.5557496589433972,2001,1599,1,0.95,BLACK,BLACK,True,0,0.0015999976312741637,BLACK,True,CORRECT,0.8750673999966239,875.0673999966239
5,20260325_140546,D,J,False,AUTOMATION1,4,410,1710,fixed_delta,0.03841730837928436,0.012782208620853738,,,,,0.45374290635310666,1633,1967,1,0.95,WHITE,WHITE,True,0,0.0015000005078036338,WHITE,True,CORRECT,1.5891884000011487,1589.1884000011487
5,20260325_140546,D,J,False,AUTOMATION1,4,411,1711,fixed_delta,0.03841730837928436,0.012782208620853738,,,,,0.5414247972893004,1949,1651,1,0.95,BLACK,BLACK,True,0,0.0017000020307023078,BLACK,True,CORRECT,0.698474000000715,698.474000000715
