participant_id,run_timestamp,key_black,key_white,keymap_flip,block,block_idx,trial,global_trial,difficulty_mode,delta_fixed_mean,delta_fixed_sd,delta_stair_realised,delta_stair_mean,delta_step_down_used,delta_step_up_used,vblack_prop,n_vblack,n_vwhite,auto_on,aid_accuracy_setting,stimulus,aid_label,aid_correct,aid_onset_ms,aid_onset_ms_rel,response,correct,feedback,rt_s,rt_ms
4,20260325_121644,D,J,False,AUTOMATION2,3,1,801,fixed_delta,0.04274353132498164,0.014104974879815414,,,,,0.541624319531831,1950,1650,1,0.65,BLACK,WHITE,False,0,0.0013999997463542968,WHITE,False,INCORRECT,2.9099680999988777,2909.9680999988777
4,20260325_121644,D,J,False,AUTOMATION2,3,2,802,fixed_delta,0.04274353132498164,0.014104974879815414,,,,,0.5437586767555603,1958,1642,1,0.65,BLACK,WHITE,False,0,0.0009000013960758224,WHITE,False,INCORRECT,1.847537600000578,1847.537600000578
4,20260325_121644,D,J,False,AUTOMATION2,3,3,803,fixed_delta,0.04274353132498164,0.014104974879815414,,,,,0.47297717190968847,1703,1897,1,0.65,WHITE,WHITE,True,0,0.0011000010999850929,WHITE,True,CORRECT,1.3149140999994415,1314.9140999994415
4,20260325_121644,D,J,False,AUTOMATION2,3,4,804,fixed_delta,0.04274353132498164,0.014104974879815414,,,,,0.5273223114921174,1898,1702,1,0.65,BLACK,BLACK,True,0,0.0018000009731622413,BLACK,True,CORRECT,1.7868006999997306,1786.8006999997306
4,20260325_121644,D,J,False,AUTOMATION2,3,5,805,fixed_delta,0.04274353132498164,0.014104974879815414,,,,,0.4512741297343593,1625,1975,1,0.65,WHITE,WHITE,True,0,0.0010000003385357559,WHITE,True,CORRECT,0.9122466000007989,912.2466000007989
4,20260325_121644,D,J,False,AUTOMATION2,3,6,806,fixed_delta,0.04274353132498164,0.014104974879815414,,,,,0.5634172549367887,2028,1572,1,0.65,BLACK,BLACK,True,0,0.0012999989849049598,WHITE,False,INCORRECT,8.741298599999936,8741.298599999936
4,20260325_121644,D,J,False,AUTOMATION2,3,7,807,fixed_delta,0.04274353132498164,0.014104974879815414,,,,,0.4514930304043806,1625,1975,1,0.65,WHITE,WHITE,True,0,0.0014999986888142303,WHITE,True,CORRECT,1.3954908999985491,1395.4908999985491
4,20260325_121644,D,J,False,AUTOMATION2,3,8,808,fixed_delta,0.04274353132498164,0.014104974879815414,,,,,0.44646941593566336,1607,1993,1,0.65,WHITE,WHITE,True,0,0.0010000003385357559,WHITE,True,CORRECT,2.1934666999986803,2193.4666999986803
4,20260325_121644,D,J,False,AUTOMATION2,3,9,809,fixed_delta,0.04274353132498164,0.014104974879815414,,,,,0.45741508495512423,1647,1953,1,0.65,WHITE,WHITE,True,0,0.0014999986888142303,WHITE,True,CORRECT,0.7309078999987833,730.9078999987833
4,20260325_121644,D,J,False,AUTOMATION2,3,10,810,fixed_delta,0.04274353132498164,0.014104974879815414,,,,,0.457920296294382,1649,1951,1,0.65,WHITE,WHITE,True,0,0.0010000003385357559,WHITE,True,CORRECT,1.438774199999898,1438.774199999898
4,20260325_121644,D,J,False,AUTOMATION2,3,11,811,fixed_delta,0.04274353132498164,0.014104974879815414,,,,,0.472112387493914,1700,1900,1,0.65,WHITE,WHITE,True,0,0.0014000015653437003,WHITE,True,CORRECT,3.5521117000007507,3552.1117000007507
4,20260325_121644,D,J,False,AUTOMATION2,3,12,812,fixed_delta,0.04274353132498164,0.014104974879815414,,,,,0.4309000588604533,1551,2049,1,0.65,WHITE,WHITE,True,0,0.0012999989849049598,WHITE,True,CORRECT,0.7061002999998891,706.1002999998891
4,20260325_121644,D,J,False,AUTOMATION2,3,13,813,fixed_delta,0.04274353132498164,0.014104974879815414,,,,,0.5442943679512677,1959,1641,1,0.65,BLACK,WHITE,False,0,0.0011000010999850929,BLACK,True,CORRECT,2.5293799999999464,2529.3799999999464
4,20260325_121644,D,J,False,AUTOMATION2,3,14,814,fixed_delta,0.04274353132498164,0.014104974879815414,,,,,0.4671981140328706,1682,1918,1,0.65,WHITE,BLACK,False,0,0.0012000000424450263,WHITE,True,CORRECT,2.1666753999998036,2166.6753999998036
4,20260325_121644,D,J,False,AUTOMATION2,3,15,815,fixed_delta,0.04274353132498164,0.014104974879815414,,,,,0.5405317218205778,1946,1654,1,0.65,BLACK,BLACK,True,0,0.0011000010999850929,BLACK,True,CORRECT,1.2695467000012286,1269.5467000012286
4,20260325_121644,D,J,False,AUTOMATION2,3,16,816,fixed_delta,0.04274353132498164,0.014104974879815414,,,,,0.4396498720168733,1583,2017,1,0.65,WHITE,BLACK,False,0,0.0015999994502635673,WHITE,True,CORRECT,0.8911797000000661,891.1797000000661
4,20260325_121644,D,J,False,AUTOMATION2,3,17,817,fixed_delta,0.04274353132498164,0.014104974879815414,,,,,0.5245428392187145,1888,1712,1,0.65,BLACK,BLACK,True,0,0.0017000002117129043,BLACK,True,CORRECT,1.2593035000008967,1259.3035000008967
4,20260325_121644,D,J,False,AUTOMATION2,3,18,818,fixed_delta,0.04274353132498164,0.014104974879815414,,,,,0.5388943492942966,1940,1660,1,0.65,BLACK,BLACK,True,0,0.0010999992809956893,BLACK,True,CORRECT,2.486650999999256,2486.650999999256
4,20260325_121644,D,J,False,AUTOMATION2,3,19,819,fixed_delta,0.04274353132498164,0.014104974879815414,,,,,0.48218741490759914,1736,1864,1,0.65,WHITE,WHITE,True,0,0.0013999997463542968,WHITE,True,CORRECT,2.456088799999634,2456.088799999634
4,20260325_121644,D,J,False,AUTOMATION2,3,20,820,fixed_delta,0.04274353132498164,0.014104974879815414,,,,,0.5471868879394338,1970,1630,1,0.65,BLACK,BLACK,True,0,0.0011000010999850929,BLACK,True,CORRECT,1.3793096999997942,1379.3096999997942
4,20260325_121644,D,J,False,AUTOMATION2,3,21,821,fixed_delta,0.04274353132498164,0.014104974879815414,,,,,0.4687284499513325,1687,1913,1,0.65,WHITE,WHITE,True,0,0.0015000005078036338,WHITE,True,CORRECT,0.7260500000011234,726.0500000011234
4,20260325_121644,D,J,False,AUTOMATION2,3,22,822,fixed_delta,0.04274353132498164,0.014104974879815414,,,,,0.43982869894559673,1583,2017,1,0.65,WHITE,WHITE,True,0,0.0010000003385357559,WHITE,True,CORRECT,1.087067799999204,1087.067799999204
4,20260325_121644,D,J,False,AUTOMATION2,3,23,823,fixed_delta,0.04274353132498164,0.014104974879815414,,,,,0.4371254965201109,1574,2026,1,0.65,WHITE,WHITE,True,0,0.0021000014385208488,WHITE,True,CORRECT,0.556510000000344,556.510000000344
4,20260325_121644,D,J,False,AUTOMATION2,3,24,824,fixed_delta,0.04274353132498164,0.014104974879815414,,,,,0.43868020598868757,1579,2021,1,0.65,WHITE,WHITE,True,0,0.0015000005078036338,WHITE,True,CORRECT,0.6357851000011578,635.7851000011578
4,20260325_121644,D,J,False,AUTOMATION2,3,25,825,fixed_delta,0.04274353132498164,0.014104974879815414,,,,,0.4673245215567105,1682,1918,1,0.65,WHITE,WHITE,True,0,0.0013999997463542968,WHITE,True,CORRECT,0.5822398000000248,582.2398000000248
4,20260325_121644,D,J,False,AUTOMATION2,3,26,826,fixed_delta,0.04274353132498164,0.014104974879815414,,,,,0.5455034472256162,1964,1636,1,0.65,BLACK,WHITE,False,0,0.0017000002117129043,BLACK,True,CORRECT,1.2494845000001078,1249.4845000001078
4,20260325_121644,D,J,False,AUTOMATION2,3,27,827,fixed_delta,0.04274353132498164,0.014104974879815414,,,,,0.42537796351646845,1531,2069,1,0.65,WHITE,WHITE,True,0,0.0013999997463542968,WHITE,True,CORRECT,1.1671076999991783,1167.1076999991783
4,20260325_121644,D,J,False,AUTOMATION2,3,28,828,fixed_delta,0.04274353132498164,0.014104974879815414,,,,,0.47633341290677683,1715,1885,1,0.65,WHITE,BLACK,False,0,0.0012000000424450263,WHITE,True,CORRECT,2.3467939000001934,2346.7939000001934
4,20260325_121644,D,J,False,AUTOMATION2,3,29,829,fixed_delta,0.04274353132498164,0.014104974879815414,,,,,0.47103594818292394,1696,1904,1,0.65,WHITE,WHITE,True,0,0.0010000003385357559,WHITE,True,CORRECT,0.7962318999998388,796.2318999998388
4,20260325_121644,D,J,False,AUTOMATION2,3,30,830,fixed_delta,0.04274353132498164,0.014104974879815414,,,,,0.5751221855239471,2070,1530,1,0.65,BLACK,BLACK,True,0,0.0011000010999850929,BLACK,True,CORRECT,1.1117229000010411,1111.7229000010411
4,20260325_121644,D,J,False,AUTOMATION2,3,31,831,fixed_delta,0.04274353132498164,0.014104974879815414,,,,,0.5357347339003311,1929,1671,1,0.65,BLACK,BLACK,True,0,0.002800001311697997,BLACK,True,CORRECT,1.18645430000106,1186.45430000106
4,20260325_121644,D,J,False,AUTOMATION2,3,32,832,fixed_delta,0.04274353132498164,0.014104974879815414,,,,,0.5556683901085185,2000,1600,1,0.65,BLACK,WHITE,False,0,0.0012999989849049598,BLACK,True,CORRECT,0.7559649999984686,755.9649999984686
4,20260325_121644,D,J,False,AUTOMATION2,3,33,833,fixed_delta,0.04274353132498164,0.014104974879815414,,,,,0.558227021061015,2010,1590,1,0.65,BLACK,WHITE,False,0,0.0013999997463542968,BLACK,True,CORRECT,0.6712519000011525,671.2519000011525
4,20260325_121644,D,J,False,AUTOMATION2,3,34,834,fixed_delta,0.04274353132498164,0.014104974879815414,,,,,0.5387574293430659,1940,1660,1,0.65,BLACK,WHITE,False,0,0.0016000012692529708,BLACK,True,CORRECT,0.7364728000011382,736.4728000011382
4,20260325_121644,D,J,False,AUTOMATION2,3,35,835,fixed_delta,0.04274353132498164,0.014104974879815414,,,,,0.5596964369531344,2015,1585,1,0.65,BLACK,BLACK,True,0,0.0015999994502635673,BLACK,True,CORRECT,0.4940069999993284,494.0069999993284
4,20260325_121644,D,J,False,AUTOMATION2,3,36,836,fixed_delta,0.04274353132498164,0.014104974879815414,,,,,0.5370920606713777,1934,1666,1,0.65,BLACK,BLACK,True,0,0.0012000000424450263,BLACK,True,CORRECT,0.4943108999996184,494.3108999996184
4,20260325_121644,D,J,False,AUTOMATION2,3,37,837,fixed_delta,0.04274353132498164,0.014104974879815414,,,,,0.5140757923062379,1851,1749,1,0.65,BLACK,BLACK,True,0,0.0008999995770864189,BLACK,True,CORRECT,0.9279744999985269,927.9744999985269
4,20260325_121644,D,J,False,AUTOMATION2,3,38,838,fixed_delta,0.04274353132498164,0.014104974879815414,,,,,0.5399664523711776,1944,1656,1,0.65,BLACK,BLACK,True,0,0.0011000010999850929,BLACK,True,CORRECT,0.5147532999999385,514.7532999999385
4,20260325_121644,D,J,False,AUTOMATION2,3,39,839,fixed_delta,0.04274353132498164,0.014104974879815414,,,,,0.44716312765858657,1610,1990,1,0.65,WHITE,WHITE,True,0,0.0010999992809956893,WHITE,True,CORRECT,1.3938787999995839,1393.8787999995839
4,20260325_121644,D,J,False,AUTOMATION2,3,40,840,fixed_delta,0.04274353132498164,0.014104974879815414,,,,,0.457198080938386,1646,1954,1,0.65,WHITE,BLACK,False,0,0.0008999995770864189,WHITE,True,CORRECT,0.9599285000003874,959.9285000003874
4,20260325_121644,D,J,False,AUTOMATION2,3,41,841,fixed_delta,0.04274353132498164,0.014104974879815414,,,,,0.5308715149603364,1911,1689,1,0.65,BLACK,BLACK,True,0,0.0012000000424450263,BLACK,True,CORRECT,1.753606199999922,1753.606199999922
4,20260325_121644,D,J,False,AUTOMATION2,3,42,842,fixed_delta,0.04274353132498164,0.014104974879815414,,,,,0.5439199558982015,1958,1642,1,0.65,BLACK,BLACK,True,0,0.0013000008038943633,BLACK,True,CORRECT,0.5020153000004939,502.0153000004939
4,20260325_121644,D,J,False,AUTOMATION2,3,43,843,fixed_delta,0.04274353132498164,0.014104974879815414,,,,,0.4604013539045215,1657,1943,1,0.65,WHITE,WHITE,True,0,0.0012000000424450263,WHITE,True,CORRECT,3.382355400000961,3382.355400000961
4,20260325_121644,D,J,False,AUTOMATION2,3,44,844,fixed_delta,0.04274353132498164,0.014104974879815414,,,,,0.5234981944838243,1885,1715,1,0.65,BLACK,WHITE,False,0,0.0010999992809956893,WHITE,False,INCORRECT,3.9672527000002447,3967.2527000002447
4,20260325_121644,D,J,False,AUTOMATION2,3,45,845,fixed_delta,0.04274353132498164,0.014104974879815414,,,,,0.45403681085632985,1635,1965,1,0.65,WHITE,WHITE,True,0,0.0010999992809956893,WHITE,True,CORRECT,0.5563321999998152,556.3321999998152
4,20260325_121644,D,J,False,AUTOMATION2,3,46,846,fixed_delta,0.04274353132498164,0.014104974879815414,,,,,0.5385558335059073,1939,1661,1,0.65,BLACK,WHITE,False,0,0.0010999992809956893,WHITE,False,INCORRECT,0.6703108999990945,670.3108999990945
4,20260325_121644,D,J,False,AUTOMATION2,3,47,847,fixed_delta,0.04274353132498164,0.014104974879815414,,,,,0.43915361060117936,1581,2019,1,0.65,WHITE,BLACK,False,0,0.0012000000424450263,WHITE,True,CORRECT,1.0772833000009996,1077.2833000009996
4,20260325_121644,D,J,False,AUTOMATION2,3,48,848,fixed_delta,0.04274353132498164,0.014104974879815414,,,,,0.45224014537879054,1628,1972,1,0.65,WHITE,WHITE,True,0,0.0013000008038943633,WHITE,True,CORRECT,0.5879868000010902,587.9868000010902
4,20260325_121644,D,J,False,AUTOMATION2,3,49,849,fixed_delta,0.04274353132498164,0.014104974879815414,,,,,0.5668085245142853,2041,1559,1,0.65,BLACK,WHITE,False,0,0.0018000009731622413,WHITE,False,INCORRECT,0.7251827000000048,725.1827000000048
4,20260325_121644,D,J,False,AUTOMATION2,3,50,850,fixed_delta,0.04274353132498164,0.014104974879815414,,,,,0.5489155697383442,1976,1624,1,0.65,BLACK,BLACK,True,0,0.0012000000424450263,BLACK,True,CORRECT,1.0516792000016721,1051.6792000016721
4,20260325_121644,D,J,False,AUTOMATION2,3,51,851,fixed_delta,0.04274353132498164,0.014104974879815414,,,,,0.4562980013273114,1643,1957,1,0.65,WHITE,BLACK,False,0,0.0013999997463542968,WHITE,True,CORRECT,0.8114494999990711,811.4494999990711
4,20260325_121644,D,J,False,AUTOMATION2,3,52,852,fixed_delta,0.04274353132498164,0.014104974879815414,,,,,0.44827334180418027,1614,1986,1,0.65,WHITE,WHITE,True,0,0.0014000015653437003,WHITE,True,CORRECT,0.6663977000007435,666.3977000007435
4,20260325_121644,D,J,False,AUTOMATION2,3,53,853,fixed_delta,0.04274353132498164,0.014104974879815414,,,,,0.5387607816842411,1940,1660,1,0.65,BLACK,WHITE,False,0,0.0010000003385357559,WHITE,False,INCORRECT,1.1000079000004916,1100.0079000004916
4,20260325_121644,D,J,False,AUTOMATION2,3,54,854,fixed_delta,0.04274353132498164,0.014104974879815414,,,,,0.47321515755866844,1704,1896,1,0.65,WHITE,WHITE,True,0,0.0012000000424450263,BLACK,False,INCORRECT,0.6787032000011095,678.7032000011095
4,20260325_121644,D,J,False,AUTOMATION2,3,55,855,fixed_delta,0.04274353132498164,0.014104974879815414,,,,,0.5437376239268065,1957,1643,1,0.65,BLACK,WHITE,False,0,0.0012000000424450263,BLACK,True,CORRECT,1.613679800000682,1613.679800000682
4,20260325_121644,D,J,False,AUTOMATION2,3,56,856,fixed_delta,0.04274353132498164,0.014104974879815414,,,,,0.47641388862725814,1715,1885,1,0.65,WHITE,BLACK,False,0,0.0012000000424450263,BLACK,False,INCORRECT,3.6292990000001737,3629.2990000001737
4,20260325_121644,D,J,False,AUTOMATION2,3,57,857,fixed_delta,0.04274353132498164,0.014104974879815414,,,,,0.44501721524411575,1602,1998,1,0.65,WHITE,WHITE,True,0,0.0009999985195463523,WHITE,True,CORRECT,0.6362121999991359,636.2121999991359
4,20260325_121644,D,J,False,AUTOMATION2,3,58,858,fixed_delta,0.04274353132498164,0.014104974879815414,,,,,0.45588559949799595,1641,1959,1,0.65,WHITE,WHITE,True,0,0.0009999985195463523,BLACK,False,INCORRECT,2.2584591999984696,2258.4591999984696
4,20260325_121644,D,J,False,AUTOMATION2,3,59,859,fixed_delta,0.04274353132498164,0.014104974879815414,,,,,0.45004536303739445,1620,1980,1,0.65,WHITE,WHITE,True,0,0.0015999994502635673,WHITE,True,CORRECT,1.026488800000152,1026.488800000152
4,20260325_121644,D,J,False,AUTOMATION2,3,60,860,fixed_delta,0.04274353132498164,0.014104974879815414,,,,,0.544739801995155,1961,1639,1,0.65,BLACK,BLACK,True,0,0.0012000000424450263,BLACK,True,CORRECT,1.94535150000047,1945.35150000047
4,20260325_121644,D,J,False,AUTOMATION2,3,61,861,fixed_delta,0.04274353132498164,0.014104974879815414,,,,,0.5420401274771771,1951,1649,1,0.65,BLACK,BLACK,True,0,0.0012000000424450263,BLACK,True,CORRECT,0.6868275000015274,686.8275000015274
4,20260325_121644,D,J,False,AUTOMATION2,3,62,862,fixed_delta,0.04274353132498164,0.014104974879815414,,,,,0.5570857385732202,2006,1594,1,0.65,BLACK,BLACK,True,0,0.0013999997463542968,BLACK,True,CORRECT,1.2363215000004857,1236.3215000004857
4,20260325_121644,D,J,False,AUTOMATION2,3,63,863,fixed_delta,0.04274353132498164,0.014104974879815414,,,,,0.5239711431939529,1886,1714,1,0.65,BLACK,BLACK,True,0,0.0013000008038943633,BLACK,True,CORRECT,0.5525106000004598,552.5106000004598
4,20260325_121644,D,J,False,AUTOMATION2,3,64,864,fixed_delta,0.04274353132498164,0.014104974879815414,,,,,0.4217951013334081,1518,2082,1,0.65,WHITE,WHITE,True,0,0.0008999995770864189,WHITE,True,CORRECT,1.0072557999992569,1007.2557999992569
4,20260325_121644,D,J,False,AUTOMATION2,3,65,865,fixed_delta,0.04274353132498164,0.014104974879815414,,,,,0.5589284331405304,2012,1588,1,0.65,BLACK,BLACK,True,0,0.0013000008038943633,BLACK,True,CORRECT,0.8033159999995405,803.3159999995405
4,20260325_121644,D,J,False,AUTOMATION2,3,66,866,fixed_delta,0.04274353132498164,0.014104974879815414,,,,,0.4614846997340467,1661,1939,1,0.65,WHITE,WHITE,True,0,0.0011000010999850929,WHITE,True,CORRECT,0.8740030000008119,874.0030000008119
4,20260325_121644,D,J,False,AUTOMATION2,3,67,867,fixed_delta,0.04274353132498164,0.014104974879815414,,,,,0.5718634757065668,2059,1541,1,0.65,BLACK,WHITE,False,0,0.0010000003385357559,BLACK,True,CORRECT,1.483625300001222,1483.625300001222
4,20260325_121644,D,J,False,AUTOMATION2,3,68,868,fixed_delta,0.04274353132498164,0.014104974879815414,,,,,0.5570241393314619,2005,1595,1,0.65,BLACK,WHITE,False,0,0.0017000002117129043,BLACK,True,CORRECT,1.3586734999989858,1358.6734999989858
4,20260325_121644,D,J,False,AUTOMATION2,3,69,869,fixed_delta,0.04274353132498164,0.014104974879815414,,,,,0.47209688182591364,1700,1900,1,0.65,WHITE,WHITE,True,0,0.0012000000424450263,WHITE,True,CORRECT,0.686959200000274,686.959200000274
4,20260325_121644,D,J,False,AUTOMATION2,3,70,870,fixed_delta,0.04274353132498164,0.014104974879815414,,,,,0.4751292039325074,1710,1890,1,0.65,WHITE,BLACK,False,0,0.0012999989849049598,BLACK,False,INCORRECT,0.7802542999997968,780.2542999997968
4,20260325_121644,D,J,False,AUTOMATION2,3,71,871,fixed_delta,0.04274353132498164,0.014104974879815414,,,,,0.4430483523157625,1595,2005,1,0.65,WHITE,BLACK,False,0,0.0010000003385357559,BLACK,False,INCORRECT,2.961727800000517,2961.727800000517
4,20260325_121644,D,J,False,AUTOMATION2,3,72,872,fixed_delta,0.04274353132498164,0.014104974879815414,,,,,0.43901138693555636,1580,2020,1,0.65,WHITE,WHITE,True,0,0.0014000015653437003,WHITE,True,CORRECT,0.6326427000003605,632.6427000003605
4,20260325_121644,D,J,False,AUTOMATION2,3,73,873,fixed_delta,0.04274353132498164,0.014104974879815414,,,,,0.4606592037737017,1658,1942,1,0.65,WHITE,WHITE,True,0,0.0012000000424450263,WHITE,True,CORRECT,1.6802157999991323,1680.2157999991323
4,20260325_121644,D,J,False,AUTOMATION2,3,74,874,fixed_delta,0.04274353132498164,0.014104974879815414,,,,,0.5611812804767977,2020,1580,1,0.65,BLACK,WHITE,False,0,0.0009000013960758224,BLACK,True,CORRECT,0.9248138000002655,924.8138000002655
4,20260325_121644,D,J,False,AUTOMATION2,3,75,875,fixed_delta,0.04274353132498164,0.014104974879815414,,,,,0.4267309047536878,1536,2064,1,0.65,WHITE,WHITE,True,0,0.0011000010999850929,WHITE,True,CORRECT,0.7798417000012705,779.8417000012705
4,20260325_121644,D,J,False,AUTOMATION2,3,76,876,fixed_delta,0.04274353132498164,0.014104974879815414,,,,,0.5492147568773704,1977,1623,1,0.65,BLACK,BLACK,True,0,0.0013000008038943633,BLACK,True,CORRECT,1.7583799000003637,1758.3799000003637
4,20260325_121644,D,J,False,AUTOMATION2,3,77,877,fixed_delta,0.04274353132498164,0.014104974879815414,,,,,0.4575803668331732,1647,1953,1,0.65,WHITE,WHITE,True,0,0.0010999992809956893,WHITE,True,CORRECT,0.7077926999991178,707.7926999991178
4,20260325_121644,D,J,False,AUTOMATION2,3,78,878,fixed_delta,0.04274353132498164,0.014104974879815414,,,,,0.44567823459514,1604,1996,1,0.65,WHITE,WHITE,True,0,0.0013000008038943633,WHITE,True,CORRECT,1.6675013000003673,1667.5013000003673
4,20260325_121644,D,J,False,AUTOMATION2,3,79,879,fixed_delta,0.04274353132498164,0.014104974879815414,,,,,0.4461264548863424,1606,1994,1,0.65,WHITE,WHITE,True,0,0.0012000000424450263,WHITE,True,CORRECT,2.115240900000572,2115.240900000572
4,20260325_121644,D,J,False,AUTOMATION2,3,80,880,fixed_delta,0.04274353132498164,0.014104974879815414,,,,,0.46409714856519546,1671,1929,1,0.65,WHITE,WHITE,True,0,0.0013999997463542968,BLACK,False,INCORRECT,2.403998699999647,2403.998699999647
4,20260325_121644,D,J,False,AUTOMATION2,3,81,881,fixed_delta,0.04274353132498164,0.014104974879815414,,,,,0.45701434447969064,1645,1955,1,0.65,WHITE,WHITE,True,0,0.0010999992809956893,WHITE,True,CORRECT,0.6886515999995027,688.6515999995027
4,20260325_121644,D,J,False,AUTOMATION2,3,82,882,fixed_delta,0.04274353132498164,0.014104974879815414,,,,,0.5436814068193109,1957,1643,1,0.65,BLACK,WHITE,False,0,0.0010999992809956893,BLACK,True,CORRECT,0.8470887000003131,847.0887000003131
4,20260325_121644,D,J,False,AUTOMATION2,3,83,883,fixed_delta,0.04274353132498164,0.014104974879815414,,,,,0.4512422749297994,1624,1976,1,0.65,WHITE,WHITE,True,0,0.0010999992809956893,WHITE,True,CORRECT,0.6830962000003638,683.0962000003638
4,20260325_121644,D,J,False,AUTOMATION2,3,84,884,fixed_delta,0.04274353132498164,0.014104974879815414,,,,,0.4447330293522964,1601,1999,1,0.65,WHITE,BLACK,False,0,0.0010000003385357559,WHITE,True,CORRECT,4.991511000000173,4991.511000000173
4,20260325_121644,D,J,False,AUTOMATION2,3,85,885,fixed_delta,0.04274353132498164,0.014104974879815414,,,,,0.5453592761106049,1963,1637,1,0.65,BLACK,BLACK,True,0,0.0012000000424450263,BLACK,True,CORRECT,2.5081533000011405,2508.1533000011405
4,20260325_121644,D,J,False,AUTOMATION2,3,86,886,fixed_delta,0.04274353132498164,0.014104974879815414,,,,,0.4609161839407718,1659,1941,1,0.65,WHITE,WHITE,True,0,0.0008999995770864189,WHITE,True,CORRECT,0.8415308000003279,841.5308000003279
4,20260325_121644,D,J,False,AUTOMATION2,3,87,887,fixed_delta,0.04274353132498164,0.014104974879815414,,,,,0.5407248318539226,1947,1653,1,0.65,BLACK,WHITE,False,0,0.0009999985195463523,BLACK,True,CORRECT,0.8567036999993434,856.7036999993434
4,20260325_121644,D,J,False,AUTOMATION2,3,88,888,fixed_delta,0.04274353132498164,0.014104974879815414,,,,,0.5609959983027665,2020,1580,1,0.65,BLACK,BLACK,True,0,0.0013000008038943633,BLACK,True,CORRECT,0.5468380000002071,546.8380000002071
4,20260325_121644,D,J,False,AUTOMATION2,3,89,889,fixed_delta,0.04274353132498164,0.014104974879815414,,,,,0.5194356960121126,1870,1730,1,0.65,BLACK,WHITE,False,0,0.0013999997463542968,BLACK,True,CORRECT,1.3565017000000807,1356.5017000000807
4,20260325_121644,D,J,False,AUTOMATION2,3,90,890,fixed_delta,0.04274353132498164,0.014104974879815414,,,,,0.5345720547215006,1924,1676,1,0.65,BLACK,WHITE,False,0,0.0010000003385357559,WHITE,False,INCORRECT,1.4023114000010537,1402.3114000010537
4,20260325_121644,D,J,False,AUTOMATION2,3,91,891,fixed_delta,0.04274353132498164,0.014104974879815414,,,,,0.4849031476679344,1746,1854,1,0.65,WHITE,WHITE,True,0,0.0011000010999850929,BLACK,False,INCORRECT,1.5915455000013026,1591.5455000013026
4,20260325_121644,D,J,False,AUTOMATION2,3,92,892,fixed_delta,0.04274353132498164,0.014104974879815414,,,,,0.5554118597555465,1999,1601,1,0.65,BLACK,BLACK,True,0,0.0010000003385357559,BLACK,True,CORRECT,0.6333295999993425,633.3295999993425
4,20260325_121644,D,J,False,AUTOMATION2,3,93,893,fixed_delta,0.04274353132498164,0.014104974879815414,,,,,0.4279845740154828,1541,2059,1,0.65,WHITE,WHITE,True,0,0.0012000000424450263,WHITE,True,CORRECT,0.6677861000007397,667.7861000007397
4,20260325_121644,D,J,False,AUTOMATION2,3,94,894,fixed_delta,0.04274353132498164,0.014104974879815414,,,,,0.5497413438772267,1979,1621,1,0.65,BLACK,BLACK,True,0,0.0009999985195463523,BLACK,True,CORRECT,0.6053351999998995,605.3351999998995
4,20260325_121644,D,J,False,AUTOMATION2,3,95,895,fixed_delta,0.04274353132498164,0.014104974879815414,,,,,0.5747147331428273,2069,1531,1,0.65,BLACK,WHITE,False,0,0.0010000003385357559,BLACK,True,CORRECT,0.7957272000003286,795.7272000003286
4,20260325_121644,D,J,False,AUTOMATION2,3,96,896,fixed_delta,0.04274353132498164,0.014104974879815414,,,,,0.5309337495979488,1911,1689,1,0.65,BLACK,BLACK,True,0,0.0008999995770864189,BLACK,True,CORRECT,0.6635336999988795,663.5336999988795
4,20260325_121644,D,J,False,AUTOMATION2,3,97,897,fixed_delta,0.04274353132498164,0.014104974879815414,,,,,0.5513346189063391,1985,1615,1,0.65,BLACK,BLACK,True,0,0.0008999995770864189,BLACK,True,CORRECT,2.065685499999745,2065.685499999745
4,20260325_121644,D,J,False,AUTOMATION2,3,98,898,fixed_delta,0.04274353132498164,0.014104974879815414,,,,,0.5469615289161862,1969,1631,1,0.65,BLACK,WHITE,False,0,0.0013999997463542968,BLACK,True,CORRECT,1.736630100000184,1736.630100000184
4,20260325_121644,D,J,False,AUTOMATION2,3,99,899,fixed_delta,0.04274353132498164,0.014104974879815414,,,,,0.46970477467050087,1691,1909,1,0.65,WHITE,WHITE,True,0,0.0012000000424450263,WHITE,True,CORRECT,2.908494300001621,2908.494300001621
4,20260325_121644,D,J,False,AUTOMATION2,3,100,900,fixed_delta,0.04274353132498164,0.014104974879815414,,,,,0.44458901604529066,1601,1999,1,0.65,WHITE,WHITE,True,0,0.0013999997463542968,WHITE,True,CORRECT,1.080307599999287,1080.307599999287
4,20260325_121644,D,J,False,AUTOMATION2,3,101,901,fixed_delta,0.04274353132498164,0.014104974879815414,,,,,0.5404353726270044,1946,1654,1,0.65,BLACK,BLACK,True,0,0.0012000000424450263,WHITE,False,INCORRECT,1.0879712999994808,1087.9712999994808
4,20260325_121644,D,J,False,AUTOMATION2,3,102,902,fixed_delta,0.04274353132498164,0.014104974879815414,,,,,0.45650197104058426,1643,1957,1,0.65,WHITE,WHITE,True,0,0.0018999999156221747,WHITE,True,CORRECT,1.0308021000000736,1030.8021000000736
4,20260325_121644,D,J,False,AUTOMATION2,3,103,903,fixed_delta,0.04274353132498164,0.014104974879815414,,,,,0.5505278102522966,1982,1618,1,0.65,BLACK,BLACK,True,0,0.0012000000424450263,WHITE,False,INCORRECT,1.0681690000001254,1068.1690000001254
4,20260325_121644,D,J,False,AUTOMATION2,3,104,904,fixed_delta,0.04274353132498164,0.014104974879815414,,,,,0.5143356160046811,1852,1748,1,0.65,BLACK,BLACK,True,0,0.0010000003385357559,BLACK,True,CORRECT,2.381253100000322,2381.253100000322
4,20260325_121644,D,J,False,AUTOMATION2,3,105,905,fixed_delta,0.04274353132498164,0.014104974879815414,,,,,0.5215080886234333,1877,1723,1,0.65,BLACK,WHITE,False,0,0.0008000006346264854,BLACK,True,CORRECT,1.3259505000005447,1325.9505000005447
4,20260325_121644,D,J,False,AUTOMATION2,3,106,906,fixed_delta,0.04274353132498164,0.014104974879815414,,,,,0.48889091789942357,1760,1840,1,0.65,WHITE,BLACK,False,0,0.0013999997463542968,WHITE,True,CORRECT,0.7593796000001021,759.3796000001021
4,20260325_121644,D,J,False,AUTOMATION2,3,107,907,fixed_delta,0.04274353132498164,0.014104974879815414,,,,,0.5493332178747834,1978,1622,1,0.65,BLACK,BLACK,True,0,0.0014999986888142303,BLACK,True,CORRECT,0.923952699999063,923.952699999063
4,20260325_121644,D,J,False,AUTOMATION2,3,108,908,fixed_delta,0.04274353132498164,0.014104974879815414,,,,,0.4485848450503305,1615,1985,1,0.65,WHITE,WHITE,True,0,0.0017999991541728377,WHITE,True,CORRECT,0.7160127999995893,716.0127999995893
4,20260325_121644,D,J,False,AUTOMATION2,3,109,909,fixed_delta,0.04274353132498164,0.014104974879815414,,,,,0.541455125598828,1949,1651,1,0.65,BLACK,BLACK,True,0,0.0010000003385357559,WHITE,False,INCORRECT,1.0154695999990508,1015.4695999990508
4,20260325_121644,D,J,False,AUTOMATION2,3,110,910,fixed_delta,0.04274353132498164,0.014104974879815414,,,,,0.5678277368725101,2044,1556,1,0.65,BLACK,BLACK,True,0,0.0014000015653437003,BLACK,True,CORRECT,0.5382672000014281,538.2672000014281
4,20260325_121644,D,J,False,AUTOMATION2,3,111,911,fixed_delta,0.04274353132498164,0.014104974879815414,,,,,0.4518756865890021,1627,1973,1,0.65,WHITE,WHITE,True,0,0.0011000010999850929,WHITE,True,CORRECT,0.825243600000249,825.243600000249
4,20260325_121644,D,J,False,AUTOMATION2,3,112,912,fixed_delta,0.04274353132498164,0.014104974879815414,,,,,0.49666215680564507,1788,1812,1,0.65,WHITE,WHITE,True,0,0.0007999988156370819,WHITE,True,CORRECT,1.6540102999988449,1654.0102999988449
4,20260325_121644,D,J,False,AUTOMATION2,3,113,913,fixed_delta,0.04274353132498164,0.014104974879815414,,,,,0.5481616437246478,1973,1627,1,0.65,BLACK,BLACK,True,0,0.0015000005078036338,BLACK,True,CORRECT,0.7048840999996173,704.8840999996173
4,20260325_121644,D,J,False,AUTOMATION2,3,114,914,fixed_delta,0.04274353132498164,0.014104974879815414,,,,,0.44796073686141513,1613,1987,1,0.65,WHITE,WHITE,True,0,0.0013000008038943633,WHITE,True,CORRECT,0.54258850000042,542.58850000042
4,20260325_121644,D,J,False,AUTOMATION2,3,115,915,fixed_delta,0.04274353132498164,0.014104974879815414,,,,,0.4672020558415516,1682,1918,1,0.65,WHITE,BLACK,False,0,0.0008999995770864189,WHITE,True,CORRECT,1.8284545999995316,1828.4545999995316
4,20260325_121644,D,J,False,AUTOMATION2,3,116,916,fixed_delta,0.04274353132498164,0.014104974879815414,,,,,0.4758302213416689,1713,1887,1,0.65,WHITE,WHITE,True,0,0.0015999994502635673,WHITE,True,CORRECT,1.4783857999991596,1478.3857999991596
4,20260325_121644,D,J,False,AUTOMATION2,3,117,917,fixed_delta,0.04274353132498164,0.014104974879815414,,,,,0.5289208359248364,1904,1696,1,0.65,BLACK,WHITE,False,0,0.0010000003385357559,BLACK,True,CORRECT,3.3947785000000295,3394.7785000000295
4,20260325_121644,D,J,False,AUTOMATION2,3,118,918,fixed_delta,0.04274353132498164,0.014104974879815414,,,,,0.5383649414644347,1938,1662,1,0.65,BLACK,BLACK,True,0,0.0015000005078036338,BLACK,True,CORRECT,0.868492999999944,868.492999999944
4,20260325_121644,D,J,False,AUTOMATION2,3,119,919,fixed_delta,0.04274353132498164,0.014104974879815414,,,,,0.44607134732075515,1606,1994,1,0.65,WHITE,WHITE,True,0,0.0012000000424450263,WHITE,True,CORRECT,0.626299999999901,626.299999999901
4,20260325_121644,D,J,False,AUTOMATION2,3,120,920,fixed_delta,0.04274353132498164,0.014104974879815414,,,,,0.44229671330047854,1592,2008,1,0.65,WHITE,WHITE,True,0,0.0012999989849049598,WHITE,True,CORRECT,1.0076260999994702,1007.6260999994702
4,20260325_121644,D,J,False,AUTOMATION2,3,121,921,fixed_delta,0.04274353132498164,0.014104974879815414,,,,,0.45338777805502395,1632,1968,1,0.65,WHITE,WHITE,True,0,0.0010999992809956893,WHITE,True,CORRECT,0.878636399998868,878.636399998868
4,20260325_121644,D,J,False,AUTOMATION2,3,122,922,fixed_delta,0.04274353132498164,0.014104974879815414,,,,,0.5701656535339865,2053,1547,1,0.65,BLACK,BLACK,True,0,0.0012000000424450263,BLACK,True,CORRECT,0.6752723999998125,675.2723999998125
4,20260325_121644,D,J,False,AUTOMATION2,3,123,923,fixed_delta,0.04274353132498164,0.014104974879815414,,,,,0.517254765860543,1862,1738,1,0.65,BLACK,BLACK,True,0,0.0016999983927235007,BLACK,True,CORRECT,0.7619796999988466,761.9796999988466
4,20260325_121644,D,J,False,AUTOMATION2,3,124,924,fixed_delta,0.04274353132498164,0.014104974879815414,,,,,0.5442586312403577,1959,1641,1,0.65,BLACK,BLACK,True,0,0.0012000000424450263,BLACK,True,CORRECT,0.5800042000009853,580.0042000009853
4,20260325_121644,D,J,False,AUTOMATION2,3,125,925,fixed_delta,0.04274353132498164,0.014104974879815414,,,,,0.5487782373090297,1976,1624,1,0.65,BLACK,WHITE,False,0,0.0015999994502635673,BLACK,True,CORRECT,1.5533871999996336,1553.3871999996336
4,20260325_121644,D,J,False,AUTOMATION2,3,126,926,fixed_delta,0.04274353132498164,0.014104974879815414,,,,,0.5511089764358581,1984,1616,1,0.65,BLACK,BLACK,True,0,0.0015999994502635673,BLACK,True,CORRECT,0.6643395999999484,664.3395999999484
4,20260325_121644,D,J,False,AUTOMATION2,3,127,927,fixed_delta,0.04274353132498164,0.014104974879815414,,,,,0.5065954613352172,1824,1776,1,0.65,BLACK,BLACK,True,0,0.0012000000424450263,BLACK,True,CORRECT,1.5199976000003517,1519.9976000003517
4,20260325_121644,D,J,False,AUTOMATION2,3,128,928,fixed_delta,0.04274353132498164,0.014104974879815414,,,,,0.4661085735580538,1678,1922,1,0.65,WHITE,WHITE,True,0,0.0012999989849049598,WHITE,True,CORRECT,0.7639183999999659,763.9183999999659
4,20260325_121644,D,J,False,AUTOMATION2,3,129,929,fixed_delta,0.04274353132498164,0.014104974879815414,,,,,0.4554091299026865,1639,1961,1,0.65,WHITE,BLACK,False,0,0.0012000000424450263,WHITE,True,CORRECT,1.71585579999919,1715.85579999919
4,20260325_121644,D,J,False,AUTOMATION2,3,130,930,fixed_delta,0.04274353132498164,0.014104974879815414,,,,,0.531864043965785,1915,1685,1,0.65,BLACK,BLACK,True,0,0.0015000005078036338,BLACK,True,CORRECT,2.0444537999992463,2044.4537999992463
4,20260325_121644,D,J,False,AUTOMATION2,3,131,931,fixed_delta,0.04274353132498164,0.014104974879815414,,,,,0.5470213506342464,1969,1631,1,0.65,BLACK,WHITE,False,0,0.0012999989849049598,BLACK,True,CORRECT,1.3471176999992167,1347.1176999992167
4,20260325_121644,D,J,False,AUTOMATION2,3,132,932,fixed_delta,0.04274353132498164,0.014104974879815414,,,,,0.5370269892772548,1933,1667,1,0.65,BLACK,BLACK,True,0,0.0013000008038943633,BLACK,True,CORRECT,0.8072064000007231,807.2064000007231
4,20260325_121644,D,J,False,AUTOMATION2,3,133,933,fixed_delta,0.04274353132498164,0.014104974879815414,,,,,0.5307043471025287,1911,1689,1,0.65,BLACK,BLACK,True,0,0.0016000012692529708,BLACK,True,CORRECT,2.353456000000733,2353.456000000733
4,20260325_121644,D,J,False,AUTOMATION2,3,134,934,fixed_delta,0.04274353132498164,0.014104974879815414,,,,,0.5236731949748678,1885,1715,1,0.65,BLACK,WHITE,False,0,0.0010999992809956893,BLACK,True,CORRECT,2.326630399998976,2326.630399998976
4,20260325_121644,D,J,False,AUTOMATION2,3,135,935,fixed_delta,0.04274353132498164,0.014104974879815414,,,,,0.5383993999353553,1938,1662,1,0.65,BLACK,WHITE,False,0,0.0012000000424450263,BLACK,True,CORRECT,1.6599489000000176,1659.9489000000176
4,20260325_121644,D,J,False,AUTOMATION2,3,136,936,fixed_delta,0.04274353132498164,0.014104974879815414,,,,,0.5380959136980785,1937,1663,1,0.65,BLACK,BLACK,True,0,0.0011000010999850929,BLACK,True,CORRECT,0.7280936000006477,728.0936000006477
4,20260325_121644,D,J,False,AUTOMATION2,3,137,937,fixed_delta,0.04274353132498164,0.014104974879815414,,,,,0.4780037911410865,1721,1879,1,0.65,WHITE,WHITE,True,0,0.0012999989849049598,WHITE,True,CORRECT,3.7981485999989673,3798.1485999989673
4,20260325_121644,D,J,False,AUTOMATION2,3,138,938,fixed_delta,0.04274353132498164,0.014104974879815414,,,,,0.45369177890604084,1633,1967,1,0.65,WHITE,WHITE,True,0,0.0015999994502635673,WHITE,True,CORRECT,0.7750744000004488,775.0744000004488
4,20260325_121644,D,J,False,AUTOMATION2,3,139,939,fixed_delta,0.04274353132498164,0.014104974879815414,,,,,0.5091149405184101,1833,1767,1,0.65,BLACK,BLACK,True,0,0.006199999916134402,WHITE,False,INCORRECT,1.5662510999991355,1566.2510999991355
4,20260325_121644,D,J,False,AUTOMATION2,3,140,940,fixed_delta,0.04274353132498164,0.014104974879815414,,,,,0.48985213716519055,1763,1837,1,0.65,WHITE,BLACK,False,0,0.0013000008038943633,WHITE,True,CORRECT,1.7956365999998525,1795.6365999998525
4,20260325_121644,D,J,False,AUTOMATION2,3,141,941,fixed_delta,0.04274353132498164,0.014104974879815414,,,,,0.4621113498613931,1664,1936,1,0.65,WHITE,WHITE,True,0,0.0010000003385357559,WHITE,True,CORRECT,1.0782491000009031,1078.2491000009031
4,20260325_121644,D,J,False,AUTOMATION2,3,142,942,fixed_delta,0.04274353132498164,0.014104974879815414,,,,,0.47222387706178937,1700,1900,1,0.65,WHITE,WHITE,True,0,0.0010000003385357559,WHITE,True,CORRECT,0.7142941000001883,714.2941000001883
4,20260325_121644,D,J,False,AUTOMATION2,3,143,943,fixed_delta,0.04274353132498164,0.014104974879815414,,,,,0.4392979788046252,1581,2019,1,0.65,WHITE,BLACK,False,0,0.0017999991541728377,WHITE,True,CORRECT,0.8838474999993196,883.8474999993196
4,20260325_121644,D,J,False,AUTOMATION2,3,144,944,fixed_delta,0.04274353132498164,0.014104974879815414,,,,,0.528859783088754,1904,1696,1,0.65,BLACK,BLACK,True,0,0.0013999997463542968,WHITE,False,INCORRECT,1.1508518000009644,1150.8518000009644
4,20260325_121644,D,J,False,AUTOMATION2,3,145,945,fixed_delta,0.04274353132498164,0.014104974879815414,,,,,0.4719014374928117,1699,1901,1,0.65,WHITE,WHITE,True,0,0.0008999995770864189,WHITE,True,CORRECT,0.6922198000011122,692.2198000011122
4,20260325_121644,D,J,False,AUTOMATION2,3,146,946,fixed_delta,0.04274353132498164,0.014104974879815414,,,,,0.5771016090053954,2078,1522,1,0.65,BLACK,WHITE,False,0,0.0012000000424450263,BLACK,True,CORRECT,0.8710316999986389,871.0316999986389
4,20260325_121644,D,J,False,AUTOMATION2,3,147,947,fixed_delta,0.04274353132498164,0.014104974879815414,,,,,0.5571930258429372,2006,1594,1,0.65,BLACK,BLACK,True,0,0.0014999986888142303,BLACK,True,CORRECT,1.7870003999996698,1787.0003999996698
4,20260325_121644,D,J,False,AUTOMATION2,3,148,948,fixed_delta,0.04274353132498164,0.014104974879815414,,,,,0.45826012105739106,1650,1950,1,0.65,WHITE,WHITE,True,0,0.002200000380980782,WHITE,True,CORRECT,0.698459900000671,698.459900000671
4,20260325_121644,D,J,False,AUTOMATION2,3,149,949,fixed_delta,0.04274353132498164,0.014104974879815414,,,,,0.47447832834231324,1708,1892,1,0.65,WHITE,BLACK,False,0,0.0017000002117129043,WHITE,True,CORRECT,1.5834868000001734,1583.4868000001734
4,20260325_121644,D,J,False,AUTOMATION2,3,150,950,fixed_delta,0.04274353132498164,0.014104974879815414,,,,,0.4634865413638034,1669,1931,1,0.65,WHITE,BLACK,False,0,0.0012999989849049598,BLACK,False,INCORRECT,1.8234388000000763,1823.4388000000763
4,20260325_121644,D,J,False,AUTOMATION2,3,151,951,fixed_delta,0.04274353132498164,0.014104974879815414,,,,,0.4476232013174293,1611,1989,1,0.65,WHITE,WHITE,True,0,0.0012000000424450263,WHITE,True,CORRECT,0.7035082000002149,703.5082000002149
4,20260325_121644,D,J,False,AUTOMATION2,3,152,952,fixed_delta,0.04274353132498164,0.014104974879815414,,,,,0.4468365123979676,1609,1991,1,0.65,WHITE,WHITE,True,0,0.0017000002117129043,WHITE,True,CORRECT,1.2143529000004492,1214.3529000004492
4,20260325_121644,D,J,False,AUTOMATION2,3,153,953,fixed_delta,0.04274353132498164,0.014104974879815414,,,,,0.5697229007873583,2051,1549,1,0.65,BLACK,WHITE,False,0,0.0012000000424450263,BLACK,True,CORRECT,0.9647568000000319,964.756800000032
4,20260325_121644,D,J,False,AUTOMATION2,3,154,954,fixed_delta,0.04274353132498164,0.014104974879815414,,,,,0.5203274956645422,1873,1727,1,0.65,BLACK,WHITE,False,0,0.0013999997463542968,WHITE,False,INCORRECT,1.1812204999987443,1181.2204999987443
4,20260325_121644,D,J,False,AUTOMATION2,3,155,955,fixed_delta,0.04274353132498164,0.014104974879815414,,,,,0.5512118113403375,1984,1616,1,0.65,BLACK,BLACK,True,0,0.0010000003385357559,BLACK,True,CORRECT,1.8556967000004079,1855.6967000004079
4,20260325_121644,D,J,False,AUTOMATION2,3,156,956,fixed_delta,0.04274353132498164,0.014104974879815414,,,,,0.5160031991254914,1858,1742,1,0.65,BLACK,BLACK,True,0,0.0010000003385357559,BLACK,True,CORRECT,3.30621710000014,3306.21710000014
4,20260325_121644,D,J,False,AUTOMATION2,3,157,957,fixed_delta,0.04274353132498164,0.014104974879815414,,,,,0.5333703307214327,1920,1680,1,0.65,BLACK,BLACK,True,0,0.0017000002117129043,BLACK,True,CORRECT,0.6388705000008486,638.8705000008486
4,20260325_121644,D,J,False,AUTOMATION2,3,158,958,fixed_delta,0.04274353132498164,0.014104974879815414,,,,,0.5286744587278893,1903,1697,1,0.65,BLACK,WHITE,False,0,0.0012000000424450263,BLACK,True,CORRECT,1.4583330000004935,1458.3330000004935
4,20260325_121644,D,J,False,AUTOMATION2,3,159,959,fixed_delta,0.04274353132498164,0.014104974879815414,,,,,0.563074348261563,2027,1573,1,0.65,BLACK,WHITE,False,0,0.0016999983927235007,BLACK,True,CORRECT,2.016452500000014,2016.452500000014
4,20260325_121644,D,J,False,AUTOMATION2,3,160,960,fixed_delta,0.04274353132498164,0.014104974879815414,,,,,0.5266495366637063,1896,1704,1,0.65,BLACK,BLACK,True,0,0.0015000005078036338,BLACK,True,CORRECT,2.9444533999994746,2944.4533999994746
4,20260325_121644,D,J,False,AUTOMATION2,3,161,961,fixed_delta,0.04274353132498164,0.014104974879815414,,,,,0.44818677101002724,1613,1987,1,0.65,WHITE,WHITE,True,0,0.0010999992809956893,WHITE,True,CORRECT,1.1353170999991562,1135.3170999991562
4,20260325_121644,D,J,False,AUTOMATION2,3,162,962,fixed_delta,0.04274353132498164,0.014104974879815414,,,,,0.4597536451519093,1655,1945,1,0.65,WHITE,BLACK,False,0,0.0018999999156221747,WHITE,True,CORRECT,0.80434570000034,804.34570000034
4,20260325_121644,D,J,False,AUTOMATION2,3,163,963,fixed_delta,0.04274353132498164,0.014104974879815414,,,,,0.47053620525926254,1694,1906,1,0.65,WHITE,WHITE,True,0,0.0016000012692529708,WHITE,True,CORRECT,0.7309039000010671,730.9039000010671
4,20260325_121644,D,J,False,AUTOMATION2,3,164,964,fixed_delta,0.04274353132498164,0.014104974879815414,,,,,0.5441004376808493,1959,1641,1,0.65,BLACK,BLACK,True,0,0.0014000015653437003,BLACK,True,CORRECT,2.2081078000010166,2208.1078000010166
4,20260325_121644,D,J,False,AUTOMATION2,3,165,965,fixed_delta,0.04274353132498164,0.014104974879815414,,,,,0.5509627261146522,1983,1617,1,0.65,BLACK,BLACK,True,0,0.0013000008038943633,BLACK,True,CORRECT,1.2488886999999522,1248.8886999999522
4,20260325_121644,D,J,False,AUTOMATION2,3,166,966,fixed_delta,0.04274353132498164,0.014104974879815414,,,,,0.45310149664964855,1631,1969,1,0.65,WHITE,BLACK,False,0,0.0012000000424450263,BLACK,False,INCORRECT,0.5911957000007533,591.1957000007533
4,20260325_121644,D,J,False,AUTOMATION2,3,167,967,fixed_delta,0.04274353132498164,0.014104974879815414,,,,,0.4504477093253041,1622,1978,1,0.65,WHITE,BLACK,False,0,0.0017999991541728377,BLACK,False,INCORRECT,1.4308777000005648,1430.8777000005648
4,20260325_121644,D,J,False,AUTOMATION2,3,168,968,fixed_delta,0.04274353132498164,0.014104974879815414,,,,,0.45467112909934126,1637,1963,1,0.65,WHITE,WHITE,True,0,0.0017000002117129043,WHITE,True,CORRECT,0.7331228999992163,733.1228999992163
4,20260325_121644,D,J,False,AUTOMATION2,3,169,969,fixed_delta,0.04274353132498164,0.014104974879815414,,,,,0.5383538296909812,1938,1662,1,0.65,BLACK,WHITE,False,0,0.0014999986888142303,BLACK,True,CORRECT,2.105030099999567,2105.030099999567
4,20260325_121644,D,J,False,AUTOMATION2,3,170,970,fixed_delta,0.04274353132498164,0.014104974879815414,,,,,0.4589185355420547,1652,1948,1,0.65,WHITE,WHITE,True,0,0.0015000005078036338,WHITE,True,CORRECT,1.0718556000010722,1071.8556000010722
4,20260325_121644,D,J,False,AUTOMATION2,3,171,971,fixed_delta,0.04274353132498164,0.014104974879815414,,,,,0.437834109102126,1576,2024,1,0.65,WHITE,WHITE,True,0,0.0012000000424450263,WHITE,True,CORRECT,0.5748853000004601,574.8853000004601
4,20260325_121644,D,J,False,AUTOMATION2,3,172,972,fixed_delta,0.04274353132498164,0.014104974879815414,,,,,0.5306774334655389,1910,1690,1,0.65,BLACK,WHITE,False,0,0.0015000005078036338,WHITE,False,INCORRECT,0.6937395000004472,693.7395000004472
4,20260325_121644,D,J,False,AUTOMATION2,3,173,973,fixed_delta,0.04274353132498164,0.014104974879815414,,,,,0.5332516230377778,1920,1680,1,0.65,BLACK,BLACK,True,0,0.0018999999156221747,BLACK,True,CORRECT,0.6445180000009714,644.5180000009714
4,20260325_121644,D,J,False,AUTOMATION2,3,174,974,fixed_delta,0.04274353132498164,0.014104974879815414,,,,,0.45512962874576113,1638,1962,1,0.65,WHITE,BLACK,False,0,0.0012000000424450263,BLACK,False,INCORRECT,0.8171466999992845,817.1466999992845
4,20260325_121644,D,J,False,AUTOMATION2,3,175,975,fixed_delta,0.04274353132498164,0.014104974879815414,,,,,0.5472195773761818,1970,1630,1,0.65,BLACK,BLACK,True,0,0.0009999985195463523,BLACK,True,CORRECT,0.6406753999999637,640.6753999999637
4,20260325_121644,D,J,False,AUTOMATION2,3,176,976,fixed_delta,0.04274353132498164,0.014104974879815414,,,,,0.5483794734542743,1974,1626,1,0.65,BLACK,BLACK,True,0,0.0012000000424450263,BLACK,True,CORRECT,0.5967682000009518,596.7682000009518
4,20260325_121644,D,J,False,AUTOMATION2,3,177,977,fixed_delta,0.04274353132498164,0.014104974879815414,,,,,0.45121406103809164,1624,1976,1,0.65,WHITE,WHITE,True,0,0.0015000005078036338,WHITE,True,CORRECT,1.4099177999996755,1409.9177999996755
4,20260325_121644,D,J,False,AUTOMATION2,3,178,978,fixed_delta,0.04274353132498164,0.014104974879815414,,,,,0.4639063424984289,1670,1930,1,0.65,WHITE,BLACK,False,0,0.0036999990697950125,BLACK,False,INCORRECT,0.7864300999990519,786.4300999990519
4,20260325_121644,D,J,False,AUTOMATION2,3,179,979,fixed_delta,0.04274353132498164,0.014104974879815414,,,,,0.5116572534690936,1842,1758,1,0.65,BLACK,BLACK,True,0,0.0012000000424450263,BLACK,True,CORRECT,2.607599000000846,2607.599000000846
4,20260325_121644,D,J,False,AUTOMATION2,3,180,980,fixed_delta,0.04274353132498164,0.014104974879815414,,,,,0.5528822812001274,1990,1610,1,0.65,BLACK,BLACK,True,0,0.0013000008038943633,BLACK,True,CORRECT,3.9759039000000485,3975.9039000000485
4,20260325_121644,D,J,False,AUTOMATION2,3,181,981,fixed_delta,0.04274353132498164,0.014104974879815414,,,,,0.4589591296538994,1652,1948,1,0.65,WHITE,BLACK,False,0,0.0009000013960758224,WHITE,True,CORRECT,0.7202773999997589,720.2773999997589
4,20260325_121644,D,J,False,AUTOMATION2,3,182,982,fixed_delta,0.04274353132498164,0.014104974879815414,,,,,0.5527234758219741,1990,1610,1,0.65,BLACK,BLACK,True,0,0.0012999989849049598,BLACK,True,CORRECT,1.1488525000004302,1148.8525000004302
4,20260325_121644,D,J,False,AUTOMATION2,3,183,983,fixed_delta,0.04274353132498164,0.014104974879815414,,,,,0.44747751036209604,1611,1989,1,0.65,WHITE,BLACK,False,0,0.0010000003385357559,WHITE,True,CORRECT,1.0534774999996444,1053.4774999996444
4,20260325_121644,D,J,False,AUTOMATION2,3,184,984,fixed_delta,0.04274353132498164,0.014104974879815414,,,,,0.5561824542393253,2002,1598,1,0.65,BLACK,BLACK,True,0,0.0010000003385357559,BLACK,True,CORRECT,1.5122417000002315,1512.2417000002315
4,20260325_121644,D,J,False,AUTOMATION2,3,185,985,fixed_delta,0.04274353132498164,0.014104974879815414,,,,,0.5436247878165273,1957,1643,1,0.65,BLACK,BLACK,True,0,0.0012000000424450263,BLACK,True,CORRECT,0.5955601999994542,595.5601999994542
4,20260325_121644,D,J,False,AUTOMATION2,3,186,986,fixed_delta,0.04274353132498164,0.014104974879815414,,,,,0.4591178206244202,1653,1947,1,0.65,WHITE,WHITE,True,0,0.0013999997463542968,WHITE,True,CORRECT,1.0393671000001632,1039.3671000001632
4,20260325_121644,D,J,False,AUTOMATION2,3,187,987,fixed_delta,0.04274353132498164,0.014104974879815414,,,,,0.5538326938925944,1994,1606,1,0.65,BLACK,WHITE,False,0,0.0010000003385357559,BLACK,True,CORRECT,2.7353020000009565,2735.3020000009565
4,20260325_121644,D,J,False,AUTOMATION2,3,188,988,fixed_delta,0.04274353132498164,0.014104974879815414,,,,,0.5516480805228643,1986,1614,1,0.65,BLACK,WHITE,False,0,0.0015000005078036338,WHITE,False,INCORRECT,1.810224200000448,1810.224200000448
4,20260325_121644,D,J,False,AUTOMATION2,3,189,989,fixed_delta,0.04274353132498164,0.014104974879815414,,,,,0.5297604617017271,1907,1693,1,0.65,BLACK,BLACK,True,0,0.0010999992809956893,BLACK,True,CORRECT,0.6574039999995875,657.4039999995875
4,20260325_121644,D,J,False,AUTOMATION2,3,190,990,fixed_delta,0.04274353132498164,0.014104974879815414,,,,,0.46179448086940206,1662,1938,1,0.65,WHITE,WHITE,True,0,0.0013999997463542968,WHITE,True,CORRECT,0.7497732000010728,749.7732000010728
4,20260325_121644,D,J,False,AUTOMATION2,3,191,991,fixed_delta,0.04274353132498164,0.014104974879815414,,,,,0.4584363004503454,1650,1950,1,0.65,WHITE,BLACK,False,0,0.0013999997463542968,BLACK,False,INCORRECT,1.5212879999999132,1521.2879999999132
4,20260325_121644,D,J,False,AUTOMATION2,3,192,992,fixed_delta,0.04274353132498164,0.014104974879815414,,,,,0.5430532801997857,1955,1645,1,0.65,BLACK,WHITE,False,0,0.0014000015653437003,WHITE,False,INCORRECT,0.6740896999999677,674.0896999999677
4,20260325_121644,D,J,False,AUTOMATION2,3,193,993,fixed_delta,0.04274353132498164,0.014104974879815414,,,,,0.5618787325573082,2023,1577,1,0.65,BLACK,WHITE,False,0,0.0015000005078036338,BLACK,True,CORRECT,1.4738532999999734,1473.8532999999734
4,20260325_121644,D,J,False,AUTOMATION2,3,194,994,fixed_delta,0.04274353132498164,0.014104974879815414,,,,,0.5333553298828289,1920,1680,1,0.65,BLACK,BLACK,True,0,0.0013000008038943633,BLACK,True,CORRECT,1.0513029000012466,1051.3029000012466
4,20260325_121644,D,J,False,AUTOMATION2,3,195,995,fixed_delta,0.04274353132498164,0.014104974879815414,,,,,0.533588551029179,1921,1679,1,0.65,BLACK,BLACK,True,0,0.0012000000424450263,BLACK,True,CORRECT,0.9852805000009539,985.2805000009539
4,20260325_121644,D,J,False,AUTOMATION2,3,196,996,fixed_delta,0.04274353132498164,0.014104974879815414,,,,,0.5479440023262299,1973,1627,1,0.65,BLACK,BLACK,True,0,0.0011000010999850929,BLACK,True,CORRECT,0.5961194000010437,596.1194000010437
4,20260325_121644,D,J,False,AUTOMATION2,3,197,997,fixed_delta,0.04274353132498164,0.014104974879815414,,,,,0.531347283948881,1913,1687,1,0.65,BLACK,BLACK,True,0,0.0012999989849049598,WHITE,False,INCORRECT,1.809944299999188,1809.944299999188
4,20260325_121644,D,J,False,AUTOMATION2,3,198,998,fixed_delta,0.04274353132498164,0.014104974879815414,,,,,0.47684449396979967,1717,1883,1,0.65,WHITE,WHITE,True,0,0.0013999997463542968,WHITE,True,CORRECT,0.6892219000001205,689.2219000001205
4,20260325_121644,D,J,False,AUTOMATION2,3,199,999,fixed_delta,0.04274353132498164,0.014104974879815414,,,,,0.45020393302837264,1621,1979,1,0.65,WHITE,BLACK,False,0,0.0011000010999850929,WHITE,True,CORRECT,0.7605553000012151,760.5553000012151
4,20260325_121644,D,J,False,AUTOMATION2,3,200,1000,fixed_delta,0.04274353132498164,0.014104974879815414,,,,,0.5308082589839094,1911,1689,1,0.65,BLACK,BLACK,True,0,0.0015999994502635673,BLACK,True,CORRECT,1.5321936999989703,1532.1936999989703
4,20260325_121644,D,J,False,AUTOMATION2,3,201,1001,fixed_delta,0.04274353132498164,0.014104974879815414,,,,,0.4669377061713869,1681,1919,1,0.65,WHITE,WHITE,True,0,0.0015999994502635673,WHITE,True,CORRECT,0.7654199999997218,765.4199999997218
4,20260325_121644,D,J,False,AUTOMATION2,3,202,1002,fixed_delta,0.04274353132498164,0.014104974879815414,,,,,0.43944849280967846,1582,2018,1,0.65,WHITE,BLACK,False,0,0.0013000008038943633,WHITE,True,CORRECT,2.9295053000005282,2929.505300000528
4,20260325_121644,D,J,False,AUTOMATION2,3,203,1003,fixed_delta,0.04274353132498164,0.014104974879815414,,,,,0.439685787225731,1583,2017,1,0.65,WHITE,WHITE,True,0,0.0010999992809956893,WHITE,True,CORRECT,0.723990499998763,723.990499998763
4,20260325_121644,D,J,False,AUTOMATION2,3,204,1004,fixed_delta,0.04274353132498164,0.014104974879815414,,,,,0.4639978557208886,1670,1930,1,0.65,WHITE,WHITE,True,0,0.0010999992809956893,WHITE,True,CORRECT,0.7709285999990243,770.9285999990243
4,20260325_121644,D,J,False,AUTOMATION2,3,205,1005,fixed_delta,0.04274353132498164,0.014104974879815414,,,,,0.45241494325220294,1629,1971,1,0.65,WHITE,WHITE,True,0,0.0008999995770864189,WHITE,True,CORRECT,0.5403010999998514,540.3010999998514
4,20260325_121644,D,J,False,AUTOMATION2,3,206,1006,fixed_delta,0.04274353132498164,0.014104974879815414,,,,,0.5542935976247138,1995,1605,1,0.65,BLACK,BLACK,True,0,0.0013000008038943633,BLACK,True,CORRECT,0.6714016999994783,671.4016999994783
4,20260325_121644,D,J,False,AUTOMATION2,3,207,1007,fixed_delta,0.04274353132498164,0.014104974879815414,,,,,0.5390485963729829,1941,1659,1,0.65,BLACK,BLACK,True,0,0.0013999997463542968,BLACK,True,CORRECT,1.2230641999994987,1223.0641999994987
4,20260325_121644,D,J,False,AUTOMATION2,3,208,1008,fixed_delta,0.04274353132498164,0.014104974879815414,,,,,0.466324776547951,1679,1921,1,0.65,WHITE,WHITE,True,0,0.0015000005078036338,WHITE,True,CORRECT,0.7835677000002761,783.5677000002761
4,20260325_121644,D,J,False,AUTOMATION2,3,209,1009,fixed_delta,0.04274353132498164,0.014104974879815414,,,,,0.46712013384532425,1682,1918,1,0.65,WHITE,WHITE,True,0,0.0010999992809956893,BLACK,False,INCORRECT,3.1365630000000237,3136.5630000000237
4,20260325_121644,D,J,False,AUTOMATION2,3,210,1010,fixed_delta,0.04274353132498164,0.014104974879815414,,,,,0.5116756310390986,1842,1758,1,0.65,BLACK,WHITE,False,0,0.0017999991541728377,BLACK,True,CORRECT,3.6790392999992036,3679.0392999992036
4,20260325_121644,D,J,False,AUTOMATION2,3,211,1011,fixed_delta,0.04274353132498164,0.014104974879815414,,,,,0.5120991624167566,1844,1756,1,0.65,BLACK,BLACK,True,0,0.0012000000424450263,BLACK,True,CORRECT,2.389326800001072,2389.326800001072
4,20260325_121644,D,J,False,AUTOMATION2,3,212,1012,fixed_delta,0.04274353132498164,0.014104974879815414,,,,,0.4718772654501239,1699,1901,1,0.65,WHITE,WHITE,True,0,0.0016000012692529708,WHITE,True,CORRECT,0.6666132000009384,666.6132000009384
4,20260325_121644,D,J,False,AUTOMATION2,3,213,1013,fixed_delta,0.04274353132498164,0.014104974879815414,,,,,0.44811822774482785,1613,1987,1,0.65,WHITE,WHITE,True,0,0.0013000008038943633,WHITE,True,CORRECT,0.6648643999997148,664.8643999997148
4,20260325_121644,D,J,False,AUTOMATION2,3,214,1014,fixed_delta,0.04274353132498164,0.014104974879815414,,,,,0.5111759846358233,1840,1760,1,0.65,BLACK,BLACK,True,0,0.0010000003385357559,BLACK,True,CORRECT,1.2928878000002442,1292.8878000002442
4,20260325_121644,D,J,False,AUTOMATION2,3,215,1015,fixed_delta,0.04274353132498164,0.014104974879815414,,,,,0.5608664523114094,2019,1581,1,0.65,BLACK,WHITE,False,0,0.0014999986888142303,BLACK,True,CORRECT,1.3838569999988977,1383.8569999988977
4,20260325_121644,D,J,False,AUTOMATION2,3,216,1016,fixed_delta,0.04274353132498164,0.014104974879815414,,,,,0.5516533678668225,1986,1614,1,0.65,BLACK,WHITE,False,0,0.0010000003385357559,BLACK,True,CORRECT,1.6079245999990235,1607.9245999990235
4,20260325_121644,D,J,False,AUTOMATION2,3,217,1017,fixed_delta,0.04274353132498164,0.014104974879815414,,,,,0.47225115391739364,1700,1900,1,0.65,WHITE,WHITE,True,0,0.0014999986888142303,BLACK,False,INCORRECT,1.822703099998762,1822.703099998762
4,20260325_121644,D,J,False,AUTOMATION2,3,218,1018,fixed_delta,0.04274353132498164,0.014104974879815414,,,,,0.4556937916467529,1640,1960,1,0.65,WHITE,BLACK,False,0,0.0012000000424450263,WHITE,True,CORRECT,3.6763062000009086,3676.3062000009086
4,20260325_121644,D,J,False,AUTOMATION2,3,219,1019,fixed_delta,0.04274353132498164,0.014104974879815414,,,,,0.5573104310162282,2006,1594,1,0.65,BLACK,BLACK,True,0,0.0010000003385357559,BLACK,True,CORRECT,0.7388629000015499,738.8629000015499
4,20260325_121644,D,J,False,AUTOMATION2,3,220,1020,fixed_delta,0.04274353132498164,0.014104974879815414,,,,,0.47070726298024207,1695,1905,1,0.65,WHITE,BLACK,False,0,0.0010000003385357559,WHITE,True,CORRECT,0.7151584999992338,715.1584999992338
4,20260325_121644,D,J,False,AUTOMATION2,3,221,1021,fixed_delta,0.04274353132498164,0.014104974879815414,,,,,0.5340976598020241,1923,1677,1,0.65,BLACK,WHITE,False,0,0.0015000005078036338,WHITE,False,INCORRECT,1.737435099999857,1737.435099999857
4,20260325_121644,D,J,False,AUTOMATION2,3,222,1022,fixed_delta,0.04274353132498164,0.014104974879815414,,,,,0.5431151821121512,1955,1645,1,0.65,BLACK,WHITE,False,0,0.0010999992809956893,BLACK,True,CORRECT,2.672589499999958,2672.589499999958
4,20260325_121644,D,J,False,AUTOMATION2,3,223,1023,fixed_delta,0.04274353132498164,0.014104974879815414,,,,,0.442175574617855,1592,2008,1,0.65,WHITE,WHITE,True,0,0.0012000000424450263,WHITE,True,CORRECT,0.754695300000094,754.695300000094
4,20260325_121644,D,J,False,AUTOMATION2,3,224,1024,fixed_delta,0.04274353132498164,0.014104974879815414,,,,,0.49098019554868877,1768,1832,1,0.65,WHITE,BLACK,False,0,0.0015000005078036338,BLACK,False,INCORRECT,0.7131972000006499,713.1972000006499
4,20260325_121644,D,J,False,AUTOMATION2,3,225,1025,fixed_delta,0.04274353132498164,0.014104974879815414,,,,,0.5366159463256547,1932,1668,1,0.65,BLACK,WHITE,False,0,0.0012999989849049598,WHITE,False,INCORRECT,0.8712340999991284,871.2340999991284
4,20260325_121644,D,J,False,AUTOMATION2,3,226,1026,fixed_delta,0.04274353132498164,0.014104974879815414,,,,,0.5329577445556116,1919,1681,1,0.65,BLACK,WHITE,False,0,0.0010999992809956893,BLACK,True,CORRECT,0.7000702999994246,700.0702999994246
4,20260325_121644,D,J,False,AUTOMATION2,3,227,1027,fixed_delta,0.04274353132498164,0.014104974879815414,,,,,0.48015472928888303,1729,1871,1,0.65,WHITE,WHITE,True,0,0.0011000010999850929,WHITE,True,CORRECT,1.2597777000009955,1259.7777000009955
4,20260325_121644,D,J,False,AUTOMATION2,3,228,1028,fixed_delta,0.04274353132498164,0.014104974879815414,,,,,0.5415201109889813,1949,1651,1,0.65,BLACK,BLACK,True,0,0.0009000013960758224,BLACK,True,CORRECT,0.7022267000011198,702.2267000011198
4,20260325_121644,D,J,False,AUTOMATION2,3,229,1029,fixed_delta,0.04274353132498164,0.014104974879815414,,,,,0.5395003331876831,1942,1658,1,0.65,BLACK,WHITE,False,0,0.0015999994502635673,BLACK,True,CORRECT,1.1513347999989492,1151.3347999989492
4,20260325_121644,D,J,False,AUTOMATION2,3,230,1030,fixed_delta,0.04274353132498164,0.014104974879815414,,,,,0.45766541919479986,1648,1952,1,0.65,WHITE,WHITE,True,0,0.0008999995770864189,WHITE,True,CORRECT,0.8602071999994223,860.2071999994223
4,20260325_121644,D,J,False,AUTOMATION2,3,231,1031,fixed_delta,0.04274353132498164,0.014104974879815414,,,,,0.45602729469648823,1642,1958,1,0.65,WHITE,WHITE,True,0,0.0010000003385357559,WHITE,True,CORRECT,0.5655528000006598,565.5528000006598
4,20260325_121644,D,J,False,AUTOMATION2,3,232,1032,fixed_delta,0.04274353132498164,0.014104974879815414,,,,,0.550308716700229,1981,1619,1,0.65,BLACK,BLACK,True,0,0.0013999997463542968,BLACK,True,CORRECT,0.5512264000008145,551.2264000008145
4,20260325_121644,D,J,False,AUTOMATION2,3,233,1033,fixed_delta,0.04274353132498164,0.014104974879815414,,,,,0.4724103006509004,1701,1899,1,0.65,WHITE,WHITE,True,0,0.0009999985195463523,WHITE,True,CORRECT,0.8004806999997527,800.4806999997527
4,20260325_121644,D,J,False,AUTOMATION2,3,234,1034,fixed_delta,0.04274353132498164,0.014104974879815414,,,,,0.5350980980230573,1926,1674,1,0.65,BLACK,BLACK,True,0,0.0012000000424450263,BLACK,True,CORRECT,0.9860637999991013,986.0637999991013
4,20260325_121644,D,J,False,AUTOMATION2,3,235,1035,fixed_delta,0.04274353132498164,0.014104974879815414,,,,,0.5312061145118806,1912,1688,1,0.65,BLACK,WHITE,False,0,0.0010000003385357559,BLACK,True,CORRECT,1.1211347000007663,1121.1347000007663
4,20260325_121644,D,J,False,AUTOMATION2,3,236,1036,fixed_delta,0.04274353132498164,0.014104974879815414,,,,,0.45184707268619173,1627,1973,1,0.65,WHITE,WHITE,True,0,0.0010000003385357559,WHITE,True,CORRECT,0.6991503999997803,699.1503999997803
4,20260325_121644,D,J,False,AUTOMATION2,3,237,1037,fixed_delta,0.04274353132498164,0.014104974879815414,,,,,0.47443187688145105,1708,1892,1,0.65,WHITE,BLACK,False,0,0.0010000003385357559,WHITE,True,CORRECT,1.6032869999999093,1603.2869999999093
4,20260325_121644,D,J,False,AUTOMATION2,3,238,1038,fixed_delta,0.04274353132498164,0.014104974879815414,,,,,0.5473743384262413,1971,1629,1,0.65,BLACK,BLACK,True,0,0.0010999992809956893,BLACK,True,CORRECT,0.9376298999995925,937.6298999995925
4,20260325_121644,D,J,False,AUTOMATION2,3,239,1039,fixed_delta,0.04274353132498164,0.014104974879815414,,,,,0.4725122549955788,1701,1899,1,0.65,WHITE,WHITE,True,0,0.0010999992809956893,WHITE,True,CORRECT,0.8318975000001956,831.8975000001956
4,20260325_121644,D,J,False,AUTOMATION2,3,240,1040,fixed_delta,0.04274353132498164,0.014104974879815414,,,,,0.48605164952669155,1750,1850,1,0.65,WHITE,WHITE,True,0,0.0013000008038943633,WHITE,True,CORRECT,0.5926742999999988,592.6742999999988
4,20260325_121644,D,J,False,AUTOMATION2,3,241,1041,fixed_delta,0.04274353132498164,0.014104974879815414,,,,,0.4707392655535897,1695,1905,1,0.65,WHITE,WHITE,True,0,0.0009999985195463523,WHITE,True,CORRECT,0.610514999998486,610.514999998486
4,20260325_121644,D,J,False,AUTOMATION2,3,242,1042,fixed_delta,0.04274353132498164,0.014104974879815414,,,,,0.43364614039463073,1561,2039,1,0.65,WHITE,WHITE,True,0,0.0010999992809956893,WHITE,True,CORRECT,0.5409154999997554,540.9154999997554
4,20260325_121644,D,J,False,AUTOMATION2,3,243,1043,fixed_delta,0.04274353132498164,0.014104974879815414,,,,,0.5616179748371578,2022,1578,1,0.65,BLACK,BLACK,True,0,0.0010999992809956893,BLACK,True,CORRECT,1.7302792999998928,1730.2792999998928
4,20260325_121644,D,J,False,AUTOMATION2,3,244,1044,fixed_delta,0.04274353132498164,0.014104974879815414,,,,,0.5201227060528778,1872,1728,1,0.65,BLACK,WHITE,False,0,0.0013000008038943633,WHITE,False,INCORRECT,0.7211972999994032,721.1972999994032
4,20260325_121644,D,J,False,AUTOMATION2,3,245,1045,fixed_delta,0.04274353132498164,0.014104974879815414,,,,,0.5423172267666433,1952,1648,1,0.65,BLACK,BLACK,True,0,0.0012999989849049598,BLACK,True,CORRECT,1.1481889999995474,1148.1889999995474
4,20260325_121644,D,J,False,AUTOMATION2,3,246,1046,fixed_delta,0.04274353132498164,0.014104974879815414,,,,,0.4563854905339533,1643,1957,1,0.65,WHITE,WHITE,True,0,0.0010999992809956893,WHITE,True,CORRECT,0.5461090999997396,546.1090999997396
4,20260325_121644,D,J,False,AUTOMATION2,3,247,1047,fixed_delta,0.04274353132498164,0.014104974879815414,,,,,0.5085414749439213,1831,1769,1,0.65,BLACK,BLACK,True,0,0.0010000003385357559,BLACK,True,CORRECT,0.5132582999995066,513.2582999995066
4,20260325_121644,D,J,False,AUTOMATION2,3,248,1048,fixed_delta,0.04274353132498164,0.014104974879815414,,,,,0.530559651368182,1910,1690,1,0.65,BLACK,WHITE,False,0,0.0015000005078036338,BLACK,True,CORRECT,1.5360257000011188,1536.0257000011188
4,20260325_121644,D,J,False,AUTOMATION2,3,249,1049,fixed_delta,0.04274353132498164,0.014104974879815414,,,,,0.4798186567716662,1727,1873,1,0.65,WHITE,WHITE,True,0,0.0017999991541728377,WHITE,True,CORRECT,2.901708099998359,2901.708099998359
4,20260325_121644,D,J,False,AUTOMATION2,3,250,1050,fixed_delta,0.04274353132498164,0.014104974879815414,,,,,0.5538513720174856,1994,1606,1,0.65,BLACK,BLACK,True,0,0.0025000008463393897,BLACK,True,CORRECT,0.5879631000007066,587.9631000007066
4,20260325_121644,D,J,False,AUTOMATION2,3,251,1051,fixed_delta,0.04274353132498164,0.014104974879815414,,,,,0.5451247911018658,1962,1638,1,0.65,BLACK,BLACK,True,0,0.0009000013960758224,BLACK,True,CORRECT,3.6817283000000316,3681.7283000000316
4,20260325_121644,D,J,False,AUTOMATION2,3,252,1052,fixed_delta,0.04274353132498164,0.014104974879815414,,,,,0.43502578308089496,1566,2034,1,0.65,WHITE,BLACK,False,0,0.0012000000424450263,WHITE,True,CORRECT,1.756704900000841,1756.704900000841
4,20260325_121644,D,J,False,AUTOMATION2,3,253,1053,fixed_delta,0.04274353132498164,0.014104974879815414,,,,,0.529346041602991,1906,1694,1,0.65,BLACK,WHITE,False,0,0.0013999997463542968,BLACK,True,CORRECT,2.6105210999994597,2610.5210999994597
4,20260325_121644,D,J,False,AUTOMATION2,3,254,1054,fixed_delta,0.04274353132498164,0.014104974879815414,,,,,0.46852789619161417,1687,1913,1,0.65,WHITE,WHITE,True,0,0.0010999992809956893,WHITE,True,CORRECT,1.3472068999999465,1347.2068999999465
4,20260325_121644,D,J,False,AUTOMATION2,3,255,1055,fixed_delta,0.04274353132498164,0.014104974879815414,,,,,0.4718343641084369,1699,1901,1,0.65,WHITE,WHITE,True,0,0.0010000003385357559,WHITE,True,CORRECT,0.9498266999999032,949.8266999999032
4,20260325_121644,D,J,False,AUTOMATION2,3,256,1056,fixed_delta,0.04274353132498164,0.014104974879815414,,,,,0.5441348577710212,1959,1641,1,0.65,BLACK,WHITE,False,0,0.0013999997463542968,WHITE,False,INCORRECT,0.7694984999998269,769.4984999998269
4,20260325_121644,D,J,False,AUTOMATION2,3,257,1057,fixed_delta,0.04274353132498164,0.014104974879815414,,,,,0.5605428871561658,2018,1582,1,0.65,BLACK,WHITE,False,0,0.0012000000424450263,BLACK,True,CORRECT,2.5266290999988996,2526.6290999988996
4,20260325_121644,D,J,False,AUTOMATION2,3,258,1058,fixed_delta,0.04274353132498164,0.014104974879815414,,,,,0.5397812146268112,1943,1657,1,0.65,BLACK,WHITE,False,0,0.0008999995770864189,BLACK,True,CORRECT,1.3673971999996866,1367.3971999996866
4,20260325_121644,D,J,False,AUTOMATION2,3,259,1059,fixed_delta,0.04274353132498164,0.014104974879815414,,,,,0.5305327492843844,1910,1690,1,0.65,BLACK,BLACK,True,0,0.0016999983927235007,BLACK,True,CORRECT,0.8313482999983535,831.3482999983535
4,20260325_121644,D,J,False,AUTOMATION2,3,260,1060,fixed_delta,0.04274353132498164,0.014104974879815414,,,,,0.5675793753285201,2043,1557,1,0.65,BLACK,BLACK,True,0,0.0013000008038943633,BLACK,True,CORRECT,0.5945585000008577,594.5585000008577
4,20260325_121644,D,J,False,AUTOMATION2,3,261,1061,fixed_delta,0.04274353132498164,0.014104974879815414,,,,,0.4546395000831231,1637,1963,1,0.65,WHITE,WHITE,True,0,0.0012000000424450263,WHITE,True,CORRECT,0.8303833000009035,830.3833000009035
4,20260325_121644,D,J,False,AUTOMATION2,3,262,1062,fixed_delta,0.04274353132498164,0.014104974879815414,,,,,0.5493592460043376,1978,1622,1,0.65,BLACK,WHITE,False,0,0.0012000000424450263,BLACK,True,CORRECT,0.8392423999994207,839.2423999994207
4,20260325_121644,D,J,False,AUTOMATION2,3,263,1063,fixed_delta,0.04274353132498164,0.014104974879815414,,,,,0.5420311752665407,1951,1649,1,0.65,BLACK,WHITE,False,0,0.0013000008038943633,BLACK,True,CORRECT,1.2833664000008866,1283.3664000008866
4,20260325_121644,D,J,False,AUTOMATION2,3,264,1064,fixed_delta,0.04274353132498164,0.014104974879815414,,,,,0.5439194486695162,1958,1642,1,0.65,BLACK,WHITE,False,0,0.0009999985195463523,BLACK,True,CORRECT,0.7158841000000393,715.8841000000393
4,20260325_121644,D,J,False,AUTOMATION2,3,265,1065,fixed_delta,0.04274353132498164,0.014104974879815414,,,,,0.4560383466543862,1642,1958,1,0.65,WHITE,BLACK,False,0,0.0014999986888142303,WHITE,True,CORRECT,2.077651199999309,2077.651199999309
4,20260325_121644,D,J,False,AUTOMATION2,3,266,1066,fixed_delta,0.04274353132498164,0.014104974879815414,,,,,0.44265770333825766,1594,2006,1,0.65,WHITE,WHITE,True,0,0.0015000005078036338,WHITE,True,CORRECT,2.9191987000012887,2919.1987000012887
4,20260325_121644,D,J,False,AUTOMATION2,3,267,1067,fixed_delta,0.04274353132498164,0.014104974879815414,,,,,0.5588986679756227,2012,1588,1,0.65,BLACK,BLACK,True,0,0.0010999992809956893,BLACK,True,CORRECT,1.0651084000000992,1065.1084000000992
4,20260325_121644,D,J,False,AUTOMATION2,3,268,1068,fixed_delta,0.04274353132498164,0.014104974879815414,,,,,0.5535353206456257,1993,1607,1,0.65,BLACK,BLACK,True,0,0.0018999999156221747,BLACK,True,CORRECT,1.6790947999998025,1679.0947999998025
4,20260325_121644,D,J,False,AUTOMATION2,3,269,1069,fixed_delta,0.04274353132498164,0.014104974879815414,,,,,0.4651433792953882,1675,1925,1,0.65,WHITE,WHITE,True,0,0.0013999997463542968,WHITE,True,CORRECT,0.7633447999996861,763.3447999996861
4,20260325_121644,D,J,False,AUTOMATION2,3,270,1070,fixed_delta,0.04274353132498164,0.014104974879815414,,,,,0.5247998334943969,1889,1711,1,0.65,BLACK,BLACK,True,0,0.0011000010999850929,BLACK,True,CORRECT,1.1116796000005706,1111.6796000005706
4,20260325_121644,D,J,False,AUTOMATION2,3,271,1071,fixed_delta,0.04274353132498164,0.014104974879815414,,,,,0.534654497593042,1925,1675,1,0.65,BLACK,BLACK,True,0,0.0018999999156221747,BLACK,True,CORRECT,0.6686076000005414,668.6076000005414
4,20260325_121644,D,J,False,AUTOMATION2,3,272,1072,fixed_delta,0.04274353132498164,0.014104974879815414,,,,,0.4510386438885437,1624,1976,1,0.65,WHITE,WHITE,True,0,0.0011000010999850929,WHITE,True,CORRECT,0.7047630000015488,704.7630000015488
4,20260325_121644,D,J,False,AUTOMATION2,3,273,1073,fixed_delta,0.04274353132498164,0.014104974879815414,,,,,0.4290885678228913,1545,2055,1,0.65,WHITE,WHITE,True,0,0.0009000013960758224,WHITE,True,CORRECT,0.6282692000004317,628.2692000004317
4,20260325_121644,D,J,False,AUTOMATION2,3,274,1074,fixed_delta,0.04274353132498164,0.014104974879815414,,,,,0.43488253979394126,1566,2034,1,0.65,WHITE,WHITE,True,0,0.0008999995770864189,WHITE,True,CORRECT,0.6429298000002746,642.9298000002746
4,20260325_121644,D,J,False,AUTOMATION2,3,275,1075,fixed_delta,0.04274353132498164,0.014104974879815414,,,,,0.4891529829516803,1761,1839,1,0.65,WHITE,WHITE,True,0,0.0013000008038943633,BLACK,False,INCORRECT,0.6847532000010688,684.7532000010688
4,20260325_121644,D,J,False,AUTOMATION2,3,276,1076,fixed_delta,0.04274353132498164,0.014104974879815414,,,,,0.5493831553634195,1978,1622,1,0.65,BLACK,BLACK,True,0,0.0013999997463542968,BLACK,True,CORRECT,0.6509502999997494,650.9502999997494
4,20260325_121644,D,J,False,AUTOMATION2,3,277,1077,fixed_delta,0.04274353132498164,0.014104974879815414,,,,,0.5376040990170844,1935,1665,1,0.65,BLACK,WHITE,False,0,0.0021999985619913787,BLACK,True,CORRECT,0.444902600000205,444.902600000205
4,20260325_121644,D,J,False,AUTOMATION2,3,278,1078,fixed_delta,0.04274353132498164,0.014104974879815414,,,,,0.5371747824403089,1934,1666,1,0.65,BLACK,WHITE,False,0,0.0013000008038943633,BLACK,True,CORRECT,2.833847200001401,2833.847200001401
4,20260325_121644,D,J,False,AUTOMATION2,3,279,1079,fixed_delta,0.04274353132498164,0.014104974879815414,,,,,0.5301986669390361,1909,1691,1,0.65,BLACK,BLACK,True,0,0.0011000010999850929,BLACK,True,CORRECT,0.7177079000011872,717.7079000011872
4,20260325_121644,D,J,False,AUTOMATION2,3,280,1080,fixed_delta,0.04274353132498164,0.014104974879815414,,,,,0.5640990053714657,2031,1569,1,0.65,BLACK,BLACK,True,0,0.0008000006346264854,BLACK,True,CORRECT,0.47567700000035984,475.67700000035984
4,20260325_121644,D,J,False,AUTOMATION2,3,281,1081,fixed_delta,0.04274353132498164,0.014104974879815414,,,,,0.5428074204788494,1954,1646,1,0.65,BLACK,BLACK,True,0,0.0017000002117129043,BLACK,True,CORRECT,0.6165588000003481,616.5588000003481
4,20260325_121644,D,J,False,AUTOMATION2,3,282,1082,fixed_delta,0.04274353132498164,0.014104974879815414,,,,,0.4605612717749653,1658,1942,1,0.65,WHITE,BLACK,False,0,0.0012000000424450263,BLACK,False,INCORRECT,0.5707820999996329,570.7820999996329
4,20260325_121644,D,J,False,AUTOMATION2,3,283,1083,fixed_delta,0.04274353132498164,0.014104974879815414,,,,,0.5602410144283668,2017,1583,1,0.65,BLACK,BLACK,True,0,0.0012999989849049598,BLACK,True,CORRECT,0.5207582999992155,520.7582999992155
4,20260325_121644,D,J,False,AUTOMATION2,3,284,1084,fixed_delta,0.04274353132498164,0.014104974879815414,,,,,0.5302893779743107,1909,1691,1,0.65,BLACK,WHITE,False,0,0.0013000008038943633,BLACK,True,CORRECT,2.2191309000008914,2219.1309000008914
4,20260325_121644,D,J,False,AUTOMATION2,3,285,1085,fixed_delta,0.04274353132498164,0.014104974879815414,,,,,0.43430478289874347,1563,2037,1,0.65,WHITE,WHITE,True,0,0.0012999989849049598,WHITE,True,CORRECT,1.0557427000003372,1055.7427000003372
4,20260325_121644,D,J,False,AUTOMATION2,3,286,1086,fixed_delta,0.04274353132498164,0.014104974879815414,,,,,0.46925062393181705,1689,1911,1,0.65,WHITE,WHITE,True,0,0.0010000003385357559,WHITE,True,CORRECT,0.8911600999999791,891.1600999999791
4,20260325_121644,D,J,False,AUTOMATION2,3,287,1087,fixed_delta,0.04274353132498164,0.014104974879815414,,,,,0.45479922419709234,1637,1963,1,0.65,WHITE,WHITE,True,0,0.0010999992809956893,WHITE,True,CORRECT,0.5069346999989648,506.9346999989648
4,20260325_121644,D,J,False,AUTOMATION2,3,288,1088,fixed_delta,0.04274353132498164,0.014104974879815414,,,,,0.5494863553215069,1978,1622,1,0.65,BLACK,BLACK,True,0,0.0012000000424450263,BLACK,True,CORRECT,0.7097333000001527,709.7333000001527
4,20260325_121644,D,J,False,AUTOMATION2,3,289,1089,fixed_delta,0.04274353132498164,0.014104974879815414,,,,,0.5450142401384839,1962,1638,1,0.65,BLACK,WHITE,False,0,0.0012999989849049598,WHITE,False,INCORRECT,1.0071738999995432,1007.1738999995432
4,20260325_121644,D,J,False,AUTOMATION2,3,290,1090,fixed_delta,0.04274353132498164,0.014104974879815414,,,,,0.5317566733391941,1914,1686,1,0.65,BLACK,WHITE,False,0,0.0008999995770864189,WHITE,False,INCORRECT,1.236194400000386,1236.194400000386
4,20260325_121644,D,J,False,AUTOMATION2,3,291,1091,fixed_delta,0.04274353132498164,0.014104974879815414,,,,,0.547927613464266,1973,1627,1,0.65,BLACK,WHITE,False,0,0.0010999992809956893,BLACK,True,CORRECT,0.925627099999474,925.627099999474
4,20260325_121644,D,J,False,AUTOMATION2,3,292,1092,fixed_delta,0.04274353132498164,0.014104974879815414,,,,,0.5424268375076134,1953,1647,1,0.65,BLACK,BLACK,True,0,0.0010000003385357559,BLACK,True,CORRECT,0.5432921999999962,543.2921999999962
4,20260325_121644,D,J,False,AUTOMATION2,3,293,1093,fixed_delta,0.04274353132498164,0.014104974879815414,,,,,0.5472787586149063,1970,1630,1,0.65,BLACK,BLACK,True,0,0.0008999995770864189,BLACK,True,CORRECT,0.5791722999983904,579.1722999983904
4,20260325_121644,D,J,False,AUTOMATION2,3,294,1094,fixed_delta,0.04274353132498164,0.014104974879815414,,,,,0.4705748005306171,1694,1906,1,0.65,WHITE,WHITE,True,0,0.0017000002117129043,WHITE,True,CORRECT,3.2344186999998783,3234.4186999998783
4,20260325_121644,D,J,False,AUTOMATION2,3,295,1095,fixed_delta,0.04274353132498164,0.014104974879815414,,,,,0.44974999832500195,1619,1981,1,0.65,WHITE,WHITE,True,0,0.0011000010999850929,WHITE,True,CORRECT,1.3916941000006773,1391.6941000006773
4,20260325_121644,D,J,False,AUTOMATION2,3,296,1096,fixed_delta,0.04274353132498164,0.014104974879815414,,,,,0.5412718609637738,1949,1651,1,0.65,BLACK,WHITE,False,0,0.0010999992809956893,BLACK,True,CORRECT,1.0650136999993265,1065.0136999993265
4,20260325_121644,D,J,False,AUTOMATION2,3,297,1097,fixed_delta,0.04274353132498164,0.014104974879815414,,,,,0.43593770656542674,1569,2031,1,0.65,WHITE,WHITE,True,0,0.0012000000424450263,WHITE,True,CORRECT,0.748278000000937,748.278000000937
4,20260325_121644,D,J,False,AUTOMATION2,3,298,1098,fixed_delta,0.04274353132498164,0.014104974879815414,,,,,0.43924740058722683,1581,2019,1,0.65,WHITE,BLACK,False,0,0.0012000000424450263,WHITE,True,CORRECT,0.6862669000001915,686.2669000001915
4,20260325_121644,D,J,False,AUTOMATION2,3,299,1099,fixed_delta,0.04274353132498164,0.014104974879815414,,,,,0.5863985629652684,2111,1489,1,0.65,BLACK,WHITE,False,0,0.0015999994502635673,BLACK,True,CORRECT,0.617217700000765,617.217700000765
4,20260325_121644,D,J,False,AUTOMATION2,3,300,1100,fixed_delta,0.04274353132498164,0.014104974879815414,,,,,0.4463588598895344,1607,1993,1,0.65,WHITE,WHITE,True,0,0.0027999994927085936,WHITE,True,CORRECT,0.7145274999984395,714.5274999984395
4,20260325_121644,D,J,False,AUTOMATION2,3,301,1101,fixed_delta,0.04274353132498164,0.014104974879815414,,,,,0.4697927182262088,1691,1909,1,0.65,WHITE,WHITE,True,0,0.0015000005078036338,WHITE,True,CORRECT,1.387785700000677,1387.785700000677
4,20260325_121644,D,J,False,AUTOMATION2,3,302,1102,fixed_delta,0.04274353132498164,0.014104974879815414,,,,,0.5549150614935232,1998,1602,1,0.65,BLACK,BLACK,True,0,0.0012000000424450263,BLACK,True,CORRECT,0.7426976000006107,742.6976000006107
4,20260325_121644,D,J,False,AUTOMATION2,3,303,1103,fixed_delta,0.04274353132498164,0.014104974879815414,,,,,0.5471176346757868,1970,1630,1,0.65,BLACK,BLACK,True,0,0.0007999988156370819,BLACK,True,CORRECT,2.9263667999985046,2926.3667999985046
4,20260325_121644,D,J,False,AUTOMATION2,3,304,1104,fixed_delta,0.04274353132498164,0.014104974879815414,,,,,0.4396429214240203,1583,2017,1,0.65,WHITE,WHITE,True,0,0.0012999989849049598,WHITE,True,CORRECT,2.0787751999996544,2078.7751999996544
4,20260325_121644,D,J,False,AUTOMATION2,3,305,1105,fixed_delta,0.04274353132498164,0.014104974879815414,,,,,0.5493349537767106,1978,1622,1,0.65,BLACK,BLACK,True,0,0.0011000010999850929,BLACK,True,CORRECT,0.6383327000003192,638.3327000003192
4,20260325_121644,D,J,False,AUTOMATION2,3,306,1106,fixed_delta,0.04274353132498164,0.014104974879815414,,,,,0.47363839933711593,1705,1895,1,0.65,WHITE,WHITE,True,0,0.0010000003385357559,WHITE,True,CORRECT,0.8969950999999128,896.9950999999128
4,20260325_121644,D,J,False,AUTOMATION2,3,307,1107,fixed_delta,0.04274353132498164,0.014104974879815414,,,,,0.46515555459956404,1675,1925,1,0.65,WHITE,WHITE,True,0,0.0012999989849049598,WHITE,True,CORRECT,2.096774399999049,2096.774399999049
4,20260325_121644,D,J,False,AUTOMATION2,3,308,1108,fixed_delta,0.04274353132498164,0.014104974879815414,,,,,0.5351783380083325,1927,1673,1,0.65,BLACK,BLACK,True,0,0.0010000003385357559,BLACK,True,CORRECT,0.7296098999995593,729.6098999995593
4,20260325_121644,D,J,False,AUTOMATION2,3,309,1109,fixed_delta,0.04274353132498164,0.014104974879815414,,,,,0.469267964249203,1689,1911,1,0.65,WHITE,WHITE,True,0,0.0014999986888142303,WHITE,True,CORRECT,0.5938979999991716,593.8979999991716
4,20260325_121644,D,J,False,AUTOMATION2,3,310,1110,fixed_delta,0.04274353132498164,0.014104974879815414,,,,,0.44636780410963994,1607,1993,1,0.65,WHITE,BLACK,False,0,0.004999999873689376,WHITE,True,CORRECT,0.795126999999411,795.126999999411
4,20260325_121644,D,J,False,AUTOMATION2,3,311,1111,fixed_delta,0.04274353132498164,0.014104974879815414,,,,,0.470824643046609,1695,1905,1,0.65,WHITE,WHITE,True,0,0.0010000003385357559,WHITE,True,CORRECT,0.737482500000624,737.482500000624
4,20260325_121644,D,J,False,AUTOMATION2,3,312,1112,fixed_delta,0.04274353132498164,0.014104974879815414,,,,,0.5406861418598123,1946,1654,1,0.65,BLACK,WHITE,False,0,0.0009999985195463523,BLACK,True,CORRECT,3.070467399998961,3070.467399998961
4,20260325_121644,D,J,False,AUTOMATION2,3,313,1113,fixed_delta,0.04274353132498164,0.014104974879815414,,,,,0.5561551050895136,2002,1598,1,0.65,BLACK,BLACK,True,0,0.0010999992809956893,BLACK,True,CORRECT,5.480517599999075,5480.517599999075
4,20260325_121644,D,J,False,AUTOMATION2,3,314,1114,fixed_delta,0.04274353132498164,0.014104974879815414,,,,,0.4531608113186888,1631,1969,1,0.65,WHITE,WHITE,True,0,0.0010000003385357559,BLACK,False,INCORRECT,3.8706621999990602,3870.6621999990602
4,20260325_121644,D,J,False,AUTOMATION2,3,315,1115,fixed_delta,0.04274353132498164,0.014104974879815414,,,,,0.5475490652110024,1971,1629,1,0.65,BLACK,WHITE,False,0,0.0014999986888142303,BLACK,True,CORRECT,1.9984371999998984,1998.4371999998984
4,20260325_121644,D,J,False,AUTOMATION2,3,316,1116,fixed_delta,0.04274353132498164,0.014104974879815414,,,,,0.5398330272090971,1943,1657,1,0.65,BLACK,BLACK,True,0,0.0013999997463542968,BLACK,True,CORRECT,0.6856549000003724,685.6549000003724
4,20260325_121644,D,J,False,AUTOMATION2,3,317,1117,fixed_delta,0.04274353132498164,0.014104974879815414,,,,,0.459566880011393,1654,1946,1,0.65,WHITE,BLACK,False,0,0.0013999997463542968,BLACK,False,INCORRECT,0.5440675999998348,544.0675999998348
4,20260325_121644,D,J,False,AUTOMATION2,3,318,1118,fixed_delta,0.04274353132498164,0.014104974879815414,,,,,0.4541831176987775,1635,1965,1,0.65,WHITE,BLACK,False,0,0.0009999985195463523,WHITE,True,CORRECT,0.7035331999995833,703.5331999995833
4,20260325_121644,D,J,False,AUTOMATION2,3,319,1119,fixed_delta,0.04274353132498164,0.014104974879815414,,,,,0.47068541787731444,1694,1906,1,0.65,WHITE,WHITE,True,0,0.0013000008038943633,WHITE,True,CORRECT,0.5419307000011031,541.9307000011031
4,20260325_121644,D,J,False,AUTOMATION2,3,320,1120,fixed_delta,0.04274353132498164,0.014104974879815414,,,,,0.43353707227972715,1561,2039,1,0.65,WHITE,WHITE,True,0,0.0014999986888142303,WHITE,True,CORRECT,0.8088319999988016,808.8319999988016
4,20260325_121644,D,J,False,AUTOMATION2,3,321,1121,fixed_delta,0.04274353132498164,0.014104974879815414,,,,,0.5296192885419172,1907,1693,1,0.65,BLACK,BLACK,True,0,0.0012999989849049598,WHITE,False,INCORRECT,1.5023342999993474,1502.3342999993474
4,20260325_121644,D,J,False,AUTOMATION2,3,322,1122,fixed_delta,0.04274353132498164,0.014104974879815414,,,,,0.534598402011331,1925,1675,1,0.65,BLACK,WHITE,False,0,0.0013000008038943633,WHITE,False,INCORRECT,1.0715498000008665,1071.5498000008665
4,20260325_121644,D,J,False,AUTOMATION2,3,323,1123,fixed_delta,0.04274353132498164,0.014104974879815414,,,,,0.4884333521474115,1758,1842,1,0.65,WHITE,BLACK,False,0,0.0010000003385357559,WHITE,True,CORRECT,0.8950396000000183,895.0396000000183
4,20260325_121644,D,J,False,AUTOMATION2,3,324,1124,fixed_delta,0.04274353132498164,0.014104974879815414,,,,,0.4586042428000131,1651,1949,1,0.65,WHITE,WHITE,True,0,0.0013000008038943633,WHITE,True,CORRECT,0.5342042000011133,534.2042000011133
4,20260325_121644,D,J,False,AUTOMATION2,3,325,1125,fixed_delta,0.04274353132498164,0.014104974879815414,,,,,0.47858614442482184,1723,1877,1,0.65,WHITE,BLACK,False,0,0.0015999994502635673,WHITE,True,CORRECT,1.1829049999996641,1182.9049999996641
4,20260325_121644,D,J,False,AUTOMATION2,3,326,1126,fixed_delta,0.04274353132498164,0.014104974879815414,,,,,0.4181306089980157,1505,2095,1,0.65,WHITE,WHITE,True,0,0.0013999997463542968,WHITE,True,CORRECT,0.6190042999987782,619.0042999987782
4,20260325_121644,D,J,False,AUTOMATION2,3,327,1127,fixed_delta,0.04274353132498164,0.014104974879815414,,,,,0.4637856349092803,1670,1930,1,0.65,WHITE,WHITE,True,0,0.0010000003385357559,WHITE,True,CORRECT,0.4790982000013173,479.0982000013173
4,20260325_121644,D,J,False,AUTOMATION2,3,328,1128,fixed_delta,0.04274353132498164,0.014104974879815414,,,,,0.46237152467844417,1665,1935,1,0.65,WHITE,BLACK,False,0,0.0012000000424450263,WHITE,True,CORRECT,1.9837428999999247,1983.7428999999247
4,20260325_121644,D,J,False,AUTOMATION2,3,329,1129,fixed_delta,0.04274353132498164,0.014104974879815414,,,,,0.5466810070077408,1968,1632,1,0.65,BLACK,BLACK,True,0,0.0010999992809956893,BLACK,True,CORRECT,1.2848976000004768,1284.8976000004768
4,20260325_121644,D,J,False,AUTOMATION2,3,330,1130,fixed_delta,0.04274353132498164,0.014104974879815414,,,,,0.5690720213798386,2049,1551,1,0.65,BLACK,BLACK,True,0,0.0010000003385357559,BLACK,True,CORRECT,0.5628740000011021,562.8740000011021
4,20260325_121644,D,J,False,AUTOMATION2,3,331,1131,fixed_delta,0.04274353132498164,0.014104974879815414,,,,,0.5404733602223275,1946,1654,1,0.65,BLACK,WHITE,False,0,0.0011000010999850929,BLACK,True,CORRECT,2.802229200000511,2802.229200000511
4,20260325_121644,D,J,False,AUTOMATION2,3,332,1132,fixed_delta,0.04274353132498164,0.014104974879815414,,,,,0.45861846289624053,1651,1949,1,0.65,WHITE,WHITE,True,0,0.0013000008038943633,WHITE,True,CORRECT,2.7983237999997073,2798.3237999997073
4,20260325_121644,D,J,False,AUTOMATION2,3,333,1133,fixed_delta,0.04274353132498164,0.014104974879815414,,,,,0.5654164433246398,2035,1565,1,0.65,BLACK,BLACK,True,0,0.0012000000424450263,BLACK,True,CORRECT,0.6692297000008693,669.2297000008693
4,20260325_121644,D,J,False,AUTOMATION2,3,334,1134,fixed_delta,0.04274353132498164,0.014104974879815414,,,,,0.46084522974050257,1659,1941,1,0.65,WHITE,BLACK,False,0,0.0012999989849049598,WHITE,True,CORRECT,1.292497499998717,1292.497499998717
4,20260325_121644,D,J,False,AUTOMATION2,3,335,1135,fixed_delta,0.04274353132498164,0.014104974879815414,,,,,0.45570533451182715,1641,1959,1,0.65,WHITE,BLACK,False,0,0.0012000000424450263,BLACK,False,INCORRECT,0.943263900000602,943.263900000602
4,20260325_121644,D,J,False,AUTOMATION2,3,336,1136,fixed_delta,0.04274353132498164,0.014104974879815414,,,,,0.4632382152947854,1668,1932,1,0.65,WHITE,WHITE,True,0,0.0010000003385357559,WHITE,True,CORRECT,0.708061600000292,708.061600000292
4,20260325_121644,D,J,False,AUTOMATION2,3,337,1137,fixed_delta,0.04274353132498164,0.014104974879815414,,,,,0.45080424519297124,1623,1977,1,0.65,WHITE,BLACK,False,0,0.0015999994502635673,WHITE,True,CORRECT,0.9876705999995465,987.6705999995465
4,20260325_121644,D,J,False,AUTOMATION2,3,338,1138,fixed_delta,0.04274353132498164,0.014104974879815414,,,,,0.5672068980006614,2042,1558,1,0.65,BLACK,BLACK,True,0,0.0013999997463542968,BLACK,True,CORRECT,0.6970868999997037,697.0868999997037
4,20260325_121644,D,J,False,AUTOMATION2,3,339,1139,fixed_delta,0.04274353132498164,0.014104974879815414,,,,,0.4667352145748908,1680,1920,1,0.65,WHITE,BLACK,False,0,0.0012999989849049598,WHITE,True,CORRECT,1.3610306999999011,1361.0306999999011
4,20260325_121644,D,J,False,AUTOMATION2,3,340,1140,fixed_delta,0.04274353132498164,0.014104974879815414,,,,,0.5425466664812151,1953,1647,1,0.65,BLACK,BLACK,True,0,0.0012999989849049598,BLACK,True,CORRECT,0.9338248000003659,933.8248000003659
4,20260325_121644,D,J,False,AUTOMATION2,3,341,1141,fixed_delta,0.04274353132498164,0.014104974879815414,,,,,0.45240095301945205,1629,1971,1,0.65,WHITE,WHITE,True,0,0.0010999992809956893,WHITE,True,CORRECT,1.0682969999998022,1068.2969999998022
4,20260325_121644,D,J,False,AUTOMATION2,3,342,1142,fixed_delta,0.04274353132498164,0.014104974879815414,,,,,0.5578772208557156,2008,1592,1,0.65,BLACK,BLACK,True,0,0.0013999997463542968,BLACK,True,CORRECT,0.5602892999995674,560.2892999995674
4,20260325_121644,D,J,False,AUTOMATION2,3,343,1143,fixed_delta,0.04274353132498164,0.014104974879815414,,,,,0.4447570209329533,1601,1999,1,0.65,WHITE,WHITE,True,0,0.0018000009731622413,WHITE,True,CORRECT,0.6022745000009309,602.2745000009309
4,20260325_121644,D,J,False,AUTOMATION2,3,344,1144,fixed_delta,0.04274353132498164,0.014104974879815414,,,,,0.5473444942969157,1970,1630,1,0.65,BLACK,BLACK,True,0,0.0012999989849049598,BLACK,True,CORRECT,0.4479143999997177,447.9143999997177
4,20260325_121644,D,J,False,AUTOMATION2,3,345,1145,fixed_delta,0.04274353132498164,0.014104974879815414,,,,,0.4878100007728033,1756,1844,1,0.65,WHITE,WHITE,True,0,0.0018000009731622413,BLACK,False,INCORRECT,1.2844000000004598,1284.4000000004598
4,20260325_121644,D,J,False,AUTOMATION2,3,346,1146,fixed_delta,0.04274353132498164,0.014104974879815414,,,,,0.4637022402780173,1669,1931,1,0.65,WHITE,WHITE,True,0,0.0015000005078036338,WHITE,True,CORRECT,0.5512373000001389,551.2373000001389
4,20260325_121644,D,J,False,AUTOMATION2,3,347,1147,fixed_delta,0.04274353132498164,0.014104974879815414,,,,,0.4761052294585833,1714,1886,1,0.65,WHITE,WHITE,True,0,0.0010000003385357559,WHITE,True,CORRECT,0.9818834000016068,981.8834000016068
4,20260325_121644,D,J,False,AUTOMATION2,3,348,1148,fixed_delta,0.04274353132498164,0.014104974879815414,,,,,0.5570785281450409,2005,1595,1,0.65,BLACK,BLACK,True,0,0.0012000000424450263,BLACK,True,CORRECT,1.148932699999932,1148.932699999932
4,20260325_121644,D,J,False,AUTOMATION2,3,349,1149,fixed_delta,0.04274353132498164,0.014104974879815414,,,,,0.5199783611492957,1872,1728,1,0.65,BLACK,BLACK,True,0,0.0013000008038943633,BLACK,True,CORRECT,0.9543826000008266,954.3826000008266
4,20260325_121644,D,J,False,AUTOMATION2,3,350,1150,fixed_delta,0.04274353132498164,0.014104974879815414,,,,,0.44500903885077236,1602,1998,1,0.65,WHITE,BLACK,False,0,0.0012000000424450263,WHITE,True,CORRECT,1.4668015000006562,1466.8015000006562
4,20260325_121644,D,J,False,AUTOMATION2,3,351,1151,fixed_delta,0.04274353132498164,0.014104974879815414,,,,,0.4598924066142208,1656,1944,1,0.65,WHITE,BLACK,False,0,0.0008999995770864189,WHITE,True,CORRECT,1.0087332999992213,1008.7332999992213
4,20260325_121644,D,J,False,AUTOMATION2,3,352,1152,fixed_delta,0.04274353132498164,0.014104974879815414,,,,,0.4481772071675339,1613,1987,1,0.65,WHITE,BLACK,False,0,0.0013999997463542968,BLACK,False,INCORRECT,1.5046594999985246,1504.6594999985246
4,20260325_121644,D,J,False,AUTOMATION2,3,353,1153,fixed_delta,0.04274353132498164,0.014104974879815414,,,,,0.45385943807989676,1634,1966,1,0.65,WHITE,BLACK,False,0,0.0012000000424450263,WHITE,True,CORRECT,0.6496477000000596,649.6477000000596
4,20260325_121644,D,J,False,AUTOMATION2,3,354,1154,fixed_delta,0.04274353132498164,0.014104974879815414,,,,,0.44925186755192986,1617,1983,1,0.65,WHITE,BLACK,False,0,0.0013999997463542968,WHITE,True,CORRECT,2.185983200000919,2185.983200000919
4,20260325_121644,D,J,False,AUTOMATION2,3,355,1155,fixed_delta,0.04274353132498164,0.014104974879815414,,,,,0.570735451602205,2055,1545,1,0.65,BLACK,BLACK,True,0,0.0013000008038943633,BLACK,True,CORRECT,0.816578699999809,816.578699999809
4,20260325_121644,D,J,False,AUTOMATION2,3,356,1156,fixed_delta,0.04274353132498164,0.014104974879815414,,,,,0.5430923354777423,1955,1645,1,0.65,BLACK,WHITE,False,0,0.0010000003385357559,BLACK,True,CORRECT,1.3364069999988715,1336.4069999988715
4,20260325_121644,D,J,False,AUTOMATION2,3,357,1157,fixed_delta,0.04274353132498164,0.014104974879815414,,,,,0.4687862726597329,1688,1912,1,0.65,WHITE,WHITE,True,0,0.0013999997463542968,WHITE,True,CORRECT,2.079849700001432,2079.849700001432
4,20260325_121644,D,J,False,AUTOMATION2,3,358,1158,fixed_delta,0.04274353132498164,0.014104974879815414,,,,,0.4554108086190942,1639,1961,1,0.65,WHITE,WHITE,True,0,0.0008999995770864189,WHITE,True,CORRECT,1.7515733000000182,1751.5733000000182
4,20260325_121644,D,J,False,AUTOMATION2,3,359,1159,fixed_delta,0.04274353132498164,0.014104974879815414,,,,,0.5610866444195882,2020,1580,1,0.65,BLACK,BLACK,True,0,0.0008999995770864189,BLACK,True,CORRECT,1.4531700999996247,1453.1700999996247
4,20260325_121644,D,J,False,AUTOMATION2,3,360,1160,fixed_delta,0.04274353132498164,0.014104974879815414,,,,,0.4748515734788594,1709,1891,1,0.65,WHITE,BLACK,False,0,0.0011000010999850929,WHITE,True,CORRECT,2.3652861999999004,2365.2861999999004
4,20260325_121644,D,J,False,AUTOMATION2,3,361,1161,fixed_delta,0.04274353132498164,0.014104974879815414,,,,,0.5222827533728596,1880,1720,1,0.65,BLACK,BLACK,True,0,0.0010000003385357559,BLACK,True,CORRECT,0.8297397999995155,829.7397999995155
4,20260325_121644,D,J,False,AUTOMATION2,3,362,1162,fixed_delta,0.04274353132498164,0.014104974879815414,,,,,0.4679683165625089,1685,1915,1,0.65,WHITE,WHITE,True,0,0.0013999997463542968,WHITE,True,CORRECT,1.6656911999998556,1665.6911999998556
4,20260325_121644,D,J,False,AUTOMATION2,3,363,1163,fixed_delta,0.04274353132498164,0.014104974879815414,,,,,0.45463291499591846,1637,1963,1,0.65,WHITE,WHITE,True,0,0.0010000003385357559,WHITE,True,CORRECT,0.5599741000005451,559.9741000005451
4,20260325_121644,D,J,False,AUTOMATION2,3,364,1164,fixed_delta,0.04274353132498164,0.014104974879815414,,,,,0.45797419721344845,1649,1951,1,0.65,WHITE,WHITE,True,0,0.0010000003385357559,WHITE,True,CORRECT,0.5589946000000054,558.9946000000054
4,20260325_121644,D,J,False,AUTOMATION2,3,365,1165,fixed_delta,0.04274353132498164,0.014104974879815414,,,,,0.5374213385981832,1935,1665,1,0.65,BLACK,BLACK,True,0,0.0010000003385357559,BLACK,True,CORRECT,1.2474175000006653,1247.4175000006653
4,20260325_121644,D,J,False,AUTOMATION2,3,366,1166,fixed_delta,0.04274353132498164,0.014104974879815414,,,,,0.4914316292620616,1769,1831,1,0.65,WHITE,WHITE,True,0,0.0010999992809956893,WHITE,True,CORRECT,0.9623202000002493,962.3202000002493
4,20260325_121644,D,J,False,AUTOMATION2,3,367,1167,fixed_delta,0.04274353132498164,0.014104974879815414,,,,,0.4647311610222549,1673,1927,1,0.65,WHITE,BLACK,False,0,0.0011000010999850929,WHITE,True,CORRECT,0.5388285000008182,538.8285000008182
4,20260325_121644,D,J,False,AUTOMATION2,3,368,1168,fixed_delta,0.04274353132498164,0.014104974879815414,,,,,0.4670720616339607,1681,1919,1,0.65,WHITE,WHITE,True,0,0.0012000000424450263,WHITE,True,CORRECT,1.181094799998391,1181.094799998391
4,20260325_121644,D,J,False,AUTOMATION2,3,369,1169,fixed_delta,0.04274353132498164,0.014104974879815414,,,,,0.45897130605074044,1652,1948,1,0.65,WHITE,WHITE,True,0,0.0014000015653437003,WHITE,True,CORRECT,0.8980176000004576,898.0176000004576
4,20260325_121644,D,J,False,AUTOMATION2,3,370,1170,fixed_delta,0.04274353132498164,0.014104974879815414,,,,,0.44518501290316087,1603,1997,1,0.65,WHITE,WHITE,True,0,0.0012000000424450263,WHITE,True,CORRECT,0.8648109999994631,864.8109999994631
4,20260325_121644,D,J,False,AUTOMATION2,3,371,1171,fixed_delta,0.04274353132498164,0.014104974879815414,,,,,0.5334957488255317,1921,1679,1,0.65,BLACK,WHITE,False,0,0.0016999983927235007,BLACK,True,CORRECT,0.879659599999286,879.659599999286
4,20260325_121644,D,J,False,AUTOMATION2,3,372,1172,fixed_delta,0.04274353132498164,0.014104974879815414,,,,,0.5275208655631245,1899,1701,1,0.65,BLACK,WHITE,False,0,0.0015999994502635673,BLACK,True,CORRECT,0.7673664999983885,767.3664999983885
4,20260325_121644,D,J,False,AUTOMATION2,3,373,1173,fixed_delta,0.04274353132498164,0.014104974879815414,,,,,0.45951786981499215,1654,1946,1,0.65,WHITE,WHITE,True,0,0.0018000009731622413,WHITE,True,CORRECT,0.6748692000001029,674.8692000001029
4,20260325_121644,D,J,False,AUTOMATION2,3,374,1174,fixed_delta,0.04274353132498164,0.014104974879815414,,,,,0.43709377779392883,1574,2026,1,0.65,WHITE,WHITE,True,0,0.0011000010999850929,WHITE,True,CORRECT,0.7835494999999355,783.5494999999355
4,20260325_121644,D,J,False,AUTOMATION2,3,375,1175,fixed_delta,0.04274353132498164,0.014104974879815414,,,,,0.4749939678409087,1710,1890,1,0.65,WHITE,WHITE,True,0,0.0012000000424450263,WHITE,True,CORRECT,0.6387285000000702,638.7285000000702
4,20260325_121644,D,J,False,AUTOMATION2,3,376,1176,fixed_delta,0.04274353132498164,0.014104974879815414,,,,,0.5546568975193626,1997,1603,1,0.65,BLACK,BLACK,True,0,0.0010999992809956893,BLACK,True,CORRECT,0.6193309999998746,619.3309999998746
4,20260325_121644,D,J,False,AUTOMATION2,3,377,1177,fixed_delta,0.04274353132498164,0.014104974879815414,,,,,0.5355104169553984,1928,1672,1,0.65,BLACK,WHITE,False,0,0.0010000003385357559,WHITE,False,INCORRECT,0.9039023999994242,903.9023999994242
4,20260325_121644,D,J,False,AUTOMATION2,3,378,1178,fixed_delta,0.04274353132498164,0.014104974879815414,,,,,0.4533932692204911,1632,1968,1,0.65,WHITE,BLACK,False,0,0.0008999995770864189,WHITE,True,CORRECT,0.974424199999703,974.424199999703
4,20260325_121644,D,J,False,AUTOMATION2,3,379,1179,fixed_delta,0.04274353132498164,0.014104974879815414,,,,,0.5665004139808119,2039,1561,1,0.65,BLACK,BLACK,True,0,0.0015000005078036338,BLACK,True,CORRECT,0.7146687999993446,714.6687999993446
4,20260325_121644,D,J,False,AUTOMATION2,3,380,1180,fixed_delta,0.04274353132498164,0.014104974879815414,,,,,0.45191409781426717,1627,1973,1,0.65,WHITE,WHITE,True,0,0.0010000003385357559,WHITE,True,CORRECT,0.6112111000002187,611.2111000002187
4,20260325_121644,D,J,False,AUTOMATION2,3,381,1181,fixed_delta,0.04274353132498164,0.014104974879815414,,,,,0.5450214867149915,1962,1638,1,0.65,BLACK,WHITE,False,0,0.0008999995770864189,BLACK,True,CORRECT,0.7951174999998329,795.117499999833
4,20260325_121644,D,J,False,AUTOMATION2,3,382,1182,fixed_delta,0.04274353132498164,0.014104974879815414,,,,,0.5415455457812217,1950,1650,1,0.65,BLACK,WHITE,False,0,0.0010999992809956893,BLACK,True,CORRECT,2.509337899999082,2509.337899999082
4,20260325_121644,D,J,False,AUTOMATION2,3,383,1183,fixed_delta,0.04274353132498164,0.014104974879815414,,,,,0.48723087280724214,1754,1846,1,0.65,WHITE,WHITE,True,0,0.0010999992809956893,BLACK,False,INCORRECT,0.54059739999866,540.59739999866
4,20260325_121644,D,J,False,AUTOMATION2,3,384,1184,fixed_delta,0.04274353132498164,0.014104974879815414,,,,,0.5676234130787432,2043,1557,1,0.65,BLACK,BLACK,True,0,0.0011000010999850929,BLACK,True,CORRECT,0.5791391000002477,579.1391000002477
4,20260325_121644,D,J,False,AUTOMATION2,3,385,1185,fixed_delta,0.04274353132498164,0.014104974879815414,,,,,0.4371183906716771,1574,2026,1,0.65,WHITE,BLACK,False,0,0.0013999997463542968,WHITE,True,CORRECT,0.8474550999999337,847.4550999999337
4,20260325_121644,D,J,False,AUTOMATION2,3,386,1186,fixed_delta,0.04274353132498164,0.014104974879815414,,,,,0.5592180059595993,2013,1587,1,0.65,BLACK,WHITE,False,0,0.0010999992809956893,BLACK,True,CORRECT,1.6708686999991187,1670.8686999991187
4,20260325_121644,D,J,False,AUTOMATION2,3,387,1187,fixed_delta,0.04274353132498164,0.014104974879815414,,,,,0.4218349016482411,1519,2081,1,0.65,WHITE,BLACK,False,0,0.0010999992809956893,WHITE,True,CORRECT,0.7859153000008519,785.9153000008519
4,20260325_121644,D,J,False,AUTOMATION2,3,388,1188,fixed_delta,0.04274353132498164,0.014104974879815414,,,,,0.47143436237532876,1697,1903,1,0.65,WHITE,BLACK,False,0,0.0012000000424450263,WHITE,True,CORRECT,1.9692629000001034,1969.2629000001034
4,20260325_121644,D,J,False,AUTOMATION2,3,389,1189,fixed_delta,0.04274353132498164,0.014104974879815414,,,,,0.5397227018996994,1943,1657,1,0.65,BLACK,BLACK,True,0,0.0010999992809956893,BLACK,True,CORRECT,1.8554072000006272,1855.4072000006272
4,20260325_121644,D,J,False,AUTOMATION2,3,390,1190,fixed_delta,0.04274353132498164,0.014104974879815414,,,,,0.526966173361637,1897,1703,1,0.65,BLACK,BLACK,True,0,0.0012000000424450263,BLACK,True,CORRECT,1.0175885000007838,1017.5885000007838
4,20260325_121644,D,J,False,AUTOMATION2,3,391,1191,fixed_delta,0.04274353132498164,0.014104974879815414,,,,,0.5332170310186216,1920,1680,1,0.65,BLACK,WHITE,False,0,0.0011000010999850929,BLACK,True,CORRECT,1.175052599999617,1175.052599999617
4,20260325_121644,D,J,False,AUTOMATION2,3,392,1192,fixed_delta,0.04274353132498164,0.014104974879815414,,,,,0.4679522802354347,1685,1915,1,0.65,WHITE,WHITE,True,0,0.0013999997463542968,WHITE,True,CORRECT,0.7735816000003979,773.5816000003979
4,20260325_121644,D,J,False,AUTOMATION2,3,393,1193,fixed_delta,0.04274353132498164,0.014104974879815414,,,,,0.5384441325945395,1938,1662,1,0.65,BLACK,BLACK,True,0,0.0012000000424450263,BLACK,True,CORRECT,0.8104277000002185,810.4277000002185
4,20260325_121644,D,J,False,AUTOMATION2,3,394,1194,fixed_delta,0.04274353132498164,0.014104974879815414,,,,,0.5213262265271716,1877,1723,1,0.65,BLACK,BLACK,True,0,0.0009999985195463523,BLACK,True,CORRECT,0.6004132999987633,600.4132999987633
4,20260325_121644,D,J,False,AUTOMATION2,3,395,1195,fixed_delta,0.04274353132498164,0.014104974879815414,,,,,0.45519667912298617,1639,1961,1,0.65,WHITE,WHITE,True,0,0.0013999997463542968,WHITE,True,CORRECT,0.8462665999995806,846.2665999995806
4,20260325_121644,D,J,False,AUTOMATION2,3,396,1196,fixed_delta,0.04274353132498164,0.014104974879815414,,,,,0.5422699259488665,1952,1648,1,0.65,BLACK,BLACK,True,0,0.0016000012692529708,BLACK,True,CORRECT,0.6881105000011303,688.1105000011303
4,20260325_121644,D,J,False,AUTOMATION2,3,397,1197,fixed_delta,0.04274353132498164,0.014104974879815414,,,,,0.5334852412587195,1921,1679,1,0.65,BLACK,BLACK,True,0,0.001999998858082108,BLACK,True,CORRECT,1.3254455999995116,1325.4455999995116
4,20260325_121644,D,J,False,AUTOMATION2,3,398,1198,fixed_delta,0.04274353132498164,0.014104974879815414,,,,,0.5620881824348419,2024,1576,1,0.65,BLACK,WHITE,False,0,0.0013999997463542968,BLACK,True,CORRECT,0.5958773000002111,595.8773000002111
4,20260325_121644,D,J,False,AUTOMATION2,3,399,1199,fixed_delta,0.04274353132498164,0.014104974879815414,,,,,0.47496393692728167,1710,1890,1,0.65,WHITE,WHITE,True,0,0.0015999994502635673,BLACK,False,INCORRECT,2.5409371000005194,2540.9371000005194
4,20260325_121644,D,J,False,AUTOMATION2,3,400,1200,fixed_delta,0.04274353132498164,0.014104974879815414,,,,,0.45478814311355936,1637,1963,1,0.65,WHITE,BLACK,False,0,0.0018999999156221747,BLACK,False,INCORRECT,0.9353421999985585,935.3421999985585
4,20260325_121644,D,J,False,AUTOMATION2,3,401,1201,fixed_delta,0.04274353132498164,0.014104974879815414,,,,,0.5339281264266363,1922,1678,1,0.65,BLACK,WHITE,False,0,0.0016000012692529708,BLACK,True,CORRECT,0.6991624000002048,699.1624000002048
4,20260325_121644,D,J,False,AUTOMATION2,3,402,1202,fixed_delta,0.04274353132498164,0.014104974879815414,,,,,0.5469125030822861,1969,1631,1,0.65,BLACK,WHITE,False,0,0.0013999997463542968,BLACK,True,CORRECT,0.8357594999997673,835.7594999997673
4,20260325_121644,D,J,False,AUTOMATION2,3,403,1203,fixed_delta,0.04274353132498164,0.014104974879815414,,,,,0.5600202600101241,2016,1584,1,0.65,BLACK,BLACK,True,0,0.0012999989849049598,BLACK,True,CORRECT,0.5582071999997424,558.2071999997424
4,20260325_121644,D,J,False,AUTOMATION2,3,404,1204,fixed_delta,0.04274353132498164,0.014104974879815414,,,,,0.5345116286338194,1924,1676,1,0.65,BLACK,BLACK,True,0,0.0011000010999850929,BLACK,True,CORRECT,0.4770328000013251,477.0328000013251
4,20260325_121644,D,J,False,AUTOMATION2,3,405,1205,fixed_delta,0.04274353132498164,0.014104974879815414,,,,,0.4720988357834593,1700,1900,1,0.65,WHITE,BLACK,False,0,0.002300001142430119,WHITE,True,CORRECT,1.1219490000003134,1121.9490000003134
4,20260325_121644,D,J,False,AUTOMATION2,3,406,1206,fixed_delta,0.04274353132498164,0.014104974879815414,,,,,0.46698025759086176,1681,1919,1,0.65,WHITE,WHITE,True,0,0.0015000005078036338,BLACK,False,INCORRECT,0.9423585000004095,942.3585000004095
4,20260325_121644,D,J,False,AUTOMATION2,3,407,1207,fixed_delta,0.04274353132498164,0.014104974879815414,,,,,0.45817234356884895,1649,1951,1,0.65,WHITE,WHITE,True,0,0.0008999995770864189,WHITE,True,CORRECT,0.8003817999997409,800.3817999997409
4,20260325_121644,D,J,False,AUTOMATION2,3,408,1208,fixed_delta,0.04274353132498164,0.014104974879815414,,,,,0.4766312973164376,1716,1884,1,0.65,WHITE,BLACK,False,0,0.0012000000424450263,WHITE,True,CORRECT,0.8488256000000547,848.8256000000547
4,20260325_121644,D,J,False,AUTOMATION2,3,409,1209,fixed_delta,0.04274353132498164,0.014104974879815414,,,,,0.4609281552336707,1659,1941,1,0.65,WHITE,WHITE,True,0,0.0009999985195463523,BLACK,False,INCORRECT,2.8335235999984434,2833.5235999984434
4,20260325_121644,D,J,False,AUTOMATION2,3,410,1210,fixed_delta,0.04274353132498164,0.014104974879815414,,,,,0.48639173384789086,1751,1849,1,0.65,WHITE,BLACK,False,0,0.0013999997463542968,BLACK,False,INCORRECT,1.2990948999995453,1299.0948999995453
4,20260325_121644,D,J,False,AUTOMATION2,3,411,1211,fixed_delta,0.04274353132498164,0.014104974879815414,,,,,0.5360070273210531,1930,1670,1,0.65,BLACK,WHITE,False,0,0.0013999997463542968,BLACK,True,CORRECT,1.691948499999853,1691.948499999853
