participant_id,run_timestamp,key_black,key_white,keymap_flip,block,block_idx,trial,global_trial,difficulty_mode,delta_fixed_mean,delta_fixed_sd,delta_stair_realised,delta_stair_mean,delta_step_down_used,delta_step_up_used,vblack_prop,n_vblack,n_vwhite,auto_on,aid_accuracy_setting,stimulus,aid_label,aid_correct,aid_onset_ms,aid_onset_ms_rel,response,correct,feedback,rt_s,rt_ms
7,20260325_141148,J,D,True,AUTOMATION1,3,1,801,fixed_delta,0.033374705876577364,0.013109562710342202,,,,,0.546941469976816,1969,1631,1,0.95,BLACK,BLACK,True,0,0.0034000004234258085,WHITE,False,INCORRECT,3.364303700000164,3364.303700000164
7,20260325_141148,J,D,True,AUTOMATION1,3,2,802,fixed_delta,0.033374705876577364,0.013109562710342202,,,,,0.5170005284131154,1861,1739,1,0.95,BLACK,BLACK,True,0,0.0011999982234556228,BLACK,True,CORRECT,0.6248737999994773,624.8737999994773
7,20260325_141148,J,D,True,AUTOMATION1,3,3,803,fixed_delta,0.033374705876577364,0.013109562710342202,,,,,0.460582571020613,1658,1942,1,0.95,WHITE,WHITE,True,0,0.0008999995770864189,WHITE,True,CORRECT,0.43016419999912614,430.16419999912614
7,20260325_141148,J,D,True,AUTOMATION1,3,4,804,fixed_delta,0.033374705876577364,0.013109562710342202,,,,,0.47710948834163935,1718,1882,1,0.95,WHITE,WHITE,True,0,0.000800002453615889,WHITE,True,CORRECT,0.4168167000025278,416.8167000025278
7,20260325_141148,J,D,True,AUTOMATION1,3,5,805,fixed_delta,0.033374705876577364,0.013109562710342202,,,,,0.5255113669704712,1892,1708,1,0.95,BLACK,BLACK,True,0,0.0010000003385357559,BLACK,True,CORRECT,0.4349313999991864,434.9313999991864
7,20260325_141148,J,D,True,AUTOMATION1,3,6,806,fixed_delta,0.033374705876577364,0.013109562710342202,,,,,0.5495021312201792,1978,1622,1,0.95,BLACK,BLACK,True,0,0.0020000006770715117,BLACK,True,CORRECT,0.3829248000001826,382.9248000001826
7,20260325_141148,J,D,True,AUTOMATION1,3,7,807,fixed_delta,0.033374705876577364,0.013109562710342202,,,,,0.4783129781239074,1722,1878,1,0.95,WHITE,WHITE,True,0,0.0013999997463542968,WHITE,True,CORRECT,0.40260169999965,402.60169999965
7,20260325_141148,J,D,True,AUTOMATION1,3,8,808,fixed_delta,0.033374705876577364,0.013109562710342202,,,,,0.46369554814877645,1669,1931,1,0.95,WHITE,WHITE,True,0,0.0010000003385357559,WHITE,True,CORRECT,0.39178829999946174,391.78829999946174
7,20260325_141148,J,D,True,AUTOMATION1,3,9,809,fixed_delta,0.033374705876577364,0.013109562710342202,,,,,0.4866804675639545,1752,1848,1,0.95,WHITE,WHITE,True,0,0.0010000003385357559,WHITE,True,CORRECT,0.8801959000011266,880.1959000011266
7,20260325_141148,J,D,True,AUTOMATION1,3,10,810,fixed_delta,0.033374705876577364,0.013109562710342202,,,,,0.5282216915234698,1902,1698,1,0.95,BLACK,BLACK,True,0,0.0010000003385357559,BLACK,True,CORRECT,0.5940859000002092,594.0859000002092
7,20260325_141148,J,D,True,AUTOMATION1,3,11,811,fixed_delta,0.033374705876577364,0.013109562710342202,,,,,0.5091855219554269,1833,1767,1,0.95,BLACK,BLACK,True,0,0.0022999993234407157,BLACK,True,CORRECT,0.8232845999991696,823.2845999991696
7,20260325_141148,J,D,True,AUTOMATION1,3,12,812,fixed_delta,0.033374705876577364,0.013109562710342202,,,,,0.48906414571910384,1761,1839,1,0.95,WHITE,WHITE,True,0,0.0013000026228837669,WHITE,True,CORRECT,0.30953100000260747,309.53100000260747
7,20260325_141148,J,D,True,AUTOMATION1,3,13,813,fixed_delta,0.033374705876577364,0.013109562710342202,,,,,0.5386369090766713,1939,1661,1,0.95,BLACK,BLACK,True,0,0.0008999995770864189,BLACK,True,CORRECT,0.40349719999721856,403.49719999721856
7,20260325_141148,J,D,True,AUTOMATION1,3,14,814,fixed_delta,0.033374705876577364,0.013109562710342202,,,,,0.5158566824836464,1857,1743,1,0.95,BLACK,BLACK,True,0,0.0015000005078036338,BLACK,True,CORRECT,0.39693529999931343,396.93529999931343
7,20260325_141148,J,D,True,AUTOMATION1,3,15,815,fixed_delta,0.033374705876577364,0.013109562710342202,,,,,0.5332382374029713,1920,1680,1,0.95,BLACK,BLACK,True,0,0.0013999997463542968,BLACK,True,CORRECT,0.3858451999985846,385.8451999985846
7,20260325_141148,J,D,True,AUTOMATION1,3,16,816,fixed_delta,0.033374705876577364,0.013109562710342202,,,,,0.5326992687445633,1918,1682,1,0.95,BLACK,BLACK,True,0,0.0015000005078036338,BLACK,True,CORRECT,0.3757895000017015,375.7895000017015
7,20260325_141148,J,D,True,AUTOMATION1,3,17,817,fixed_delta,0.033374705876577364,0.013109562710342202,,,,,0.5282586557392457,1902,1698,1,0.95,BLACK,BLACK,True,0,0.0012000018614344299,BLACK,True,CORRECT,0.3776127000019187,377.6127000019187
7,20260325_141148,J,D,True,AUTOMATION1,3,18,818,fixed_delta,0.033374705876577364,0.013109562710342202,,,,,0.48678908566068946,1752,1848,1,0.95,WHITE,WHITE,True,0,0.0010000003385357559,WHITE,True,CORRECT,0.3567713999982516,356.7713999982516
7,20260325_141148,J,D,True,AUTOMATION1,3,19,819,fixed_delta,0.033374705876577364,0.013109562710342202,,,,,0.46541742853026824,1676,1924,1,0.95,WHITE,WHITE,True,0,0.0013000026228837669,WHITE,True,CORRECT,0.38635620000059134,386.35620000059134
7,20260325_141148,J,D,True,AUTOMATION1,3,20,820,fixed_delta,0.033374705876577364,0.013109562710342202,,,,,0.46233103030300776,1664,1936,1,0.95,WHITE,WHITE,True,0,0.0013999997463542968,WHITE,True,CORRECT,0.3502485999997589,350.2485999997589
7,20260325_141148,J,D,True,AUTOMATION1,3,21,821,fixed_delta,0.033374705876577364,0.013109562710342202,,,,,0.49022035546914644,1765,1835,1,0.95,WHITE,WHITE,True,0,0.0012000018614344299,WHITE,True,CORRECT,0.35453860000052373,354.53860000052373
7,20260325_141148,J,D,True,AUTOMATION1,3,22,822,fixed_delta,0.033374705876577364,0.013109562710342202,,,,,0.5450050692108237,1962,1638,1,0.95,BLACK,BLACK,True,0,0.0008999995770864189,BLACK,True,CORRECT,0.4328836999993655,432.8836999993655
7,20260325_141148,J,D,True,AUTOMATION1,3,23,823,fixed_delta,0.033374705876577364,0.013109562710342202,,,,,0.47611746336013944,1714,1886,1,0.95,WHITE,WHITE,True,0,0.0008999995770864189,WHITE,True,CORRECT,0.46230519999880926,462.30519999880926
7,20260325_141148,J,D,True,AUTOMATION1,3,24,824,fixed_delta,0.033374705876577364,0.013109562710342202,,,,,0.47595793492790367,1713,1887,1,0.95,WHITE,WHITE,True,0,0.0013999997463542968,WHITE,True,CORRECT,0.3870122000007541,387.0122000007541
7,20260325_141148,J,D,True,AUTOMATION1,3,25,825,fixed_delta,0.033374705876577364,0.013109562710342202,,,,,0.5267203060547322,1896,1704,1,0.95,BLACK,BLACK,True,0,0.0012999989849049598,BLACK,True,CORRECT,0.6476984999972046,647.6984999972046
7,20260325_141148,J,D,True,AUTOMATION1,3,26,826,fixed_delta,0.033374705876577364,0.013109562710342202,,,,,0.4647457846686085,1673,1927,1,0.95,WHITE,WHITE,True,0,0.0011000010999850929,WHITE,True,CORRECT,0.4571947000004002,457.1947000004002
7,20260325_141148,J,D,True,AUTOMATION1,3,27,827,fixed_delta,0.033374705876577364,0.013109562710342202,,,,,0.5256632250921703,1892,1708,1,0.95,BLACK,BLACK,True,0,0.0021000014385208488,BLACK,True,CORRECT,0.40043770000193035,400.43770000193035
7,20260325_141148,J,D,True,AUTOMATION1,3,28,828,fixed_delta,0.033374705876577364,0.013109562710342202,,,,,0.5128648588620005,1846,1754,1,0.95,BLACK,BLACK,True,0,0.0013999997463542968,BLACK,True,CORRECT,0.47749040000053355,477.49040000053355
7,20260325_141148,J,D,True,AUTOMATION1,3,29,829,fixed_delta,0.033374705876577364,0.013109562710342202,,,,,0.5327678612258574,1918,1682,1,0.95,BLACK,WHITE,False,0,0.0010000003385357559,WHITE,False,INCORRECT,0.47442339999906835,474.42339999906835
7,20260325_141148,J,D,True,AUTOMATION1,3,30,830,fixed_delta,0.033374705876577364,0.013109562710342202,,,,,0.5506719659058467,1982,1618,1,0.95,BLACK,BLACK,True,0,0.0012000018614344299,TIMEOUT,,TOO SLOW,,
7,20260325_141148,J,D,True,AUTOMATION1,3,31,831,fixed_delta,0.033374705876577364,0.013109562710342202,,,,,0.4613667779960037,1661,1939,1,0.95,WHITE,WHITE,True,0,0.0018999999156221747,WHITE,True,CORRECT,0.6144893000018783,614.4893000018783
7,20260325_141148,J,D,True,AUTOMATION1,3,32,832,fixed_delta,0.033374705876577364,0.013109562710342202,,,,,0.4792814281543097,1725,1875,1,0.95,WHITE,WHITE,True,0,0.0012999989849049598,WHITE,True,CORRECT,0.4314225999987684,431.4225999987684
7,20260325_141148,J,D,True,AUTOMATION1,3,33,833,fixed_delta,0.033374705876577364,0.013109562710342202,,,,,0.5050362847373716,1818,1782,1,0.95,BLACK,BLACK,True,0,0.0010999974620062858,BLACK,True,CORRECT,0.41948279999996885,419.48279999996885
7,20260325_141148,J,D,True,AUTOMATION1,3,34,834,fixed_delta,0.033374705876577364,0.013109562710342202,,,,,0.5268138927432918,1897,1703,1,0.95,BLACK,BLACK,True,0,0.0022999993234407157,BLACK,True,CORRECT,0.43571479999809526,435.71479999809526
7,20260325_141148,J,D,True,AUTOMATION1,3,35,835,fixed_delta,0.033374705876577364,0.013109562710342202,,,,,0.5272299462305013,1898,1702,1,0.95,BLACK,BLACK,True,0,0.0011999982234556228,BLACK,True,CORRECT,0.644785899999988,644.785899999988
7,20260325_141148,J,D,True,AUTOMATION1,3,36,836,fixed_delta,0.033374705876577364,0.013109562710342202,,,,,0.47928462211059963,1725,1875,1,0.95,WHITE,WHITE,True,0,0.0011999982234556228,WHITE,True,CORRECT,0.5143050000006042,514.3050000006042
7,20260325_141148,J,D,True,AUTOMATION1,3,37,837,fixed_delta,0.033374705876577364,0.013109562710342202,,,,,0.4763223469255605,1715,1885,1,0.95,WHITE,WHITE,True,0,0.0010000003385357559,WHITE,True,CORRECT,0.37754190000123344,377.54190000123344
7,20260325_141148,J,D,True,AUTOMATION1,3,38,838,fixed_delta,0.033374705876577364,0.013109562710342202,,,,,0.4619723796375271,1663,1937,1,0.95,WHITE,BLACK,False,0,0.0013000026228837669,BLACK,False,INCORRECT,0.4758402000006754,475.8402000006754
7,20260325_141148,J,D,True,AUTOMATION1,3,39,839,fixed_delta,0.033374705876577364,0.013109562710342202,,,,,0.5402477333411633,1945,1655,1,0.95,BLACK,BLACK,True,0,0.0011000010999850929,BLACK,True,CORRECT,0.7259291000009398,725.9291000009398
7,20260325_141148,J,D,True,AUTOMATION1,3,40,840,fixed_delta,0.033374705876577364,0.013109562710342202,,,,,0.4585941605063725,1651,1949,1,0.95,WHITE,WHITE,True,0,0.0013999997463542968,WHITE,True,CORRECT,0.4151318000003812,415.1318000003812
7,20260325_141148,J,D,True,AUTOMATION1,3,41,841,fixed_delta,0.033374705876577364,0.013109562710342202,,,,,0.5199020064797486,1872,1728,1,0.95,BLACK,BLACK,True,0,0.0011000010999850929,BLACK,True,CORRECT,0.44035450000228593,440.35450000228593
7,20260325_141148,J,D,True,AUTOMATION1,3,42,842,fixed_delta,0.033374705876577364,0.013109562710342202,,,,,0.4673541375838067,1682,1918,1,0.95,WHITE,WHITE,True,0,0.0015000005078036338,WHITE,True,CORRECT,0.41451900000174646,414.51900000174646
7,20260325_141148,J,D,True,AUTOMATION1,3,43,843,fixed_delta,0.033374705876577364,0.013109562710342202,,,,,0.4773558455061164,1718,1882,1,0.95,WHITE,WHITE,True,0,0.0008999995770864189,WHITE,True,CORRECT,0.3864498000002641,386.4498000002641
7,20260325_141148,J,D,True,AUTOMATION1,3,44,844,fixed_delta,0.033374705876577364,0.013109562710342202,,,,,0.450471221894591,1622,1978,1,0.95,WHITE,WHITE,True,0,0.0010000003385357559,WHITE,True,CORRECT,0.4907290000010107,490.7290000010107
7,20260325_141148,J,D,True,AUTOMATION1,3,45,845,fixed_delta,0.033374705876577364,0.013109562710342202,,,,,0.5331187745254182,1919,1681,1,0.95,BLACK,BLACK,True,0,0.0008999995770864189,BLACK,True,CORRECT,0.49606779999885475,496.06779999885475
7,20260325_141148,J,D,True,AUTOMATION1,3,46,846,fixed_delta,0.033374705876577364,0.013109562710342202,,,,,0.4633426218571416,1668,1932,1,0.95,WHITE,WHITE,True,0,0.0010000003385357559,WHITE,True,CORRECT,0.4934752999979537,493.4752999979537
7,20260325_141148,J,D,True,AUTOMATION1,3,47,847,fixed_delta,0.033374705876577364,0.013109562710342202,,,,,0.4575277153171571,1647,1953,1,0.95,WHITE,WHITE,True,0,0.0010999974620062858,WHITE,True,CORRECT,0.5861519999998563,586.1519999998563
7,20260325_141148,J,D,True,AUTOMATION1,3,48,848,fixed_delta,0.033374705876577364,0.013109562710342202,,,,,0.4929882609090059,1775,1825,1,0.95,WHITE,WHITE,True,0,0.0013999997463542968,WHITE,True,CORRECT,0.5613073999993503,561.3073999993503
7,20260325_141148,J,D,True,AUTOMATION1,3,49,849,fixed_delta,0.033374705876577364,0.013109562710342202,,,,,0.5143644565692527,1852,1748,1,0.95,BLACK,WHITE,False,0,0.0011000010999850929,WHITE,False,INCORRECT,0.4189920999997412,418.9920999997412
7,20260325_141148,J,D,True,AUTOMATION1,3,50,850,fixed_delta,0.033374705876577364,0.013109562710342202,,,,,0.5406590486386856,1946,1654,1,0.95,BLACK,WHITE,False,0,0.0013999997463542968,WHITE,False,INCORRECT,0.5075133000027563,507.5133000027563
7,20260325_141148,J,D,True,AUTOMATION1,3,51,851,fixed_delta,0.033374705876577364,0.013109562710342202,,,,,0.533731456448825,1921,1679,1,0.95,BLACK,BLACK,True,0,0.0011000010999850929,BLACK,True,CORRECT,0.4111655000015162,411.1655000015162
7,20260325_141148,J,D,True,AUTOMATION1,3,52,852,fixed_delta,0.033374705876577364,0.013109562710342202,,,,,0.4651440994202453,1675,1925,1,0.95,WHITE,WHITE,True,0,0.0010000003385357559,WHITE,True,CORRECT,0.4413206999997783,441.3206999997783
7,20260325_141148,J,D,True,AUTOMATION1,3,53,853,fixed_delta,0.033374705876577364,0.013109562710342202,,,,,0.5372196842812651,1934,1666,1,0.95,BLACK,BLACK,True,0,0.0013000026228837669,BLACK,True,CORRECT,0.5607507000022451,560.7507000022451
7,20260325_141148,J,D,True,AUTOMATION1,3,54,854,fixed_delta,0.033374705876577364,0.013109562710342202,,,,,0.5394369345263478,1942,1658,1,0.95,BLACK,BLACK,True,0,0.0015000005078036338,BLACK,True,CORRECT,0.3672724999996717,367.2724999996717
7,20260325_141148,J,D,True,AUTOMATION1,3,55,855,fixed_delta,0.033374705876577364,0.013109562710342202,,,,,0.5343888287811314,1924,1676,1,0.95,BLACK,BLACK,True,0,0.0012999989849049598,BLACK,True,CORRECT,0.5245351999983541,524.5351999983541
7,20260325_141148,J,D,True,AUTOMATION1,3,56,856,fixed_delta,0.033374705876577364,0.013109562710342202,,,,,0.5109820230140875,1840,1760,1,0.95,BLACK,BLACK,True,0,0.000900003215065226,BLACK,True,CORRECT,0.37758120000216877,377.58120000216877
7,20260325_141148,J,D,True,AUTOMATION1,3,57,857,fixed_delta,0.033374705876577364,0.013109562710342202,,,,,0.5444194703344566,1960,1640,1,0.95,BLACK,BLACK,True,0,0.0008999995770864189,BLACK,True,CORRECT,0.4289686999982223,428.9686999982223
7,20260325_141148,J,D,True,AUTOMATION1,3,58,858,fixed_delta,0.033374705876577364,0.013109562710342202,,,,,0.5437310455022739,1957,1643,1,0.95,BLACK,BLACK,True,0,0.0012999989849049598,BLACK,True,CORRECT,0.43484429999807617,434.84429999807617
7,20260325_141148,J,D,True,AUTOMATION1,3,59,859,fixed_delta,0.033374705876577364,0.013109562710342202,,,,,0.4594620660771019,1654,1946,1,0.95,WHITE,WHITE,True,0,0.0010000003385357559,WHITE,True,CORRECT,0.43791090000013355,437.91090000013355
7,20260325_141148,J,D,True,AUTOMATION1,3,60,860,fixed_delta,0.033374705876577364,0.013109562710342202,,,,,0.45723342784152643,1646,1954,1,0.95,WHITE,WHITE,True,0,0.0010000003385357559,WHITE,True,CORRECT,0.3361022999997658,336.1022999997658
7,20260325_141148,J,D,True,AUTOMATION1,3,61,861,fixed_delta,0.033374705876577364,0.013109562710342202,,,,,0.46761929996556123,1683,1917,1,0.95,WHITE,WHITE,True,0,0.0010000003385357559,WHITE,True,CORRECT,0.4935731000005035,493.5731000005035
7,20260325_141148,J,D,True,AUTOMATION1,3,62,862,fixed_delta,0.033374705876577364,0.013109562710342202,,,,,0.5354430384320464,1928,1672,1,0.95,BLACK,BLACK,True,0,0.0013999997463542968,BLACK,True,CORRECT,0.36293660000228556,362.93660000228556
7,20260325_141148,J,D,True,AUTOMATION1,3,63,863,fixed_delta,0.033374705876577364,0.013109562710342202,,,,,0.48028325481819806,1729,1871,1,0.95,WHITE,WHITE,True,0,0.0015000005078036338,WHITE,True,CORRECT,0.3713943000002473,371.3943000002473
7,20260325_141148,J,D,True,AUTOMATION1,3,64,864,fixed_delta,0.033374705876577364,0.013109562710342202,,,,,0.4777875009659064,1720,1880,1,0.95,WHITE,WHITE,True,0,0.0013000026228837669,WHITE,True,CORRECT,0.36370180000085384,363.70180000085384
7,20260325_141148,J,D,True,AUTOMATION1,3,65,865,fixed_delta,0.033374705876577364,0.013109562710342202,,,,,0.4765639777837804,1716,1884,1,0.95,WHITE,WHITE,True,0,0.0008999995770864189,WHITE,True,CORRECT,0.34127649999936693,341.27649999936693
7,20260325_141148,J,D,True,AUTOMATION1,3,66,866,fixed_delta,0.033374705876577364,0.013109562710342202,,,,,0.5033556128144256,1812,1788,1,0.95,BLACK,BLACK,True,0,0.0013000026228837669,BLACK,True,CORRECT,0.36234719999993104,362.34719999993104
7,20260325_141148,J,D,True,AUTOMATION1,3,67,867,fixed_delta,0.033374705876577364,0.013109562710342202,,,,,0.5327053807015344,1918,1682,1,0.95,BLACK,BLACK,True,0,0.0007999988156370819,WHITE,False,INCORRECT,0.29174480000074254,291.74480000074254
7,20260325_141148,J,D,True,AUTOMATION1,3,68,868,fixed_delta,0.033374705876577364,0.013109562710342202,,,,,0.4643540001484794,1672,1928,1,0.95,WHITE,WHITE,True,0,0.0008999995770864189,WHITE,True,CORRECT,2.0211840999982087,2021.1840999982087
7,20260325_141148,J,D,True,AUTOMATION1,3,69,869,fixed_delta,0.033374705876577364,0.013109562710342202,,,,,0.47277679399931766,1702,1898,1,0.95,WHITE,BLACK,False,0,0.0012000018614344299,BLACK,False,INCORRECT,0.5266870000014023,526.6870000014023
7,20260325_141148,J,D,True,AUTOMATION1,3,70,870,fixed_delta,0.033374705876577364,0.013109562710342202,,,,,0.45873514115099495,1651,1949,1,0.95,WHITE,WHITE,True,0,0.0007999988156370819,WHITE,True,CORRECT,0.42768440000145347,427.68440000145347
7,20260325_141148,J,D,True,AUTOMATION1,3,71,871,fixed_delta,0.033374705876577364,0.013109562710342202,,,,,0.5442665281137088,1959,1641,1,0.95,BLACK,BLACK,True,0,0.0012999989849049598,BLACK,True,CORRECT,0.43921140000020387,439.21140000020387
7,20260325_141148,J,D,True,AUTOMATION1,3,72,872,fixed_delta,0.033374705876577364,0.013109562710342202,,,,,0.5086338867935513,1831,1769,1,0.95,BLACK,BLACK,True,0,0.0017000020307023078,BLACK,True,CORRECT,0.39725220000036643,397.25220000036643
7,20260325_141148,J,D,True,AUTOMATION1,3,73,873,fixed_delta,0.033374705876577364,0.013109562710342202,,,,,0.5209107577391906,1875,1725,1,0.95,BLACK,BLACK,True,0,0.0010000003385357559,BLACK,True,CORRECT,0.4575875999980781,457.5875999980781
7,20260325_141148,J,D,True,AUTOMATION1,3,74,874,fixed_delta,0.033374705876577364,0.013109562710342202,,,,,0.5359947181475504,1930,1670,1,0.95,BLACK,BLACK,True,0,0.0010000003385357559,BLACK,True,CORRECT,0.40548090000083903,405.48090000083903
7,20260325_141148,J,D,True,AUTOMATION1,3,75,875,fixed_delta,0.033374705876577364,0.013109562710342202,,,,,0.5399804801076008,1944,1656,1,0.95,BLACK,BLACK,True,0,0.0011999982234556228,BLACK,True,CORRECT,0.43066819999876316,430.66819999876316
7,20260325_141148,J,D,True,AUTOMATION1,3,76,876,fixed_delta,0.033374705876577364,0.013109562710342202,,,,,0.4810383148150927,1732,1868,1,0.95,WHITE,WHITE,True,0,0.0010999974620062858,WHITE,True,CORRECT,0.5869536999998672,586.9536999998672
7,20260325_141148,J,D,True,AUTOMATION1,3,77,877,fixed_delta,0.033374705876577364,0.013109562710342202,,,,,0.5131991985354118,1848,1752,1,0.95,BLACK,BLACK,True,0,0.0015000005078036338,BLACK,True,CORRECT,0.38056760000108625,380.56760000108625
7,20260325_141148,J,D,True,AUTOMATION1,3,78,878,fixed_delta,0.033374705876577364,0.013109562710342202,,,,,0.5282301002041261,1902,1698,1,0.95,BLACK,BLACK,True,0,0.0012999989849049598,WHITE,False,INCORRECT,0.3456813999982842,345.6813999982842
7,20260325_141148,J,D,True,AUTOMATION1,3,79,879,fixed_delta,0.033374705876577364,0.013109562710342202,,,,,0.5631322820776286,2027,1573,1,0.95,BLACK,BLACK,True,0,0.0013999997463542968,BLACK,True,CORRECT,0.5745878999987326,574.5878999987326
7,20260325_141148,J,D,True,AUTOMATION1,3,80,880,fixed_delta,0.033374705876577364,0.013109562710342202,,,,,0.5655557019168416,2036,1564,1,0.95,BLACK,BLACK,True,0,0.0010000003385357559,BLACK,True,CORRECT,0.5466720000003988,546.6720000003988
7,20260325_141148,J,D,True,AUTOMATION1,3,81,881,fixed_delta,0.033374705876577364,0.013109562710342202,,,,,0.471097282346041,1696,1904,1,0.95,WHITE,WHITE,True,0,0.0011999982234556228,WHITE,True,CORRECT,0.5067804999998771,506.78049999987707
7,20260325_141148,J,D,True,AUTOMATION1,3,82,882,fixed_delta,0.033374705876577364,0.013109562710342202,,,,,0.4694031724453776,1690,1910,1,0.95,WHITE,WHITE,True,0,0.000800002453615889,BLACK,False,INCORRECT,0.47053800000139745,470.53800000139745
7,20260325_141148,J,D,True,AUTOMATION1,3,83,883,fixed_delta,0.033374705876577364,0.013109562710342202,,,,,0.5409002080828242,1947,1653,1,0.95,BLACK,BLACK,True,0,0.0010000003385357559,BLACK,True,CORRECT,1.3436121999984607,1343.6121999984607
7,20260325_141148,J,D,True,AUTOMATION1,3,84,884,fixed_delta,0.033374705876577364,0.013109562710342202,,,,,0.46618799872819955,1678,1922,1,0.95,WHITE,WHITE,True,0,0.0012999989849049598,WHITE,True,CORRECT,0.5431762999978673,543.1762999978673
7,20260325_141148,J,D,True,AUTOMATION1,3,85,885,fixed_delta,0.033374705876577364,0.013109562710342202,,,,,0.462597752253129,1665,1935,1,0.95,WHITE,WHITE,True,0,0.0012999989849049598,WHITE,True,CORRECT,0.6305756000001566,630.5756000001566
7,20260325_141148,J,D,True,AUTOMATION1,3,86,886,fixed_delta,0.033374705876577364,0.013109562710342202,,,,,0.5400858831497968,1944,1656,1,0.95,BLACK,BLACK,True,0,0.0008999995770864189,BLACK,True,CORRECT,0.5241614999977173,524.1614999977173
7,20260325_141148,J,D,True,AUTOMATION1,3,87,887,fixed_delta,0.033374705876577364,0.013109562710342202,,,,,0.44312903667469516,1595,2005,1,0.95,WHITE,WHITE,True,0,0.0036999990697950125,WHITE,True,CORRECT,0.5135296000007656,513.5296000007656
7,20260325_141148,J,D,True,AUTOMATION1,3,88,888,fixed_delta,0.033374705876577364,0.013109562710342202,,,,,0.5328781580961678,1918,1682,1,0.95,BLACK,BLACK,True,0,0.0012000018614344299,BLACK,True,CORRECT,0.4307896999998775,430.7896999998775
7,20260325_141148,J,D,True,AUTOMATION1,3,89,889,fixed_delta,0.033374705876577364,0.013109562710342202,,,,,0.4682897448807122,1686,1914,1,0.95,WHITE,WHITE,True,0,0.0013000026228837669,WHITE,True,CORRECT,0.3849227000027895,384.9227000027895
7,20260325_141148,J,D,True,AUTOMATION1,3,90,890,fixed_delta,0.033374705876577364,0.013109562710342202,,,,,0.5691372990630259,2049,1551,1,0.95,BLACK,BLACK,True,0,0.0011000010999850929,BLACK,True,CORRECT,0.45036130000153207,450.3613000015321
7,20260325_141148,J,D,True,AUTOMATION1,3,91,891,fixed_delta,0.033374705876577364,0.013109562710342202,,,,,0.48781495502540134,1756,1844,1,0.95,WHITE,WHITE,True,0,0.0023999964469112456,WHITE,True,CORRECT,0.8303135999994993,830.3135999994993
7,20260325_141148,J,D,True,AUTOMATION1,3,92,892,fixed_delta,0.033374705876577364,0.013109562710342202,,,,,0.5234871464864487,1885,1715,1,0.95,BLACK,BLACK,True,0,0.0012999989849049598,BLACK,True,CORRECT,0.7828372000003583,782.8372000003583
7,20260325_141148,J,D,True,AUTOMATION1,3,93,893,fixed_delta,0.033374705876577364,0.013109562710342202,,,,,0.5475648885490743,1971,1629,1,0.95,BLACK,BLACK,True,0,0.0011000010999850929,BLACK,True,CORRECT,1.0732821000019612,1073.2821000019612
7,20260325_141148,J,D,True,AUTOMATION1,3,94,894,fixed_delta,0.033374705876577364,0.013109562710342202,,,,,0.44691478325254197,1609,1991,1,0.95,WHITE,WHITE,True,0,0.0008999995770864189,WHITE,True,CORRECT,0.48837079999793787,488.37079999793787
7,20260325_141148,J,D,True,AUTOMATION1,3,95,895,fixed_delta,0.033374705876577364,0.013109562710342202,,,,,0.5623384169499629,2024,1576,1,0.95,BLACK,BLACK,True,0,0.0010999974620062858,BLACK,True,CORRECT,0.5032962999976007,503.2962999976007
7,20260325_141148,J,D,True,AUTOMATION1,3,96,896,fixed_delta,0.033374705876577364,0.013109562710342202,,,,,0.5508394727077411,1983,1617,1,0.95,BLACK,BLACK,True,0,0.0016999983927235007,BLACK,True,CORRECT,0.5618104999994102,561.8104999994102
7,20260325_141148,J,D,True,AUTOMATION1,3,97,897,fixed_delta,0.033374705876577364,0.013109562710342202,,,,,0.4803507883253896,1729,1871,1,0.95,WHITE,WHITE,True,0,0.0011000010999850929,WHITE,True,CORRECT,0.49546489999920595,495.46489999920595
7,20260325_141148,J,D,True,AUTOMATION1,3,98,898,fixed_delta,0.033374705876577364,0.013109562710342202,,,,,0.5437778896570544,1958,1642,1,0.95,BLACK,BLACK,True,0,0.0010000003385357559,BLACK,True,CORRECT,0.4276242000014463,427.6242000014463
7,20260325_141148,J,D,True,AUTOMATION1,3,99,899,fixed_delta,0.033374705876577364,0.013109562710342202,,,,,0.5118119068681396,1843,1757,1,0.95,BLACK,BLACK,True,0,0.0011999982234556228,WHITE,False,INCORRECT,0.629864999998972,629.864999998972
7,20260325_141148,J,D,True,AUTOMATION1,3,100,900,fixed_delta,0.033374705876577364,0.013109562710342202,,,,,0.520051236090924,1872,1728,1,0.95,BLACK,BLACK,True,0,0.0010999974620062858,WHITE,False,INCORRECT,0.5088540999968245,508.8540999968245
7,20260325_141148,J,D,True,AUTOMATION1,3,101,901,fixed_delta,0.033374705876577364,0.013109562710342202,,,,,0.469480595339422,1690,1910,1,0.95,WHITE,WHITE,True,0,0.0024999972083605826,WHITE,True,CORRECT,0.5429374999985157,542.9374999985157
7,20260325_141148,J,D,True,AUTOMATION1,3,102,902,fixed_delta,0.033374705876577364,0.013109562710342202,,,,,0.4751716600412589,1711,1889,1,0.95,WHITE,WHITE,True,0,0.0010999974620062858,WHITE,True,CORRECT,0.5399737999978242,539.9737999978242
7,20260325_141148,J,D,True,AUTOMATION1,3,103,903,fixed_delta,0.033374705876577364,0.013109562710342202,,,,,0.4716203684071488,1698,1902,1,0.95,WHITE,WHITE,True,0,0.0012000018614344299,WHITE,True,CORRECT,0.5780334000010043,578.0334000010043
7,20260325_141148,J,D,True,AUTOMATION1,3,104,904,fixed_delta,0.033374705876577364,0.013109562710342202,,,,,0.4621727239623927,1664,1936,1,0.95,WHITE,WHITE,True,0,0.0010000003385357559,WHITE,True,CORRECT,0.5156997999984014,515.6997999984014
7,20260325_141148,J,D,True,AUTOMATION1,3,105,905,fixed_delta,0.033374705876577364,0.013109562710342202,,,,,0.4711826635736872,1696,1904,1,0.95,WHITE,WHITE,True,0,0.0015000005078036338,WHITE,True,CORRECT,0.577387400000589,577.387400000589
7,20260325_141148,J,D,True,AUTOMATION1,3,106,906,fixed_delta,0.033374705876577364,0.013109562710342202,,,,,0.45928353027077334,1653,1947,1,0.95,WHITE,WHITE,True,0,0.0010000003385357559,WHITE,True,CORRECT,0.41991820000112057,419.91820000112057
7,20260325_141148,J,D,True,AUTOMATION1,3,107,907,fixed_delta,0.033374705876577364,0.013109562710342202,,,,,0.5347923472613756,1925,1675,1,0.95,BLACK,BLACK,True,0,0.0013000026228837669,BLACK,True,CORRECT,0.4939035999996122,493.9035999996122
7,20260325_141148,J,D,True,AUTOMATION1,3,108,908,fixed_delta,0.033374705876577364,0.013109562710342202,,,,,0.44825120699298215,1614,1986,1,0.95,WHITE,WHITE,True,0,0.0010000003385357559,WHITE,True,CORRECT,0.5701340999985405,570.1340999985405
7,20260325_141148,J,D,True,AUTOMATION1,3,109,909,fixed_delta,0.033374705876577364,0.013109562710342202,,,,,0.5272214167673162,1898,1702,1,0.95,BLACK,BLACK,True,0,0.0009999967005569488,BLACK,True,CORRECT,0.4990561999984493,499.0561999984493
7,20260325_141148,J,D,True,AUTOMATION1,3,110,910,fixed_delta,0.033374705876577364,0.013109562710342202,,,,,0.49050126102292657,1766,1834,1,0.95,WHITE,WHITE,True,0,0.0010000003385357559,WHITE,True,CORRECT,0.48172559999875375,481.72559999875375
7,20260325_141148,J,D,True,AUTOMATION1,3,111,911,fixed_delta,0.033374705876577364,0.013109562710342202,,,,,0.445672510643368,1604,1996,1,0.95,WHITE,WHITE,True,0,0.0010000003385357559,WHITE,True,CORRECT,0.5985848999989685,598.5848999989685
7,20260325_141148,J,D,True,AUTOMATION1,3,112,912,fixed_delta,0.033374705876577364,0.013109562710342202,,,,,0.47622221940164544,1714,1886,1,0.95,WHITE,WHITE,True,0,0.0013999997463542968,WHITE,True,CORRECT,0.7736049000013736,773.6049000013736
7,20260325_141148,J,D,True,AUTOMATION1,3,113,913,fixed_delta,0.033374705876577364,0.013109562710342202,,,,,0.4636526549828454,1669,1931,1,0.95,WHITE,WHITE,True,0,0.0016000012692529708,WHITE,True,CORRECT,0.630998600001476,630.998600001476
7,20260325_141148,J,D,True,AUTOMATION1,3,114,914,fixed_delta,0.033374705876577364,0.013109562710342202,,,,,0.47204609748909204,1699,1901,1,0.95,WHITE,WHITE,True,0,0.0013000026228837669,WHITE,True,CORRECT,0.5387047000003804,538.7047000003804
7,20260325_141148,J,D,True,AUTOMATION1,3,115,915,fixed_delta,0.033374705876577364,0.013109562710342202,,,,,0.45875363778948947,1652,1948,1,0.95,WHITE,WHITE,True,0,0.0017999991541728377,WHITE,True,CORRECT,0.5163267999996606,516.3267999996606
7,20260325_141148,J,D,True,AUTOMATION1,3,116,916,fixed_delta,0.033374705876577364,0.013109562710342202,,,,,0.54111927366594,1948,1652,1,0.95,BLACK,BLACK,True,0,0.0008999995770864189,BLACK,True,CORRECT,0.4928074000017659,492.8074000017659
7,20260325_141148,J,D,True,AUTOMATION1,3,117,917,fixed_delta,0.033374705876577364,0.013109562710342202,,,,,0.46070459807885167,1659,1941,1,0.95,WHITE,WHITE,True,0,0.0011000010999850929,WHITE,True,CORRECT,0.567797800002154,567.797800002154
7,20260325_141148,J,D,True,AUTOMATION1,3,118,918,fixed_delta,0.033374705876577364,0.013109562710342202,,,,,0.5458313575072715,1965,1635,1,0.95,BLACK,BLACK,True,0,0.0012999989849049598,BLACK,True,CORRECT,0.5728234999987762,572.8234999987762
7,20260325_141148,J,D,True,AUTOMATION1,3,119,919,fixed_delta,0.033374705876577364,0.013109562710342202,,,,,0.5342898085201981,1923,1677,1,0.95,BLACK,BLACK,True,0,0.0017999991541728377,BLACK,True,CORRECT,0.9741112000010617,974.1112000010617
7,20260325_141148,J,D,True,AUTOMATION1,3,120,920,fixed_delta,0.033374705876577364,0.013109562710342202,,,,,0.523094048428569,1883,1717,1,0.95,BLACK,BLACK,True,0,0.000900003215065226,BLACK,True,CORRECT,0.757853500002966,757.853500002966
7,20260325_141148,J,D,True,AUTOMATION1,3,121,921,fixed_delta,0.033374705876577364,0.013109562710342202,,,,,0.5385226809895021,1939,1661,1,0.95,BLACK,BLACK,True,0,0.0011000010999850929,BLACK,True,CORRECT,0.4904309999983525,490.4309999983525
7,20260325_141148,J,D,True,AUTOMATION1,3,122,922,fixed_delta,0.033374705876577364,0.013109562710342202,,,,,0.47683639610495104,1717,1883,1,0.95,WHITE,WHITE,True,0,0.0010999974620062858,WHITE,True,CORRECT,0.6281875999993645,628.1875999993645
7,20260325_141148,J,D,True,AUTOMATION1,3,123,923,fixed_delta,0.033374705876577364,0.013109562710342202,,,,,0.5316686332170596,1914,1686,1,0.95,BLACK,BLACK,True,0,0.0013999997463542968,WHITE,False,INCORRECT,0.8211416000012832,821.1416000012832
7,20260325_141148,J,D,True,AUTOMATION1,3,124,924,fixed_delta,0.033374705876577364,0.013109562710342202,,,,,0.45600939804258106,1642,1958,1,0.95,WHITE,WHITE,True,0,0.0012999989849049598,WHITE,True,CORRECT,0.4297982999996748,429.7982999996748
7,20260325_141148,J,D,True,AUTOMATION1,3,125,925,fixed_delta,0.033374705876577364,0.013109562710342202,,,,,0.5327016277602875,1918,1682,1,0.95,BLACK,BLACK,True,0,0.0013000026228837669,BLACK,True,CORRECT,0.41105310000057216,411.05310000057216
7,20260325_141148,J,D,True,AUTOMATION1,3,126,926,fixed_delta,0.033374705876577364,0.013109562710342202,,,,,0.477066904374555,1717,1883,1,0.95,WHITE,WHITE,True,0,0.0017000020307023078,WHITE,True,CORRECT,0.4251889000006486,425.1889000006486
7,20260325_141148,J,D,True,AUTOMATION1,3,127,927,fixed_delta,0.033374705876577364,0.013109562710342202,,,,,0.4603378966110833,1657,1943,1,0.95,WHITE,WHITE,True,0,0.0015000005078036338,WHITE,True,CORRECT,0.42846389999976964,428.46389999976964
7,20260325_141148,J,D,True,AUTOMATION1,3,128,928,fixed_delta,0.033374705876577364,0.013109562710342202,,,,,0.5291333057984203,1905,1695,1,0.95,BLACK,BLACK,True,0,0.0011000010999850929,BLACK,True,CORRECT,0.6224078000013833,622.4078000013833
7,20260325_141148,J,D,True,AUTOMATION1,3,129,929,fixed_delta,0.033374705876577364,0.013109562710342202,,,,,0.5507194867220668,1983,1617,1,0.95,BLACK,BLACK,True,0,0.0012999989849049598,BLACK,True,CORRECT,0.42029570000158856,420.29570000158856
7,20260325_141148,J,D,True,AUTOMATION1,3,130,930,fixed_delta,0.033374705876577364,0.013109562710342202,,,,,0.5422069935573353,1952,1648,1,0.95,BLACK,BLACK,True,0,0.0010000003385357559,BLACK,True,CORRECT,0.38381630000003497,383.81630000003497
7,20260325_141148,J,D,True,AUTOMATION1,3,131,931,fixed_delta,0.033374705876577364,0.013109562710342202,,,,,0.48127128149327913,1733,1867,1,0.95,WHITE,WHITE,True,0,0.0013000026228837669,WHITE,True,CORRECT,0.3860407000029227,386.0407000029227
7,20260325_141148,J,D,True,AUTOMATION1,3,132,932,fixed_delta,0.033374705876577364,0.013109562710342202,,,,,0.47593575634440116,1713,1887,1,0.95,WHITE,WHITE,True,0,0.0010000003385357559,WHITE,True,CORRECT,0.36691260000225157,366.91260000225157
7,20260325_141148,J,D,True,AUTOMATION1,3,133,933,fixed_delta,0.033374705876577364,0.013109562710342202,,,,,0.47138649543144867,1697,1903,1,0.95,WHITE,WHITE,True,0,0.001400003384333104,WHITE,True,CORRECT,0.40032630000132485,400.32630000132485
7,20260325_141148,J,D,True,AUTOMATION1,3,134,934,fixed_delta,0.033374705876577364,0.013109562710342202,,,,,0.5208102346714543,1875,1725,1,0.95,BLACK,WHITE,False,0,0.0008999995770864189,WHITE,False,INCORRECT,0.4041068999977142,404.1068999977142
7,20260325_141148,J,D,True,AUTOMATION1,3,135,935,fixed_delta,0.033374705876577364,0.013109562710342202,,,,,0.5222822075323166,1880,1720,1,0.95,BLACK,BLACK,True,0,0.0011000010999850929,BLACK,True,CORRECT,0.3953761000011582,395.3761000011582
7,20260325_141148,J,D,True,AUTOMATION1,3,136,936,fixed_delta,0.033374705876577364,0.013109562710342202,,,,,0.5256569440436183,1892,1708,1,0.95,BLACK,BLACK,True,0,0.0008999995770864189,BLACK,True,CORRECT,0.35099320000153966,350.99320000153966
7,20260325_141148,J,D,True,AUTOMATION1,3,137,937,fixed_delta,0.033374705876577364,0.013109562710342202,,,,,0.5405565539021541,1946,1654,1,0.95,BLACK,WHITE,False,0,0.0011999982234556228,WHITE,False,INCORRECT,0.27539180000167107,275.3918000016711
7,20260325_141148,J,D,True,AUTOMATION1,3,138,938,fixed_delta,0.033374705876577364,0.013109562710342202,,,,,0.518684877514772,1867,1733,1,0.95,BLACK,BLACK,True,0,0.0010000003385357559,BLACK,True,CORRECT,0.44376009999905364,443.76009999905364
7,20260325_141148,J,D,True,AUTOMATION1,3,139,939,fixed_delta,0.033374705876577364,0.013109562710342202,,,,,0.44018731059177096,1585,2015,1,0.95,WHITE,WHITE,True,0,0.0007999988156370819,WHITE,True,CORRECT,0.5612493999979051,561.2493999979051
7,20260325_141148,J,D,True,AUTOMATION1,3,140,940,fixed_delta,0.033374705876577364,0.013109562710342202,,,,,0.5096214313009881,1835,1765,1,0.95,BLACK,BLACK,True,0,0.0008999995770864189,BLACK,True,CORRECT,0.5122644000002765,512.2644000002765
7,20260325_141148,J,D,True,AUTOMATION1,3,141,941,fixed_delta,0.033374705876577364,0.013109562710342202,,,,,0.5303076384088452,1909,1691,1,0.95,BLACK,BLACK,True,0,0.0018999999156221747,BLACK,True,CORRECT,0.4230323000010685,423.0323000010685
7,20260325_141148,J,D,True,AUTOMATION1,3,142,942,fixed_delta,0.033374705876577364,0.013109562710342202,,,,,0.5240249080786916,1886,1714,1,0.95,BLACK,BLACK,True,0,0.0011000010999850929,BLACK,True,CORRECT,0.41712250000273343,417.12250000273343
7,20260325_141148,J,D,True,AUTOMATION1,3,143,943,fixed_delta,0.033374705876577364,0.013109562710342202,,,,,0.4723206540464637,1700,1900,1,0.95,WHITE,WHITE,True,0,0.0013999997463542968,WHITE,True,CORRECT,0.4198953999984951,419.8953999984951
7,20260325_141148,J,D,True,AUTOMATION1,3,144,944,fixed_delta,0.033374705876577364,0.013109562710342202,,,,,0.5464390840558679,1967,1633,1,0.95,BLACK,BLACK,True,0,0.0011000010999850929,BLACK,True,CORRECT,0.41041690000201925,410.41690000201925
7,20260325_141148,J,D,True,AUTOMATION1,3,145,945,fixed_delta,0.033374705876577364,0.013109562710342202,,,,,0.5275677140467356,1899,1701,1,0.95,BLACK,BLACK,True,0,0.0011999982234556228,BLACK,True,CORRECT,0.44617920000018785,446.17920000018785
7,20260325_141148,J,D,True,AUTOMATION1,3,146,946,fixed_delta,0.033374705876577364,0.013109562710342202,,,,,0.5143765935574915,1852,1748,1,0.95,BLACK,BLACK,True,0,0.0013999997463542968,BLACK,True,CORRECT,0.4144899000020814,414.4899000020814
7,20260325_141148,J,D,True,AUTOMATION1,3,147,947,fixed_delta,0.033374705876577364,0.013109562710342202,,,,,0.5200653586272549,1872,1728,1,0.95,BLACK,BLACK,True,0,0.0012999989849049598,BLACK,True,CORRECT,0.3865320000004431,386.5320000004431
7,20260325_141148,J,D,True,AUTOMATION1,3,148,948,fixed_delta,0.033374705876577364,0.013109562710342202,,,,,0.47407490894868953,1707,1893,1,0.95,WHITE,WHITE,True,0,0.0012999989849049598,WHITE,True,CORRECT,0.4554677000014635,455.4677000014635
7,20260325_141148,J,D,True,AUTOMATION1,3,149,949,fixed_delta,0.033374705876577364,0.013109562710342202,,,,,0.5174985133057869,1863,1737,1,0.95,BLACK,BLACK,True,0,0.0026000016077887267,BLACK,True,CORRECT,0.37735890000112704,377.35890000112704
7,20260325_141148,J,D,True,AUTOMATION1,3,150,950,fixed_delta,0.033374705876577364,0.013109562710342202,,,,,0.518316923348656,1866,1734,1,0.95,BLACK,BLACK,True,0,0.0008999995770864189,BLACK,True,CORRECT,0.48283149999770103,482.83149999770103
7,20260325_141148,J,D,True,AUTOMATION1,3,151,951,fixed_delta,0.033374705876577364,0.013109562710342202,,,,,0.4818633046072398,1735,1865,1,0.95,WHITE,WHITE,True,0,0.0011000010999850929,WHITE,True,CORRECT,0.5863486000016565,586.3486000016565
7,20260325_141148,J,D,True,AUTOMATION1,3,152,952,fixed_delta,0.033374705876577364,0.013109562710342202,,,,,0.5358231098269977,1929,1671,1,0.95,BLACK,BLACK,True,0,0.0017000020307023078,BLACK,True,CORRECT,0.3772473999997601,377.2473999997601
7,20260325_141148,J,D,True,AUTOMATION1,3,153,953,fixed_delta,0.033374705876577364,0.013109562710342202,,,,,0.5382187335817822,1938,1662,1,0.95,BLACK,BLACK,True,0,0.0031000017770566046,BLACK,True,CORRECT,0.39811069999996107,398.11069999996107
7,20260325_141148,J,D,True,AUTOMATION1,3,154,954,fixed_delta,0.033374705876577364,0.013109562710342202,,,,,0.4568061535162583,1645,1955,1,0.95,WHITE,WHITE,True,0,0.0011000010999850929,WHITE,True,CORRECT,0.5798961000000418,579.8961000000418
7,20260325_141148,J,D,True,AUTOMATION1,3,155,955,fixed_delta,0.033374705876577364,0.013109562710342202,,,,,0.5278609961548529,1900,1700,1,0.95,BLACK,BLACK,True,0,0.0010000003385357559,BLACK,True,CORRECT,0.40765660000033677,407.65660000033677
7,20260325_141148,J,D,True,AUTOMATION1,3,156,956,fixed_delta,0.033374705876577364,0.013109562710342202,,,,,0.4671213326131021,1682,1918,1,0.95,WHITE,BLACK,False,0,0.0011000010999850929,BLACK,False,INCORRECT,0.5595100000027742,559.5100000027742
7,20260325_141148,J,D,True,AUTOMATION1,3,157,957,fixed_delta,0.033374705876577364,0.013109562710342202,,,,,0.5450820289224343,1962,1638,1,0.95,BLACK,BLACK,True,0,0.0012000018614344299,WHITE,False,INCORRECT,1.0046556000015698,1004.6556000015698
7,20260325_141148,J,D,True,AUTOMATION1,3,158,958,fixed_delta,0.033374705876577364,0.013109562710342202,,,,,0.5390906492047726,1941,1659,1,0.95,BLACK,BLACK,True,0,0.0011000010999850929,BLACK,True,CORRECT,0.4555980000004638,455.5980000004638
7,20260325_141148,J,D,True,AUTOMATION1,3,159,959,fixed_delta,0.033374705876577364,0.013109562710342202,,,,,0.4708013156237673,1695,1905,1,0.95,WHITE,WHITE,True,0,0.0011000010999850929,WHITE,True,CORRECT,0.3866435999989335,386.6435999989335
7,20260325_141148,J,D,True,AUTOMATION1,3,160,960,fixed_delta,0.033374705876577364,0.013109562710342202,,,,,0.4753826112623997,1711,1889,1,0.95,WHITE,WHITE,True,0,0.0013000026228837669,WHITE,True,CORRECT,0.44932470000276226,449.32470000276226
7,20260325_141148,J,D,True,AUTOMATION1,3,161,961,fixed_delta,0.033374705876577364,0.013109562710342202,,,,,0.4445355254993683,1600,2000,1,0.95,WHITE,WHITE,True,0,0.0013000026228837669,WHITE,True,CORRECT,0.3846432000027562,384.6432000027562
7,20260325_141148,J,D,True,AUTOMATION1,3,162,962,fixed_delta,0.033374705876577364,0.013109562710342202,,,,,0.46674021186444686,1680,1920,1,0.95,WHITE,BLACK,False,0,0.0017999991541728377,BLACK,False,INCORRECT,0.3971696999979031,397.1696999979031
7,20260325_141148,J,D,True,AUTOMATION1,3,163,963,fixed_delta,0.033374705876577364,0.013109562710342202,,,,,0.5216169279574472,1878,1722,1,0.95,BLACK,BLACK,True,0,0.0010000003385357559,BLACK,True,CORRECT,0.44617419999849517,446.17419999849517
7,20260325_141148,J,D,True,AUTOMATION1,3,164,964,fixed_delta,0.033374705876577364,0.013109562710342202,,,,,0.44498779865559884,1602,1998,1,0.95,WHITE,WHITE,True,0,0.0011999982234556228,WHITE,True,CORRECT,0.33462149999832036,334.62149999832036
7,20260325_141148,J,D,True,AUTOMATION1,3,165,965,fixed_delta,0.033374705876577364,0.013109562710342202,,,,,0.5326771348130533,1918,1682,1,0.95,BLACK,BLACK,True,0,0.0012000018614344299,BLACK,True,CORRECT,0.45475680000163266,454.75680000163266
7,20260325_141148,J,D,True,AUTOMATION1,3,166,966,fixed_delta,0.033374705876577364,0.013109562710342202,,,,,0.534577655428857,1924,1676,1,0.95,BLACK,BLACK,True,0,0.0010000003385357559,BLACK,True,CORRECT,0.4651140000023588,465.1140000023588
7,20260325_141148,J,D,True,AUTOMATION1,3,167,967,fixed_delta,0.033374705876577364,0.013109562710342202,,,,,0.46436582018065126,1672,1928,1,0.95,WHITE,WHITE,True,0,0.0012999989849049598,WHITE,True,CORRECT,0.377376299999014,377.376299999014
7,20260325_141148,J,D,True,AUTOMATION1,3,168,968,fixed_delta,0.033374705876577364,0.013109562710342202,,,,,0.483356858771017,1740,1860,1,0.95,WHITE,WHITE,True,0,0.0008999995770864189,WHITE,True,CORRECT,0.4919195000002219,491.9195000002219
7,20260325_141148,J,D,True,AUTOMATION1,3,169,969,fixed_delta,0.033374705876577364,0.013109562710342202,,,,,0.5243328118186593,1888,1712,1,0.95,BLACK,BLACK,True,0,0.0010000003385357559,BLACK,True,CORRECT,0.41555109999899287,415.55109999899287
7,20260325_141148,J,D,True,AUTOMATION1,3,170,970,fixed_delta,0.033374705876577364,0.013109562710342202,,,,,0.5289786941107495,1904,1696,1,0.95,BLACK,BLACK,True,0,0.0010999974620062858,BLACK,True,CORRECT,0.463364699997328,463.364699997328
7,20260325_141148,J,D,True,AUTOMATION1,3,171,971,fixed_delta,0.033374705876577364,0.013109562710342202,,,,,0.531821454330041,1915,1685,1,0.95,BLACK,BLACK,True,0,0.0010000003385357559,BLACK,True,CORRECT,0.5389027000019269,538.9027000019269
7,20260325_141148,J,D,True,AUTOMATION1,3,172,972,fixed_delta,0.033374705876577364,0.013109562710342202,,,,,0.4702654431075981,1693,1907,1,0.95,WHITE,WHITE,True,0,0.0008999995770864189,WHITE,True,CORRECT,0.6612119000019447,661.2119000019447
7,20260325_141148,J,D,True,AUTOMATION1,3,173,973,fixed_delta,0.033374705876577364,0.013109562710342202,,,,,0.4635765655301746,1669,1931,1,0.95,WHITE,WHITE,True,0,0.0011000010999850929,BLACK,False,INCORRECT,0.4160330000013346,416.0330000013346
7,20260325_141148,J,D,True,AUTOMATION1,3,174,974,fixed_delta,0.033374705876577364,0.013109562710342202,,,,,0.47391973772945006,1706,1894,1,0.95,WHITE,WHITE,True,0,0.0014999968698248267,WHITE,True,CORRECT,0.8014356999992742,801.4356999992742
7,20260325_141148,J,D,True,AUTOMATION1,3,175,975,fixed_delta,0.033374705876577364,0.013109562710342202,,,,,0.542797473268238,1954,1646,1,0.95,BLACK,BLACK,True,0,0.001400003384333104,BLACK,True,CORRECT,0.3976178000011714,397.6178000011714
7,20260325_141148,J,D,True,AUTOMATION1,3,176,976,fixed_delta,0.033374705876577364,0.013109562710342202,,,,,0.4772860209674653,1718,1882,1,0.95,WHITE,WHITE,True,0,0.0011000010999850929,WHITE,True,CORRECT,0.7785031000021263,778.5031000021263
7,20260325_141148,J,D,True,AUTOMATION1,3,177,977,fixed_delta,0.033374705876577364,0.013109562710342202,,,,,0.532871626632574,1918,1682,1,0.95,BLACK,BLACK,True,0,0.0010000003385357559,BLACK,True,CORRECT,0.6504413000002387,650.4413000002387
7,20260325_141148,J,D,True,AUTOMATION1,3,178,978,fixed_delta,0.033374705876577364,0.013109562710342202,,,,,0.45887070062684,1652,1948,1,0.95,WHITE,WHITE,True,0,0.0008999995770864189,WHITE,True,CORRECT,0.4491788999985147,449.1788999985147
7,20260325_141148,J,D,True,AUTOMATION1,3,179,979,fixed_delta,0.033374705876577364,0.013109562710342202,,,,,0.4575519510310506,1647,1953,1,0.95,WHITE,WHITE,True,0,0.0010000003385357559,WHITE,True,CORRECT,0.5603023000003304,560.3023000003304
7,20260325_141148,J,D,True,AUTOMATION1,3,180,980,fixed_delta,0.033374705876577364,0.013109562710342202,,,,,0.462525570839444,1665,1935,1,0.95,WHITE,WHITE,True,0,0.0013999997463542968,WHITE,True,CORRECT,0.44756710000001476,447.56710000001476
7,20260325_141148,J,D,True,AUTOMATION1,3,181,981,fixed_delta,0.033374705876577364,0.013109562710342202,,,,,0.5471447418591238,1970,1630,1,0.95,BLACK,BLACK,True,0,0.0012999989849049598,BLACK,True,CORRECT,0.40863610000087647,408.63610000087647
7,20260325_141148,J,D,True,AUTOMATION1,3,182,982,fixed_delta,0.033374705876577364,0.013109562710342202,,,,,0.5520588646271007,1987,1613,1,0.95,BLACK,BLACK,True,0,0.0015999976312741637,BLACK,True,CORRECT,0.4238134999977774,423.8134999977774
7,20260325_141148,J,D,True,AUTOMATION1,3,183,983,fixed_delta,0.033374705876577364,0.013109562710342202,,,,,0.4570258377912537,1645,1955,1,0.95,WHITE,WHITE,True,0,0.0013999997463542968,WHITE,True,CORRECT,0.5451150000008056,545.1150000008056
7,20260325_141148,J,D,True,AUTOMATION1,3,184,984,fixed_delta,0.033374705876577364,0.013109562710342202,,,,,0.452106135116368,1628,1972,1,0.95,WHITE,WHITE,True,0,0.0012000018614344299,WHITE,True,CORRECT,0.6413812000027974,641.3812000027974
7,20260325_141148,J,D,True,AUTOMATION1,3,185,985,fixed_delta,0.033374705876577364,0.013109562710342202,,,,,0.5527109874484422,1990,1610,1,0.95,BLACK,BLACK,True,0,0.000900003215065226,BLACK,True,CORRECT,0.43399700000009034,433.99700000009034
7,20260325_141148,J,D,True,AUTOMATION1,3,186,986,fixed_delta,0.033374705876577364,0.013109562710342202,,,,,0.5416079620048073,1950,1650,1,0.95,BLACK,BLACK,True,0,0.0010999974620062858,WHITE,False,INCORRECT,0.5092406999974628,509.2406999974628
7,20260325_141148,J,D,True,AUTOMATION1,3,187,987,fixed_delta,0.033374705876577364,0.013109562710342202,,,,,0.43543236353168036,1568,2032,1,0.95,WHITE,WHITE,True,0,0.0011999982234556228,WHITE,True,CORRECT,0.5768167999995057,576.8167999995057
7,20260325_141148,J,D,True,AUTOMATION1,3,188,988,fixed_delta,0.033374705876577364,0.013109562710342202,,,,,0.48235884194569995,1736,1864,1,0.95,WHITE,WHITE,True,0,0.0013000026228837669,WHITE,True,CORRECT,0.7052275000023656,705.2275000023656
7,20260325_141148,J,D,True,AUTOMATION1,3,189,989,fixed_delta,0.033374705876577364,0.013109562710342202,,,,,0.47530184973362716,1711,1889,1,0.95,WHITE,WHITE,True,0,0.0018000027921516448,WHITE,True,CORRECT,0.7004209000006085,700.4209000006085
7,20260325_141148,J,D,True,AUTOMATION1,3,190,990,fixed_delta,0.033374705876577364,0.013109562710342202,,,,,0.44487118361902905,1602,1998,1,0.95,WHITE,WHITE,True,0,0.0013000026228837669,WHITE,True,CORRECT,0.46304370000143535,463.04370000143535
7,20260325_141148,J,D,True,AUTOMATION1,3,191,991,fixed_delta,0.033374705876577364,0.013109562710342202,,,,,0.5006988952876535,1803,1797,1,0.95,BLACK,BLACK,True,0,0.0011000010999850929,BLACK,True,CORRECT,0.5506163999998535,550.6163999998535
7,20260325_141148,J,D,True,AUTOMATION1,3,192,992,fixed_delta,0.033374705876577364,0.013109562710342202,,,,,0.4835093124576982,1741,1859,1,0.95,WHITE,WHITE,True,0,0.0015000005078036338,WHITE,True,CORRECT,0.5222624999987602,522.2624999987602
7,20260325_141148,J,D,True,AUTOMATION1,3,193,993,fixed_delta,0.033374705876577364,0.013109562710342202,,,,,0.47451348116484826,1708,1892,1,0.95,WHITE,WHITE,True,0,0.0012000018614344299,WHITE,True,CORRECT,0.4310910000021977,431.0910000021977
7,20260325_141148,J,D,True,AUTOMATION1,3,194,994,fixed_delta,0.033374705876577364,0.013109562710342202,,,,,0.47138034020213804,1697,1903,1,0.95,WHITE,WHITE,True,0,0.0013000026228837669,WHITE,True,CORRECT,0.4781615000028978,478.1615000028978
7,20260325_141148,J,D,True,AUTOMATION1,3,195,995,fixed_delta,0.033374705876577364,0.013109562710342202,,,,,0.5211286100379664,1876,1724,1,0.95,BLACK,BLACK,True,0,0.0010000003385357559,BLACK,True,CORRECT,0.6031922000001941,603.1922000001941
7,20260325_141148,J,D,True,AUTOMATION1,3,196,996,fixed_delta,0.033374705876577364,0.013109562710342202,,,,,0.5116226232328007,1842,1758,1,0.95,BLACK,BLACK,True,0,0.0012000018614344299,BLACK,True,CORRECT,0.5648516000001109,564.8516000001109
7,20260325_141148,J,D,True,AUTOMATION1,3,197,997,fixed_delta,0.033374705876577364,0.013109562710342202,,,,,0.566529820440195,2040,1560,1,0.95,BLACK,BLACK,True,0,0.0011000010999850929,BLACK,True,CORRECT,0.3736635999994178,373.6635999994178
7,20260325_141148,J,D,True,AUTOMATION1,3,198,998,fixed_delta,0.033374705876577364,0.013109562710342202,,,,,0.531599178745142,1914,1686,1,0.95,BLACK,BLACK,True,0,0.0015000005078036338,BLACK,True,CORRECT,0.42346050000196556,423.46050000196556
7,20260325_141148,J,D,True,AUTOMATION1,3,199,999,fixed_delta,0.033374705876577364,0.013109562710342202,,,,,0.4555899953851058,1640,1960,1,0.95,WHITE,WHITE,True,0,0.0012000018614344299,WHITE,True,CORRECT,0.3770088000019314,377.0088000019314
7,20260325_141148,J,D,True,AUTOMATION1,3,200,1000,fixed_delta,0.033374705876577364,0.013109562710342202,,,,,0.47500542092886106,1710,1890,1,0.95,WHITE,WHITE,True,0,0.0012999989849049598,WHITE,True,CORRECT,0.40167099999962375,401.67099999962375
7,20260325_141148,J,D,True,AUTOMATION1,3,201,1001,fixed_delta,0.033374705876577364,0.013109562710342202,,,,,0.5108547460619766,1839,1761,1,0.95,BLACK,BLACK,True,0,0.0012000018614344299,BLACK,True,CORRECT,0.4370753000002878,437.0753000002878
7,20260325_141148,J,D,True,AUTOMATION1,3,202,1002,fixed_delta,0.033374705876577364,0.013109562710342202,,,,,0.5191999457780523,1869,1731,1,0.95,BLACK,BLACK,True,0,0.0014999968698248267,BLACK,True,CORRECT,0.3828555000000051,382.8555000000051
7,20260325_141148,J,D,True,AUTOMATION1,3,203,1003,fixed_delta,0.033374705876577364,0.013109562710342202,,,,,0.5368245303914314,1933,1667,1,0.95,BLACK,BLACK,True,0,0.0015999976312741637,BLACK,True,CORRECT,0.6031960000000254,603.1960000000254
7,20260325_141148,J,D,True,AUTOMATION1,3,204,1004,fixed_delta,0.033374705876577364,0.013109562710342202,,,,,0.4570974551431782,1646,1954,1,0.95,WHITE,WHITE,True,0,0.0015000005078036338,WHITE,True,CORRECT,0.5143463999993401,514.3463999993401
7,20260325_141148,J,D,True,AUTOMATION1,3,205,1005,fixed_delta,0.033374705876577364,0.013109562710342202,,,,,0.4476811527870792,1612,1988,1,0.95,WHITE,WHITE,True,0,0.0012000018614344299,WHITE,True,CORRECT,0.39634080000178074,396.34080000178074
7,20260325_141148,J,D,True,AUTOMATION1,3,206,1006,fixed_delta,0.033374705876577364,0.013109562710342202,,,,,0.5297509837434431,1907,1693,1,0.95,BLACK,BLACK,True,0,0.0013000026228837669,BLACK,True,CORRECT,0.4217991000004986,421.7991000004986
7,20260325_141148,J,D,True,AUTOMATION1,3,207,1007,fixed_delta,0.033374705876577364,0.013109562710342202,,,,,0.5281507266063378,1901,1699,1,0.95,BLACK,BLACK,True,0,0.0011000010999850929,BLACK,True,CORRECT,0.4616829000005964,461.6829000005964
7,20260325_141148,J,D,True,AUTOMATION1,3,208,1008,fixed_delta,0.033374705876577364,0.013109562710342202,,,,,0.5593576877869954,2014,1586,1,0.95,BLACK,BLACK,True,0,0.0011999982234556228,BLACK,True,CORRECT,0.3822413999987475,382.2413999987475
7,20260325_141148,J,D,True,AUTOMATION1,3,209,1009,fixed_delta,0.033374705876577364,0.013109562710342202,,,,,0.5415904165304453,1950,1650,1,0.95,BLACK,BLACK,True,0,0.0007999988156370819,BLACK,True,CORRECT,0.49328830000013113,493.28830000013113
7,20260325_141148,J,D,True,AUTOMATION1,3,210,1010,fixed_delta,0.033374705876577364,0.013109562710342202,,,,,0.45233654027775183,1628,1972,1,0.95,WHITE,WHITE,True,0,0.0013999997463542968,WHITE,True,CORRECT,0.43610869999974966,436.10869999974966
7,20260325_141148,J,D,True,AUTOMATION1,3,211,1011,fixed_delta,0.033374705876577364,0.013109562710342202,,,,,0.4505877657377255,1622,1978,1,0.95,WHITE,WHITE,True,0,0.0011999982234556228,WHITE,True,CORRECT,0.38653249999697437,386.53249999697437
7,20260325_141148,J,D,True,AUTOMATION1,3,212,1012,fixed_delta,0.033374705876577364,0.013109562710342202,,,,,0.462296557106364,1664,1936,1,0.95,WHITE,WHITE,True,0,0.0011999982234556228,WHITE,True,CORRECT,0.4235356999997748,423.5356999997748
7,20260325_141148,J,D,True,AUTOMATION1,3,213,1013,fixed_delta,0.033374705876577364,0.013109562710342202,,,,,0.5357832053398517,1929,1671,1,0.95,BLACK,BLACK,True,0,0.0012999989849049598,BLACK,True,CORRECT,0.481355199997779,481.355199997779
7,20260325_141148,J,D,True,AUTOMATION1,3,214,1014,fixed_delta,0.033374705876577364,0.013109562710342202,,,,,0.4497474893640497,1619,1981,1,0.95,WHITE,WHITE,True,0,0.0009999967005569488,WHITE,True,CORRECT,0.40216859999782173,402.16859999782173
7,20260325_141148,J,D,True,AUTOMATION1,3,215,1015,fixed_delta,0.033374705876577364,0.013109562710342202,,,,,0.534558356025205,1924,1676,1,0.95,BLACK,BLACK,True,0,0.0008999995770864189,BLACK,True,CORRECT,0.49460719999842695,494.60719999842695
7,20260325_141148,J,D,True,AUTOMATION1,3,216,1016,fixed_delta,0.033374705876577364,0.013109562710342202,,,,,0.5385072239862232,1939,1661,1,0.95,BLACK,BLACK,True,0,0.0011999982234556228,BLACK,True,CORRECT,0.495837999998912,495.837999998912
7,20260325_141148,J,D,True,AUTOMATION1,3,217,1017,fixed_delta,0.033374705876577364,0.013109562710342202,,,,,0.48323603666467774,1740,1860,1,0.95,WHITE,WHITE,True,0,0.0010000003385357559,WHITE,True,CORRECT,0.3863932999993267,386.3932999993267
7,20260325_141148,J,D,True,AUTOMATION1,3,218,1018,fixed_delta,0.033374705876577364,0.013109562710342202,,,,,0.47015779375268585,1693,1907,1,0.95,WHITE,WHITE,True,0,0.0013999997463542968,WHITE,True,CORRECT,0.38229320000027656,382.29320000027656
7,20260325_141148,J,D,True,AUTOMATION1,3,219,1019,fixed_delta,0.033374705876577364,0.013109562710342202,,,,,0.5467771019018266,1968,1632,1,0.95,BLACK,BLACK,True,0,0.0017999991541728377,BLACK,True,CORRECT,0.37113030000182334,371.13030000182334
7,20260325_141148,J,D,True,AUTOMATION1,3,220,1020,fixed_delta,0.033374705876577364,0.013109562710342202,,,,,0.5347770158042385,1925,1675,1,0.95,BLACK,BLACK,True,0,0.0011000010999850929,BLACK,True,CORRECT,0.45548090000011143,455.48090000011143
7,20260325_141148,J,D,True,AUTOMATION1,3,221,1021,fixed_delta,0.033374705876577364,0.013109562710342202,,,,,0.5174959180250167,1863,1737,1,0.95,BLACK,BLACK,True,0,0.0011000010999850929,WHITE,False,INCORRECT,0.5081410000020696,508.14100000206963
7,20260325_141148,J,D,True,AUTOMATION1,3,222,1022,fixed_delta,0.033374705876577364,0.013109562710342202,,,,,0.5535343937687709,1993,1607,1,0.95,BLACK,BLACK,True,0,0.0013999997463542968,BLACK,True,CORRECT,0.5428222000009555,542.8222000009555
7,20260325_141148,J,D,True,AUTOMATION1,3,223,1023,fixed_delta,0.033374705876577364,0.013109562710342202,,,,,0.517646711451855,1864,1736,1,0.95,BLACK,BLACK,True,0,0.0012000018614344299,BLACK,True,CORRECT,0.7588028000027407,758.8028000027407
7,20260325_141148,J,D,True,AUTOMATION1,3,224,1024,fixed_delta,0.033374705876577364,0.013109562710342202,,,,,0.465468337900468,1676,1924,1,0.95,WHITE,WHITE,True,0,0.0012000018614344299,WHITE,True,CORRECT,0.48400150000088615,484.00150000088615
7,20260325_141148,J,D,True,AUTOMATION1,3,225,1025,fixed_delta,0.033374705876577364,0.013109562710342202,,,,,0.5488067779015802,1976,1624,1,0.95,BLACK,BLACK,True,0,0.0011000010999850929,BLACK,True,CORRECT,0.57976570000028,579.76570000028
7,20260325_141148,J,D,True,AUTOMATION1,3,226,1026,fixed_delta,0.033374705876577364,0.013109562710342202,,,,,0.47020551348432227,1693,1907,1,0.95,WHITE,WHITE,True,0,0.0008999995770864189,WHITE,True,CORRECT,0.695085299998027,695.085299998027
7,20260325_141148,J,D,True,AUTOMATION1,3,227,1027,fixed_delta,0.033374705876577364,0.013109562710342202,,,,,0.4620591390039493,1663,1937,1,0.95,WHITE,WHITE,True,0,0.0012999989849049598,WHITE,True,CORRECT,0.5624898999994912,562.4898999994912
7,20260325_141148,J,D,True,AUTOMATION1,3,228,1028,fixed_delta,0.033374705876577364,0.013109562710342202,,,,,0.5318308968664679,1915,1685,1,0.95,BLACK,BLACK,True,0,0.0012999989849049598,BLACK,True,CORRECT,4.111612100001366,4111.612100001366
7,20260325_141148,J,D,True,AUTOMATION1,3,229,1029,fixed_delta,0.033374705876577364,0.013109562710342202,,,,,0.5533628253349427,1992,1608,1,0.95,BLACK,BLACK,True,0,0.0011999982234556228,BLACK,True,CORRECT,0.46169150000059744,461.69150000059744
7,20260325_141148,J,D,True,AUTOMATION1,3,230,1030,fixed_delta,0.033374705876577364,0.013109562710342202,,,,,0.46727118800093503,1682,1918,1,0.95,WHITE,WHITE,True,0,0.0013000026228837669,WHITE,True,CORRECT,0.5717268000007607,571.7268000007607
7,20260325_141148,J,D,True,AUTOMATION1,3,231,1031,fixed_delta,0.033374705876577364,0.013109562710342202,,,,,0.5224184231406444,1881,1719,1,0.95,BLACK,BLACK,True,0,0.0016000012692529708,BLACK,True,CORRECT,0.5391397000021243,539.1397000021243
7,20260325_141148,J,D,True,AUTOMATION1,3,232,1032,fixed_delta,0.033374705876577364,0.013109562710342202,,,,,0.5347380466909613,1925,1675,1,0.95,BLACK,BLACK,True,0,0.0010000003385357559,BLACK,True,CORRECT,0.5096006999992824,509.60069999928237
7,20260325_141148,J,D,True,AUTOMATION1,3,233,1033,fixed_delta,0.033374705876577364,0.013109562710342202,,,,,0.4588185563562315,1652,1948,1,0.95,WHITE,WHITE,True,0,0.0008999995770864189,WHITE,True,CORRECT,0.7748050999980478,774.8050999980478
7,20260325_141148,J,D,True,AUTOMATION1,3,234,1034,fixed_delta,0.033374705876577364,0.013109562710342202,,,,,0.47241581705340074,1701,1899,1,0.95,WHITE,WHITE,True,0,0.0011000010999850929,WHITE,True,CORRECT,0.4168987000011839,416.8987000011839
7,20260325_141148,J,D,True,AUTOMATION1,3,235,1035,fixed_delta,0.033374705876577364,0.013109562710342202,,,,,0.4843894753155251,1744,1856,1,0.95,WHITE,WHITE,True,0,0.0013999997463542968,WHITE,True,CORRECT,0.4070785000003525,407.0785000003525
7,20260325_141148,J,D,True,AUTOMATION1,3,236,1036,fixed_delta,0.033374705876577364,0.013109562710342202,,,,,0.5442377085889187,1959,1641,1,0.95,BLACK,BLACK,True,0,0.0011000010999850929,BLACK,True,CORRECT,0.4823715999991691,482.3715999991691
7,20260325_141148,J,D,True,AUTOMATION1,3,237,1037,fixed_delta,0.033374705876577364,0.013109562710342202,,,,,0.4764872497062554,1715,1885,1,0.95,WHITE,WHITE,True,0,0.000800002453615889,WHITE,True,CORRECT,0.4096460000000661,409.6460000000661
7,20260325_141148,J,D,True,AUTOMATION1,3,238,1038,fixed_delta,0.033374705876577364,0.013109562710342202,,,,,0.46421889486857676,1671,1929,1,0.95,WHITE,WHITE,True,0,0.0007999988156370819,WHITE,True,CORRECT,0.354080499997508,354.080499997508
7,20260325_141148,J,D,True,AUTOMATION1,3,239,1039,fixed_delta,0.033374705876577364,0.013109562710342202,,,,,0.5154403356237935,1856,1744,1,0.95,BLACK,BLACK,True,0,0.0012999989849049598,BLACK,True,CORRECT,0.2068314999996801,206.8314999996801
7,20260325_141148,J,D,True,AUTOMATION1,3,240,1040,fixed_delta,0.033374705876577364,0.013109562710342202,,,,,0.5101802504085565,1837,1763,1,0.95,BLACK,BLACK,True,0,0.0008999995770864189,BLACK,True,CORRECT,0.38685049999912735,386.85049999912735
7,20260325_141148,J,D,True,AUTOMATION1,3,241,1041,fixed_delta,0.033374705876577364,0.013109562710342202,,,,,0.437163981181919,1574,2026,1,0.95,WHITE,WHITE,True,0,0.0014999968698248267,WHITE,True,CORRECT,0.3331283999978041,333.1283999978041
7,20260325_141148,J,D,True,AUTOMATION1,3,242,1042,fixed_delta,0.033374705876577364,0.013109562710342202,,,,,0.5443228743849533,1960,1640,1,0.95,BLACK,BLACK,True,0,0.0012999989849049598,BLACK,True,CORRECT,0.32967790000111563,329.67790000111563
7,20260325_141148,J,D,True,AUTOMATION1,3,243,1043,fixed_delta,0.033374705876577364,0.013109562710342202,,,,,0.46640853442244834,1679,1921,1,0.95,WHITE,WHITE,True,0,0.0012000018614344299,WHITE,True,CORRECT,0.28543139999965206,285.43139999965206
7,20260325_141148,J,D,True,AUTOMATION1,3,244,1044,fixed_delta,0.033374705876577364,0.013109562710342202,,,,,0.5346323963300205,1925,1675,1,0.95,BLACK,BLACK,True,0,0.0010000003385357559,BLACK,True,CORRECT,0.2704798999984632,270.4798999984632
7,20260325_141148,J,D,True,AUTOMATION1,3,245,1045,fixed_delta,0.033374705876577364,0.013109562710342202,,,,,0.44358334080434153,1597,2003,1,0.95,WHITE,WHITE,True,0,0.0012999989849049598,WHITE,True,CORRECT,0.24076969999805442,240.76969999805442
7,20260325_141148,J,D,True,AUTOMATION1,3,246,1046,fixed_delta,0.033374705876577364,0.013109562710342202,,,,,0.4616590057679488,1662,1938,1,0.95,WHITE,WHITE,True,0,0.0017000020307023078,BLACK,False,INCORRECT,0.18273360000239336,182.73360000239336
7,20260325_141148,J,D,True,AUTOMATION1,3,247,1047,fixed_delta,0.033374705876577364,0.013109562710342202,,,,,0.48172683143540385,1734,1866,1,0.95,WHITE,WHITE,True,0,0.0011000010999850929,WHITE,True,CORRECT,0.5451921999992919,545.1921999992919
7,20260325_141148,J,D,True,AUTOMATION1,3,248,1048,fixed_delta,0.033374705876577364,0.013109562710342202,,,,,0.4575099316479758,1647,1953,1,0.95,WHITE,WHITE,True,0,0.0015999976312741637,WHITE,True,CORRECT,0.5039452999990317,503.9452999990317
7,20260325_141148,J,D,True,AUTOMATION1,3,249,1049,fixed_delta,0.033374705876577364,0.013109562710342202,,,,,0.48440814158862827,1744,1856,1,0.95,WHITE,WHITE,True,0,0.0008999995770864189,WHITE,True,CORRECT,0.43054169999959413,430.54169999959413
7,20260325_141148,J,D,True,AUTOMATION1,3,250,1050,fixed_delta,0.033374705876577364,0.013109562710342202,,,,,0.484275712086504,1743,1857,1,0.95,WHITE,WHITE,True,0,0.0018000027921516448,WHITE,True,CORRECT,0.3575517999997828,357.5517999997828
7,20260325_141148,J,D,True,AUTOMATION1,3,251,1051,fixed_delta,0.033374705876577364,0.013109562710342202,,,,,0.5222780808721112,1880,1720,1,0.95,BLACK,BLACK,True,0,0.0010999974620062858,BLACK,True,CORRECT,0.38894449999861536,388.94449999861536
7,20260325_141148,J,D,True,AUTOMATION1,3,252,1052,fixed_delta,0.033374705876577364,0.013109562710342202,,,,,0.4530646452979881,1631,1969,1,0.95,WHITE,WHITE,True,0,0.0010000003385357559,WHITE,True,CORRECT,0.4295818999999028,429.5818999999028
7,20260325_141148,J,D,True,AUTOMATION1,3,253,1053,fixed_delta,0.033374705876577364,0.013109562710342202,,,,,0.5384798957937266,1939,1661,1,0.95,BLACK,BLACK,True,0,0.0012000018614344299,BLACK,True,CORRECT,0.4407320000027539,440.7320000027539
7,20260325_141148,J,D,True,AUTOMATION1,3,254,1054,fixed_delta,0.033374705876577364,0.013109562710342202,,,,,0.5434866375010403,1957,1643,1,0.95,BLACK,BLACK,True,0,0.0012000018614344299,BLACK,True,CORRECT,0.363397500001156,363.397500001156
7,20260325_141148,J,D,True,AUTOMATION1,3,255,1055,fixed_delta,0.033374705876577364,0.013109562710342202,,,,,0.5404821611847686,1946,1654,1,0.95,BLACK,BLACK,True,0,0.0008999995770864189,BLACK,True,CORRECT,0.4342429999996966,434.2429999996966
7,20260325_141148,J,D,True,AUTOMATION1,3,256,1056,fixed_delta,0.033374705876577364,0.013109562710342202,,,,,0.44995672550748844,1620,1980,1,0.95,WHITE,WHITE,True,0,0.0012000018614344299,WHITE,True,CORRECT,0.37208069999906,372.08069999906
7,20260325_141148,J,D,True,AUTOMATION1,3,257,1057,fixed_delta,0.033374705876577364,0.013109562710342202,,,,,0.5434874585077758,1957,1643,1,0.95,BLACK,BLACK,True,0,0.0012000018614344299,BLACK,True,CORRECT,0.4529590999991342,452.9590999991342
7,20260325_141148,J,D,True,AUTOMATION1,3,258,1058,fixed_delta,0.033374705876577364,0.013109562710342202,,,,,0.5364972583230067,1931,1669,1,0.95,BLACK,BLACK,True,0,0.0012999989849049598,BLACK,True,CORRECT,0.2950170000003709,295.0170000003709
7,20260325_141148,J,D,True,AUTOMATION1,3,259,1059,fixed_delta,0.033374705876577364,0.013109562710342202,,,,,0.43144810594010685,1553,2047,1,0.95,WHITE,WHITE,True,0,0.0015000005078036338,WHITE,True,CORRECT,0.32633050000004005,326.33050000004005
7,20260325_141148,J,D,True,AUTOMATION1,3,260,1060,fixed_delta,0.033374705876577364,0.013109562710342202,,,,,0.5456315356140237,1964,1636,1,0.95,BLACK,BLACK,True,0,0.0015000005078036338,BLACK,True,CORRECT,0.36420689999795286,364.20689999795286
7,20260325_141148,J,D,True,AUTOMATION1,3,261,1061,fixed_delta,0.033374705876577364,0.013109562710342202,,,,,0.46032537942974533,1657,1943,1,0.95,WHITE,WHITE,True,0,0.0011999982234556228,WHITE,True,CORRECT,0.31772409999757656,317.72409999757656
7,20260325_141148,J,D,True,AUTOMATION1,3,262,1062,fixed_delta,0.033374705876577364,0.013109562710342202,,,,,0.4502859347202941,1621,1979,1,0.95,WHITE,WHITE,True,0,0.0012999989849049598,WHITE,True,CORRECT,0.4161822000023676,416.1822000023676
7,20260325_141148,J,D,True,AUTOMATION1,3,263,1063,fixed_delta,0.033374705876577364,0.013109562710342202,,,,,0.552495688454344,1989,1611,1,0.95,BLACK,BLACK,True,0,0.0011000010999850929,BLACK,True,CORRECT,0.3426858999991964,342.6858999991964
7,20260325_141148,J,D,True,AUTOMATION1,3,264,1064,fixed_delta,0.033374705876577364,0.013109562710342202,,,,,0.4443930716551772,1600,2000,1,0.95,WHITE,WHITE,True,0,0.0011000010999850929,WHITE,True,CORRECT,0.36814919999960694,368.14919999960694
7,20260325_141148,J,D,True,AUTOMATION1,3,265,1065,fixed_delta,0.033374705876577364,0.013109562710342202,,,,,0.46759219325368734,1683,1917,1,0.95,WHITE,WHITE,True,0,0.0011000010999850929,WHITE,True,CORRECT,0.3913926999994146,391.3926999994146
7,20260325_141148,J,D,True,AUTOMATION1,3,266,1066,fixed_delta,0.033374705876577364,0.013109562710342202,,,,,0.5234974227184469,1885,1715,1,0.95,BLACK,BLACK,True,0,0.0013000026228837669,BLACK,True,CORRECT,0.4942691000032937,494.2691000032937
7,20260325_141148,J,D,True,AUTOMATION1,3,267,1067,fixed_delta,0.033374705876577364,0.013109562710342202,,,,,0.5226786270201784,1882,1718,1,0.95,BLACK,BLACK,True,0,0.0014999968698248267,BLACK,True,CORRECT,0.37796979999984615,377.96979999984615
7,20260325_141148,J,D,True,AUTOMATION1,3,268,1068,fixed_delta,0.033374705876577364,0.013109562710342202,,,,,0.4679174234658118,1685,1915,1,0.95,WHITE,WHITE,True,0,0.0014999968698248267,WHITE,True,CORRECT,0.49945309999748133,499.45309999748133
7,20260325_141148,J,D,True,AUTOMATION1,3,269,1069,fixed_delta,0.033374705876577364,0.013109562710342202,,,,,0.47841622418934165,1722,1878,1,0.95,WHITE,WHITE,True,0,0.0010000003385357559,WHITE,True,CORRECT,0.40054460000101244,400.54460000101244
7,20260325_141148,J,D,True,AUTOMATION1,3,270,1070,fixed_delta,0.033374705876577364,0.013109562710342202,,,,,0.5002777777777778,1801,1799,1,0.95,BLACK,BLACK,True,0,0.0013999997463542968,BLACK,True,CORRECT,0.40446890000021085,404.46890000021085
7,20260325_141148,J,D,True,AUTOMATION1,3,271,1071,fixed_delta,0.033374705876577364,0.013109562710342202,,,,,0.4511492220758891,1624,1976,1,0.95,WHITE,WHITE,True,0,0.0012999989849049598,WHITE,True,CORRECT,0.3772564999999304,377.2564999999304
7,20260325_141148,J,D,True,AUTOMATION1,3,272,1072,fixed_delta,0.033374705876577364,0.013109562710342202,,,,,0.47793875969755745,1721,1879,1,0.95,WHITE,WHITE,True,0,0.0016000012692529708,WHITE,True,CORRECT,0.37170939999850816,371.70939999850816
7,20260325_141148,J,D,True,AUTOMATION1,3,273,1073,fixed_delta,0.033374705876577364,0.013109562710342202,,,,,0.4773892257161994,1719,1881,1,0.95,WHITE,WHITE,True,0,0.0013999997463542968,WHITE,True,CORRECT,0.35413029999836,354.13029999836
7,20260325_141148,J,D,True,AUTOMATION1,3,274,1074,fixed_delta,0.033374705876577364,0.013109562710342202,,,,,0.5488263383219212,1976,1624,1,0.95,BLACK,WHITE,False,0,0.0015000005078036338,WHITE,False,INCORRECT,0.42295349999767495,422.95349999767495
7,20260325_141148,J,D,True,AUTOMATION1,3,275,1075,fixed_delta,0.033374705876577364,0.013109562710342202,,,,,0.45580668315283773,1641,1959,1,0.95,WHITE,WHITE,True,0,0.0012999989849049598,WHITE,True,CORRECT,0.40214650000052643,402.14650000052643
7,20260325_141148,J,D,True,AUTOMATION1,3,276,1076,fixed_delta,0.033374705876577364,0.013109562710342202,,,,,0.47599780220196886,1714,1886,1,0.95,WHITE,WHITE,True,0,0.0011000010999850929,WHITE,True,CORRECT,0.37239490000138176,372.39490000138176
7,20260325_141148,J,D,True,AUTOMATION1,3,277,1077,fixed_delta,0.033374705876577364,0.013109562710342202,,,,,0.5245621507496957,1888,1712,1,0.95,BLACK,BLACK,True,0,0.0010000003385357559,BLACK,True,CORRECT,0.4290283000009367,429.0283000009367
7,20260325_141148,J,D,True,AUTOMATION1,3,278,1078,fixed_delta,0.033374705876577364,0.013109562710342202,,,,,0.46884957390619997,1688,1912,1,0.95,WHITE,WHITE,True,0,0.0011999982234556228,WHITE,True,CORRECT,0.5108459000002767,510.84590000027674
7,20260325_141148,J,D,True,AUTOMATION1,3,279,1079,fixed_delta,0.033374705876577364,0.013109562710342202,,,,,0.5366115750124496,1932,1668,1,0.95,BLACK,WHITE,False,0,0.0010000003385357559,WHITE,False,INCORRECT,0.4280819000014162,428.0819000014162
7,20260325_141148,J,D,True,AUTOMATION1,3,280,1080,fixed_delta,0.033374705876577364,0.013109562710342202,,,,,0.5280239056327424,1901,1699,1,0.95,BLACK,BLACK,True,0,0.0012999989849049598,BLACK,True,CORRECT,0.38561230000050273,385.6123000005027
7,20260325_141148,J,D,True,AUTOMATION1,3,281,1081,fixed_delta,0.033374705876577364,0.013109562710342202,,,,,0.4660964800070552,1678,1922,1,0.95,WHITE,WHITE,True,0,0.0010000003385357559,WHITE,True,CORRECT,0.33755269999892334,337.55269999892334
7,20260325_141148,J,D,True,AUTOMATION1,3,282,1082,fixed_delta,0.033374705876577364,0.013109562710342202,,,,,0.4867976627612068,1752,1848,1,0.95,WHITE,WHITE,True,0,0.0013999997463542968,WHITE,True,CORRECT,0.41552519999822835,415.52519999822835
7,20260325_141148,J,D,True,AUTOMATION1,3,283,1083,fixed_delta,0.033374705876577364,0.013109562710342202,,,,,0.5283635847207293,1902,1698,1,0.95,BLACK,BLACK,True,0,0.0015000005078036338,BLACK,True,CORRECT,0.4118696000005002,411.8696000005002
7,20260325_141148,J,D,True,AUTOMATION1,3,284,1084,fixed_delta,0.033374705876577364,0.013109562710342202,,,,,0.4827851930860199,1738,1862,1,0.95,WHITE,BLACK,False,0,0.0010999974620062858,BLACK,False,INCORRECT,0.35201709999819286,352.01709999819286
7,20260325_141148,J,D,True,AUTOMATION1,3,285,1085,fixed_delta,0.033374705876577364,0.013109562710342202,,,,,0.47080255590616055,1695,1905,1,0.95,WHITE,WHITE,True,0,0.0012999989849049598,WHITE,True,CORRECT,0.2855903000017861,285.5903000017861
7,20260325_141148,J,D,True,AUTOMATION1,3,286,1086,fixed_delta,0.033374705876577364,0.013109562710342202,,,,,0.5377593727290875,1936,1664,1,0.95,BLACK,BLACK,True,0,0.0010000003385357559,BLACK,True,CORRECT,0.3613894000009168,361.3894000009168
7,20260325_141148,J,D,True,AUTOMATION1,3,287,1087,fixed_delta,0.033374705876577364,0.013109562710342202,,,,,0.4507418021569445,1623,1977,1,0.95,WHITE,WHITE,True,0,0.0011000010999850929,WHITE,True,CORRECT,0.35017510000034235,350.17510000034235
7,20260325_141148,J,D,True,AUTOMATION1,3,288,1088,fixed_delta,0.033374705876577364,0.013109562710342202,,,,,0.4925712725333129,1773,1827,1,0.95,WHITE,WHITE,True,0,0.0012999989849049598,WHITE,True,CORRECT,0.35144909999871743,351.44909999871743
7,20260325_141148,J,D,True,AUTOMATION1,3,289,1089,fixed_delta,0.033374705876577364,0.013109562710342202,,,,,0.5430760384396109,1955,1645,1,0.95,BLACK,BLACK,True,0,0.0008999995770864189,BLACK,True,CORRECT,0.38395870000022114,383.95870000022114
7,20260325_141148,J,D,True,AUTOMATION1,3,290,1090,fixed_delta,0.033374705876577364,0.013109562710342202,,,,,0.5352569075379768,1927,1673,1,0.95,BLACK,BLACK,True,0,0.0013999997463542968,BLACK,True,CORRECT,0.3808810000009544,380.8810000009544
7,20260325_141148,J,D,True,AUTOMATION1,3,291,1091,fixed_delta,0.033374705876577364,0.013109562710342202,,,,,0.5373533363174786,1934,1666,1,0.95,BLACK,BLACK,True,0,0.0010000003385357559,BLACK,True,CORRECT,0.38627830000041286,386.27830000041286
7,20260325_141148,J,D,True,AUTOMATION1,3,292,1092,fixed_delta,0.033374705876577364,0.013109562710342202,,,,,0.4736419702467828,1705,1895,1,0.95,WHITE,WHITE,True,0,0.0010999974620062858,WHITE,True,CORRECT,0.37490559999787365,374.90559999787365
7,20260325_141148,J,D,True,AUTOMATION1,3,293,1093,fixed_delta,0.033374705876577364,0.013109562710342202,,,,,0.5347933059739514,1925,1675,1,0.95,BLACK,BLACK,True,0,0.0010000003385357559,BLACK,True,CORRECT,0.32213189999674796,322.13189999674796
7,20260325_141148,J,D,True,AUTOMATION1,3,294,1094,fixed_delta,0.033374705876577364,0.013109562710342202,,,,,0.5553622980587102,1999,1601,1,0.95,BLACK,BLACK,True,0,0.0017000020307023078,BLACK,True,CORRECT,0.3822614999990037,382.2614999990037
7,20260325_141148,J,D,True,AUTOMATION1,3,295,1095,fixed_delta,0.033374705876577364,0.013109562710342202,,,,,0.4727605854442448,1702,1898,1,0.95,WHITE,BLACK,False,0,0.0011000010999850929,BLACK,False,INCORRECT,0.4068552999997337,406.8552999997337
7,20260325_141148,J,D,True,AUTOMATION1,3,296,1096,fixed_delta,0.033374705876577364,0.013109562710342202,,,,,0.4702096570609185,1693,1907,1,0.95,WHITE,WHITE,True,0,0.0010000003385357559,WHITE,True,CORRECT,0.29181030000108876,291.81030000108876
7,20260325_141148,J,D,True,AUTOMATION1,3,297,1097,fixed_delta,0.033374705876577364,0.013109562710342202,,,,,0.4873767374421528,1755,1845,1,0.95,WHITE,WHITE,True,0,0.0009999967005569488,WHITE,True,CORRECT,0.38341919999948004,383.41919999948004
7,20260325_141148,J,D,True,AUTOMATION1,3,298,1098,fixed_delta,0.033374705876577364,0.013109562710342202,,,,,0.47346942680088533,1704,1896,1,0.95,WHITE,WHITE,True,0,0.0012000018614344299,WHITE,True,CORRECT,0.32552600000053644,325.52600000053644
7,20260325_141148,J,D,True,AUTOMATION1,3,299,1099,fixed_delta,0.033374705876577364,0.013109562710342202,,,,,0.4547286069962292,1637,1963,1,0.95,WHITE,WHITE,True,0,0.0013000026228837669,WHITE,True,CORRECT,0.3075769000024593,307.5769000024593
7,20260325_141148,J,D,True,AUTOMATION1,3,300,1100,fixed_delta,0.033374705876577364,0.013109562710342202,,,,,0.48989911184083235,1764,1836,1,0.95,WHITE,WHITE,True,0,0.0012999989849049598,WHITE,True,CORRECT,0.28337009999813745,283.37009999813745
7,20260325_141148,J,D,True,AUTOMATION1,3,301,1101,fixed_delta,0.033374705876577364,0.013109562710342202,,,,,0.5002777777777778,1801,1799,1,0.95,BLACK,WHITE,False,0,0.0012999989849049598,WHITE,False,INCORRECT,0.2939068000014231,293.9068000014231
7,20260325_141148,J,D,True,AUTOMATION1,3,302,1102,fixed_delta,0.033374705876577364,0.013109562710342202,,,,,0.531184420565902,1912,1688,1,0.95,BLACK,BLACK,True,0,0.0011000010999850929,BLACK,True,CORRECT,0.3488379000009445,348.8379000009445
7,20260325_141148,J,D,True,AUTOMATION1,3,303,1103,fixed_delta,0.033374705876577364,0.013109562710342202,,,,,0.46279872139118156,1666,1934,1,0.95,WHITE,BLACK,False,0,0.0010000003385357559,WHITE,True,CORRECT,0.33280870000089635,332.80870000089635
7,20260325_141148,J,D,True,AUTOMATION1,3,304,1104,fixed_delta,0.033374705876577364,0.013109562710342202,,,,,0.5249377938621765,1890,1710,1,0.95,BLACK,BLACK,True,0,0.0011999982234556228,BLACK,True,CORRECT,1.2644651999980852,1264.4651999980852
7,20260325_141148,J,D,True,AUTOMATION1,3,305,1105,fixed_delta,0.033374705876577364,0.013109562710342202,,,,,0.5327243259023707,1918,1682,1,0.95,BLACK,BLACK,True,0,0.0010000003385357559,BLACK,True,CORRECT,0.40753590000167605,407.53590000167605
7,20260325_141148,J,D,True,AUTOMATION1,3,306,1106,fixed_delta,0.033374705876577364,0.013109562710342202,,,,,0.5140126552527418,1850,1750,1,0.95,BLACK,BLACK,True,0,0.0007999988156370819,BLACK,True,CORRECT,0.38623480000023847,386.23480000023847
7,20260325_141148,J,D,True,AUTOMATION1,3,307,1107,fixed_delta,0.033374705876577364,0.013109562710342202,,,,,0.4713202655049909,1697,1903,1,0.95,WHITE,WHITE,True,0,0.0013999997463542968,WHITE,True,CORRECT,0.4465572000008251,446.5572000008251
7,20260325_141148,J,D,True,AUTOMATION1,3,308,1108,fixed_delta,0.033374705876577364,0.013109562710342202,,,,,0.452605892042117,1629,1971,1,0.95,WHITE,WHITE,True,0,0.0014999968698248267,WHITE,True,CORRECT,0.37569079999957466,375.69079999957466
7,20260325_141148,J,D,True,AUTOMATION1,3,309,1109,fixed_delta,0.033374705876577364,0.013109562710342202,,,,,0.5450457051735199,1962,1638,1,0.95,BLACK,BLACK,True,0,0.0011000010999850929,BLACK,True,CORRECT,0.3833778000007442,383.3778000007442
7,20260325_141148,J,D,True,AUTOMATION1,3,310,1110,fixed_delta,0.033374705876577364,0.013109562710342202,,,,,0.5307505107346129,1911,1689,1,0.95,BLACK,WHITE,False,0,0.0011000010999850929,WHITE,False,INCORRECT,0.46654059999855235,466.54059999855235
7,20260325_141148,J,D,True,AUTOMATION1,3,311,1111,fixed_delta,0.033374705876577364,0.013109562710342202,,,,,0.4776039106297189,1719,1881,1,0.95,WHITE,WHITE,True,0,0.0010999974620062858,BLACK,False,INCORRECT,0.41196489999856567,411.96489999856567
7,20260325_141148,J,D,True,AUTOMATION1,3,312,1112,fixed_delta,0.033374705876577364,0.013109562710342202,,,,,0.5151307426754064,1854,1746,1,0.95,BLACK,WHITE,False,0,0.0013999997463542968,WHITE,False,INCORRECT,0.475000700000237,475.000700000237
7,20260325_141148,J,D,True,AUTOMATION1,3,313,1113,fixed_delta,0.033374705876577364,0.013109562710342202,,,,,0.4676014920570654,1683,1917,1,0.95,WHITE,WHITE,True,0,0.0013999997463542968,WHITE,True,CORRECT,1.2829516000019794,1282.9516000019794
7,20260325_141148,J,D,True,AUTOMATION1,3,314,1114,fixed_delta,0.033374705876577364,0.013109562710342202,,,,,0.46353563182324026,1669,1931,1,0.95,WHITE,WHITE,True,0,0.0025000008463393897,WHITE,True,CORRECT,0.7845102999999654,784.5102999999654
7,20260325_141148,J,D,True,AUTOMATION1,3,315,1115,fixed_delta,0.033374705876577364,0.013109562710342202,,,,,0.472918494064875,1703,1897,1,0.95,WHITE,WHITE,True,0,0.0013999997463542968,WHITE,True,CORRECT,0.4654904999988503,465.4904999988503
7,20260325_141148,J,D,True,AUTOMATION1,3,316,1116,fixed_delta,0.033374705876577364,0.013109562710342202,,,,,0.5503218496918416,1981,1619,1,0.95,BLACK,BLACK,True,0,0.0012999989849049598,BLACK,True,CORRECT,0.4781842000011238,478.1842000011238
7,20260325_141148,J,D,True,AUTOMATION1,3,317,1117,fixed_delta,0.033374705876577364,0.013109562710342202,,,,,0.4596472725004985,1655,1945,1,0.95,WHITE,WHITE,True,0,0.0010000003385357559,WHITE,True,CORRECT,0.5783386999974027,578.3386999974027
7,20260325_141148,J,D,True,AUTOMATION1,3,318,1118,fixed_delta,0.033374705876577364,0.013109562710342202,,,,,0.540481156626789,1946,1654,1,0.95,BLACK,BLACK,True,0,0.0008999995770864189,BLACK,True,CORRECT,0.3987018000007083,398.7018000007083
7,20260325_141148,J,D,True,AUTOMATION1,3,319,1119,fixed_delta,0.033374705876577364,0.013109562710342202,,,,,0.4563767602305956,1643,1957,1,0.95,WHITE,WHITE,True,0,0.000900003215065226,WHITE,True,CORRECT,0.4633575000007113,463.3575000007113
7,20260325_141148,J,D,True,AUTOMATION1,3,320,1120,fixed_delta,0.033374705876577364,0.013109562710342202,,,,,0.5478908073223087,1972,1628,1,0.95,BLACK,BLACK,True,0,0.0012000018614344299,BLACK,True,CORRECT,0.31628659999842057,316.28659999842057
7,20260325_141148,J,D,True,AUTOMATION1,3,321,1121,fixed_delta,0.033374705876577364,0.013109562710342202,,,,,0.4891522346114509,1761,1839,1,0.95,WHITE,WHITE,True,0,0.0010999974620062858,WHITE,True,CORRECT,0.39850639999713167,398.50639999713167
7,20260325_141148,J,D,True,AUTOMATION1,3,322,1122,fixed_delta,0.033374705876577364,0.013109562710342202,,,,,0.44690267850129545,1609,1991,1,0.95,WHITE,WHITE,True,0,0.0011999982234556228,WHITE,True,CORRECT,0.31251759999940987,312.51759999940987
7,20260325_141148,J,D,True,AUTOMATION1,3,323,1123,fixed_delta,0.033374705876577364,0.013109562710342202,,,,,0.47770163465243315,1720,1880,1,0.95,WHITE,WHITE,True,0,0.0010999974620062858,WHITE,True,CORRECT,0.30979589999697055,309.79589999697055
7,20260325_141148,J,D,True,AUTOMATION1,3,324,1124,fixed_delta,0.033374705876577364,0.013109562710342202,,,,,0.5361155054882867,1930,1670,1,0.95,BLACK,BLACK,True,0,0.0012999989849049598,BLACK,True,CORRECT,0.25535600000148406,255.35600000148406
7,20260325_141148,J,D,True,AUTOMATION1,3,325,1125,fixed_delta,0.033374705876577364,0.013109562710342202,,,,,0.5423215761771524,1952,1648,1,0.95,BLACK,BLACK,True,0,0.0020000006770715117,BLACK,True,CORRECT,0.22324139999909676,223.24139999909676
7,20260325_141148,J,D,True,AUTOMATION1,3,326,1126,fixed_delta,0.033374705876577364,0.013109562710342202,,,,,0.5079377204602343,1829,1771,1,0.95,BLACK,BLACK,True,0,0.0010000003385357559,WHITE,False,INCORRECT,0.23604560000239871,236.04560000239871
7,20260325_141148,J,D,True,AUTOMATION1,3,327,1127,fixed_delta,0.033374705876577364,0.013109562710342202,,,,,0.48828995648265777,1758,1842,1,0.95,WHITE,WHITE,True,0,0.0012000018614344299,WHITE,True,CORRECT,0.31523290000041015,315.23290000041015
7,20260325_141148,J,D,True,AUTOMATION1,3,328,1128,fixed_delta,0.033374705876577364,0.013109562710342202,,,,,0.47938187031686824,1726,1874,1,0.95,WHITE,WHITE,True,0,0.0010000003385357559,WHITE,True,CORRECT,0.4995134999990114,499.5134999990114
7,20260325_141148,J,D,True,AUTOMATION1,3,329,1129,fixed_delta,0.033374705876577364,0.013109562710342202,,,,,0.4587840770314086,1652,1948,1,0.95,WHITE,WHITE,True,0,0.0010000003385357559,WHITE,True,CORRECT,0.34539310000036494,345.39310000036494
7,20260325_141148,J,D,True,AUTOMATION1,3,330,1130,fixed_delta,0.033374705876577364,0.013109562710342202,,,,,0.45989896146659665,1656,1944,1,0.95,WHITE,WHITE,True,0,0.0010000003385357559,WHITE,True,CORRECT,0.29767809999975725,297.67809999975725
7,20260325_141148,J,D,True,AUTOMATION1,3,331,1131,fixed_delta,0.033374705876577364,0.013109562710342202,,,,,0.4826476872808077,1738,1862,1,0.95,WHITE,WHITE,True,0,0.0008999995770864189,WHITE,True,CORRECT,0.3664267000021937,366.4267000021937
7,20260325_141148,J,D,True,AUTOMATION1,3,332,1132,fixed_delta,0.033374705876577364,0.013109562710342202,,,,,0.47060980863856394,1694,1906,1,0.95,WHITE,WHITE,True,0,0.000900003215065226,WHITE,True,CORRECT,0.517580600000656,517.580600000656
7,20260325_141148,J,D,True,AUTOMATION1,3,333,1133,fixed_delta,0.033374705876577364,0.013109562710342202,,,,,0.48312003724617786,1739,1861,1,0.95,WHITE,WHITE,True,0,0.0008999995770864189,WHITE,True,CORRECT,0.5795462999994925,579.5462999994925
7,20260325_141148,J,D,True,AUTOMATION1,3,334,1134,fixed_delta,0.033374705876577364,0.013109562710342202,,,,,0.4786172411788719,1723,1877,1,0.95,WHITE,WHITE,True,0,0.0011000010999850929,WHITE,True,CORRECT,0.522836100000859,522.836100000859
7,20260325_141148,J,D,True,AUTOMATION1,3,335,1135,fixed_delta,0.033374705876577364,0.013109562710342202,,,,,0.46370362435392337,1669,1931,1,0.95,WHITE,WHITE,True,0,0.0012000018614344299,WHITE,True,CORRECT,0.6698929000012868,669.8929000012868
7,20260325_141148,J,D,True,AUTOMATION1,3,336,1136,fixed_delta,0.033374705876577364,0.013109562710342202,,,,,0.5432317864752876,1956,1644,1,0.95,BLACK,BLACK,True,0,0.0011999982234556228,BLACK,True,CORRECT,0.580766200000653,580.766200000653
7,20260325_141148,J,D,True,AUTOMATION1,3,337,1137,fixed_delta,0.033374705876577364,0.013109562710342202,,,,,0.5401197358883308,1944,1656,1,0.95,BLACK,BLACK,True,0,0.0008999995770864189,BLACK,True,CORRECT,0.5923234000001685,592.3234000001685
7,20260325_141148,J,D,True,AUTOMATION1,3,338,1138,fixed_delta,0.033374705876577364,0.013109562710342202,,,,,0.5239193034002946,1886,1714,1,0.95,BLACK,BLACK,True,0,0.0010000003385357559,BLACK,True,CORRECT,0.5983842999994522,598.3842999994522
7,20260325_141148,J,D,True,AUTOMATION1,3,339,1139,fixed_delta,0.033374705876577364,0.013109562710342202,,,,,0.4641405350114472,1671,1929,1,0.95,WHITE,WHITE,True,0,0.0008999995770864189,WHITE,True,CORRECT,0.6097898000007262,609.7898000007262
7,20260325_141148,J,D,True,AUTOMATION1,3,340,1140,fixed_delta,0.033374705876577364,0.013109562710342202,,,,,0.523317669645057,1884,1716,1,0.95,BLACK,BLACK,True,0,0.0008999995770864189,BLACK,True,CORRECT,0.46566079999684007,465.66079999684007
7,20260325_141148,J,D,True,AUTOMATION1,3,341,1141,fixed_delta,0.033374705876577364,0.013109562710342202,,,,,0.4690506450217472,1689,1911,1,0.95,WHITE,WHITE,True,0,0.0012000018614344299,WHITE,True,CORRECT,0.4646018000021286,464.6018000021286
7,20260325_141148,J,D,True,AUTOMATION1,3,342,1142,fixed_delta,0.033374705876577364,0.013109562710342202,,,,,0.4667460902491022,1680,1920,1,0.95,WHITE,WHITE,True,0,0.0011000010999850929,WHITE,True,CORRECT,0.41515660000004573,415.1566000000457
7,20260325_141148,J,D,True,AUTOMATION1,3,343,1143,fixed_delta,0.033374705876577364,0.013109562710342202,,,,,0.545108542049032,1962,1638,1,0.95,BLACK,BLACK,True,0,0.0013000026228837669,BLACK,True,CORRECT,0.5066624000028241,506.66240000282414
7,20260325_141148,J,D,True,AUTOMATION1,3,344,1144,fixed_delta,0.033374705876577364,0.013109562710342202,,,,,0.4482109972521772,1614,1986,1,0.95,WHITE,WHITE,True,0,0.0016000012692529708,WHITE,True,CORRECT,0.5396781999988889,539.6781999988889
7,20260325_141148,J,D,True,AUTOMATION1,3,345,1145,fixed_delta,0.033374705876577364,0.013109562710342202,,,,,0.4706749096031306,1694,1906,1,0.95,WHITE,BLACK,False,0,0.0010000003385357559,BLACK,False,INCORRECT,0.39697399999931804,396.97399999931804
7,20260325_141148,J,D,True,AUTOMATION1,3,346,1146,fixed_delta,0.033374705876577364,0.013109562710342202,,,,,0.5368327332868508,1933,1667,1,0.95,BLACK,BLACK,True,0,0.0011000010999850929,BLACK,True,CORRECT,0.38222400000086054,382.22400000086054
7,20260325_141148,J,D,True,AUTOMATION1,3,347,1147,fixed_delta,0.033374705876577364,0.013109562710342202,,,,,0.4646965461340167,1673,1927,1,0.95,WHITE,WHITE,True,0,0.0011000010999850929,WHITE,True,CORRECT,0.2672305000014603,267.2305000014603
7,20260325_141148,J,D,True,AUTOMATION1,3,348,1148,fixed_delta,0.033374705876577364,0.013109562710342202,,,,,0.539045233731537,1941,1659,1,0.95,BLACK,BLACK,True,0,0.0010000003385357559,BLACK,True,CORRECT,0.3381621000007726,338.1621000007726
7,20260325_141148,J,D,True,AUTOMATION1,3,349,1149,fixed_delta,0.033374705876577364,0.013109562710342202,,,,,0.5300812804327782,1908,1692,1,0.95,BLACK,BLACK,True,0,0.0007999988156370819,BLACK,True,CORRECT,0.4224556000008306,422.4556000008306
7,20260325_141148,J,D,True,AUTOMATION1,3,350,1150,fixed_delta,0.033374705876577364,0.013109562710342202,,,,,0.5277271760719476,1900,1700,1,0.95,BLACK,BLACK,True,0,0.0010000003385357559,BLACK,True,CORRECT,0.38294260000111535,382.94260000111535
7,20260325_141148,J,D,True,AUTOMATION1,3,351,1151,fixed_delta,0.033374705876577364,0.013109562710342202,,,,,0.48040134177528915,1729,1871,1,0.95,WHITE,WHITE,True,0,0.0013999997463542968,WHITE,True,CORRECT,0.37535059999936493,375.35059999936493
7,20260325_141148,J,D,True,AUTOMATION1,3,352,1152,fixed_delta,0.033374705876577364,0.013109562710342202,,,,,0.4573519203701722,1646,1954,1,0.95,WHITE,WHITE,True,0,0.0016999983927235007,WHITE,True,CORRECT,0.4049913999988348,404.9913999988348
7,20260325_141148,J,D,True,AUTOMATION1,3,353,1153,fixed_delta,0.033374705876577364,0.013109562710342202,,,,,0.5434063115210016,1956,1644,1,0.95,BLACK,BLACK,True,0,0.0011000010999850929,BLACK,True,CORRECT,0.3958275000004505,395.8275000004505
7,20260325_141148,J,D,True,AUTOMATION1,3,354,1154,fixed_delta,0.033374705876577364,0.013109562710342202,,,,,0.5186032020095354,1867,1733,1,0.95,BLACK,BLACK,True,0,0.0008999995770864189,BLACK,True,CORRECT,0.461208999997325,461.208999997325
7,20260325_141148,J,D,True,AUTOMATION1,3,355,1155,fixed_delta,0.033374705876577364,0.013109562710342202,,,,,0.5288794575356585,1904,1696,1,0.95,BLACK,BLACK,True,0,0.0015000005078036338,BLACK,True,CORRECT,0.43344449999858625,433.44449999858625
7,20260325_141148,J,D,True,AUTOMATION1,3,356,1156,fixed_delta,0.033374705876577364,0.013109562710342202,,,,,0.5509146033579435,1983,1617,1,0.95,BLACK,BLACK,True,0,0.0012000018614344299,BLACK,True,CORRECT,0.4599019000015687,459.9019000015687
7,20260325_141148,J,D,True,AUTOMATION1,3,357,1157,fixed_delta,0.033374705876577364,0.013109562710342202,,,,,0.46117260540969474,1660,1940,1,0.95,WHITE,BLACK,False,0,0.0014999968698248267,WHITE,True,CORRECT,0.7870227999992494,787.0227999992494
7,20260325_141148,J,D,True,AUTOMATION1,3,358,1158,fixed_delta,0.033374705876577364,0.013109562710342202,,,,,0.5583429183570998,2010,1590,1,0.95,BLACK,BLACK,True,0,0.0012999989849049598,BLACK,True,CORRECT,0.42812249999769847,428.12249999769847
7,20260325_141148,J,D,True,AUTOMATION1,3,359,1159,fixed_delta,0.033374705876577364,0.013109562710342202,,,,,0.4568835160387788,1645,1955,1,0.95,WHITE,WHITE,True,0,0.0013000026228837669,WHITE,True,CORRECT,0.5895984000017052,589.5984000017052
7,20260325_141148,J,D,True,AUTOMATION1,3,360,1160,fixed_delta,0.033374705876577364,0.013109562710342202,,,,,0.4837188558105356,1741,1859,1,0.95,WHITE,WHITE,True,0,0.0010000003385357559,WHITE,True,CORRECT,1.1503381999973499,1150.3381999973499
7,20260325_141148,J,D,True,AUTOMATION1,3,361,1161,fixed_delta,0.033374705876577364,0.013109562710342202,,,,,0.47299589619421883,1703,1897,1,0.95,WHITE,WHITE,True,0,0.0010000003385357559,WHITE,True,CORRECT,0.5217768000002252,521.7768000002252
7,20260325_141148,J,D,True,AUTOMATION1,3,362,1162,fixed_delta,0.033374705876577364,0.013109562710342202,,,,,0.5485665087199313,1975,1625,1,0.95,BLACK,BLACK,True,0,0.0011000010999850929,BLACK,True,CORRECT,0.46289600000091013,462.89600000091013
7,20260325_141148,J,D,True,AUTOMATION1,3,363,1163,fixed_delta,0.033374705876577364,0.013109562710342202,,,,,0.470980339775717,1696,1904,1,0.95,WHITE,WHITE,True,0,0.0011999982234556228,WHITE,True,CORRECT,0.6208253999975568,620.8253999975568
7,20260325_141148,J,D,True,AUTOMATION1,3,364,1164,fixed_delta,0.033374705876577364,0.013109562710342202,,,,,0.4719241283413035,1699,1901,1,0.95,WHITE,WHITE,True,0,0.0012999989849049598,WHITE,True,CORRECT,0.7420887000007497,742.0887000007497
7,20260325_141148,J,D,True,AUTOMATION1,3,365,1165,fixed_delta,0.033374705876577364,0.013109562710342202,,,,,0.5198697228436798,1872,1728,1,0.95,BLACK,BLACK,True,0,0.0010000003385357559,BLACK,True,CORRECT,0.4024103000010655,402.4103000010655
7,20260325_141148,J,D,True,AUTOMATION1,3,366,1166,fixed_delta,0.033374705876577364,0.013109562710342202,,,,,0.4670092393155917,1681,1919,1,0.95,WHITE,WHITE,True,0,0.0015999976312741637,WHITE,True,CORRECT,0.6677472999981546,667.7472999981546
7,20260325_141148,J,D,True,AUTOMATION1,3,367,1167,fixed_delta,0.033374705876577364,0.013109562710342202,,,,,0.45007742584751986,1620,1980,1,0.95,WHITE,WHITE,True,0,0.0011000010999850929,WHITE,True,CORRECT,0.5115783000001102,511.5783000001102
7,20260325_141148,J,D,True,AUTOMATION1,3,368,1168,fixed_delta,0.033374705876577364,0.013109562710342202,,,,,0.5503536687401693,1981,1619,1,0.95,BLACK,BLACK,True,0,0.0025999979698099196,BLACK,True,CORRECT,0.40217659999689204,402.17659999689204
7,20260325_141148,J,D,True,AUTOMATION1,3,369,1169,fixed_delta,0.033374705876577364,0.013109562710342202,,,,,0.46444708029289783,1672,1928,1,0.95,WHITE,WHITE,True,0,0.0011000010999850929,WHITE,True,CORRECT,0.47017889999915496,470.17889999915496
7,20260325_141148,J,D,True,AUTOMATION1,3,370,1170,fixed_delta,0.033374705876577364,0.013109562710342202,,,,,0.4804820424083899,1730,1870,1,0.95,WHITE,WHITE,True,0,0.0015000005078036338,WHITE,True,CORRECT,0.7032566000016232,703.2566000016232
7,20260325_141148,J,D,True,AUTOMATION1,3,371,1171,fixed_delta,0.033374705876577364,0.013109562710342202,,,,,0.5304679586212815,1910,1690,1,0.95,BLACK,BLACK,True,0,0.0015000005078036338,BLACK,True,CORRECT,0.5112559000008332,511.2559000008332
7,20260325_141148,J,D,True,AUTOMATION1,3,372,1172,fixed_delta,0.033374705876577364,0.013109562710342202,,,,,0.5349317267916226,1926,1674,1,0.95,BLACK,BLACK,True,0,0.0012000018614344299,BLACK,True,CORRECT,0.42279710000002524,422.79710000002524
7,20260325_141148,J,D,True,AUTOMATION1,3,373,1173,fixed_delta,0.033374705876577364,0.013109562710342202,,,,,0.45593271599805485,1641,1959,1,0.95,WHITE,WHITE,True,0,0.0015000005078036338,WHITE,True,CORRECT,0.5126454000019294,512.6454000019294
7,20260325_141148,J,D,True,AUTOMATION1,3,374,1174,fixed_delta,0.033374705876577364,0.013109562710342202,,,,,0.4578055979067561,1648,1952,1,0.95,WHITE,WHITE,True,0,0.0011000010999850929,WHITE,True,CORRECT,0.6544629999989411,654.4629999989411
7,20260325_141148,J,D,True,AUTOMATION1,3,375,1175,fixed_delta,0.033374705876577364,0.013109562710342202,,,,,0.46845011807796083,1686,1914,1,0.95,WHITE,WHITE,True,0,0.0012000018614344299,BLACK,False,INCORRECT,0.5943900000020221,594.3900000020221
7,20260325_141148,J,D,True,AUTOMATION1,3,376,1176,fixed_delta,0.033374705876577364,0.013109562710342202,,,,,0.48033228883354506,1729,1871,1,0.95,WHITE,WHITE,True,0,0.0011000010999850929,WHITE,True,CORRECT,0.6723382000018319,672.3382000018319
7,20260325_141148,J,D,True,AUTOMATION1,3,377,1177,fixed_delta,0.033374705876577364,0.013109562710342202,,,,,0.45079501816851203,1623,1977,1,0.95,WHITE,WHITE,True,0,0.0008999995770864189,WHITE,True,CORRECT,0.5452958999994735,545.2958999994735
7,20260325_141148,J,D,True,AUTOMATION1,3,378,1178,fixed_delta,0.033374705876577364,0.013109562710342202,,,,,0.4671456775755523,1682,1918,1,0.95,WHITE,WHITE,True,0,0.0008999995770864189,WHITE,True,CORRECT,0.6604904999985592,660.4904999985592
7,20260325_141148,J,D,True,AUTOMATION1,3,379,1179,fixed_delta,0.033374705876577364,0.013109562710342202,,,,,0.45691032082987454,1645,1955,1,0.95,WHITE,WHITE,True,0,0.0013000026228837669,WHITE,True,CORRECT,0.463394900001731,463.394900001731
7,20260325_141148,J,D,True,AUTOMATION1,3,380,1180,fixed_delta,0.033374705876577364,0.013109562710342202,,,,,0.4616524977442157,1662,1938,1,0.95,WHITE,WHITE,True,0,0.0015000005078036338,WHITE,True,CORRECT,0.596439900000405,596.439900000405
7,20260325_141148,J,D,True,AUTOMATION1,3,381,1181,fixed_delta,0.033374705876577364,0.013109562710342202,,,,,0.5420109872583835,1951,1649,1,0.95,BLACK,BLACK,True,0,0.0013000026228837669,BLACK,True,CORRECT,0.5477663000019675,547.7663000019675
7,20260325_141148,J,D,True,AUTOMATION1,3,382,1182,fixed_delta,0.033374705876577364,0.013109562710342202,,,,,0.542970731767884,1955,1645,1,0.95,BLACK,BLACK,True,0,0.0017000020307023078,BLACK,True,CORRECT,0.5716615000019374,571.6615000019374
7,20260325_141148,J,D,True,AUTOMATION1,3,383,1183,fixed_delta,0.033374705876577364,0.013109562710342202,,,,,0.5320776424070733,1915,1685,1,0.95,BLACK,BLACK,True,0,0.0013999997463542968,BLACK,True,CORRECT,0.510418199999549,510.41819999954896
7,20260325_141148,J,D,True,AUTOMATION1,3,384,1184,fixed_delta,0.033374705876577364,0.013109562710342202,,,,,0.4637146171087748,1669,1931,1,0.95,WHITE,WHITE,True,0,0.0011999982234556228,WHITE,True,CORRECT,0.5679062999988673,567.9062999988673
7,20260325_141148,J,D,True,AUTOMATION1,3,385,1185,fixed_delta,0.033374705876577364,0.013109562710342202,,,,,0.44517262172574307,1603,1997,1,0.95,WHITE,WHITE,True,0,0.0015000005078036338,WHITE,True,CORRECT,0.5042552999984764,504.2552999984764
7,20260325_141148,J,D,True,AUTOMATION1,3,386,1186,fixed_delta,0.033374705876577364,0.013109562710342202,,,,,0.46164992787116216,1662,1938,1,0.95,WHITE,WHITE,True,0,0.0012999989849049598,WHITE,True,CORRECT,0.5269417999988946,526.9417999988946
7,20260325_141148,J,D,True,AUTOMATION1,3,387,1187,fixed_delta,0.033374705876577364,0.013109562710342202,,,,,0.45943820261301893,1654,1946,1,0.95,WHITE,WHITE,True,0,0.0012999989849049598,WHITE,True,CORRECT,0.452453300000343,452.453300000343
7,20260325_141148,J,D,True,AUTOMATION1,3,388,1188,fixed_delta,0.033374705876577364,0.013109562710342202,,,,,0.4589447406222956,1652,1948,1,0.95,WHITE,WHITE,True,0,0.0012000018614344299,WHITE,True,CORRECT,0.447241000001668,447.241000001668
7,20260325_141148,J,D,True,AUTOMATION1,3,389,1189,fixed_delta,0.033374705876577364,0.013109562710342202,,,,,0.526773337149566,1896,1704,1,0.95,BLACK,BLACK,True,0,0.0010999974620062858,BLACK,True,CORRECT,0.48228239999662037,482.28239999662037
7,20260325_141148,J,D,True,AUTOMATION1,3,390,1190,fixed_delta,0.033374705876577364,0.013109562710342202,,,,,0.46895681997294153,1688,1912,1,0.95,WHITE,WHITE,True,0,0.0007999988156370819,WHITE,True,CORRECT,0.6777182000005268,677.7182000005268
7,20260325_141148,J,D,True,AUTOMATION1,3,391,1191,fixed_delta,0.033374705876577364,0.013109562710342202,,,,,0.5221498922098055,1880,1720,1,0.95,BLACK,BLACK,True,0,0.0011000010999850929,BLACK,True,CORRECT,0.4107545000006212,410.7545000006212
7,20260325_141148,J,D,True,AUTOMATION1,3,392,1192,fixed_delta,0.033374705876577364,0.013109562710342202,,,,,0.467733941584349,1684,1916,1,0.95,WHITE,WHITE,True,0,0.0010000003385357559,WHITE,True,CORRECT,0.6758246999997937,675.8246999997937
7,20260325_141148,J,D,True,AUTOMATION1,3,393,1193,fixed_delta,0.033374705876577364,0.013109562710342202,,,,,0.52013038716989,1872,1728,1,0.95,BLACK,BLACK,True,0,0.0010000003385357559,BLACK,True,CORRECT,0.5285385000024689,528.5385000024689
7,20260325_141148,J,D,True,AUTOMATION1,3,394,1194,fixed_delta,0.033374705876577364,0.013109562710342202,,,,,0.5303575592272436,1909,1691,1,0.95,BLACK,BLACK,True,0,0.0010999974620062858,BLACK,True,CORRECT,0.6759766999966814,675.9766999966814
7,20260325_141148,J,D,True,AUTOMATION1,3,395,1195,fixed_delta,0.033374705876577364,0.013109562710342202,,,,,0.5124176855356475,1845,1755,1,0.95,BLACK,BLACK,True,0,0.0009999967005569488,WHITE,False,INCORRECT,0.7950664999989385,795.0664999989385
7,20260325_141148,J,D,True,AUTOMATION1,3,396,1196,fixed_delta,0.033374705876577364,0.013109562710342202,,,,,0.5413948041269876,1949,1651,1,0.95,BLACK,BLACK,True,0,0.001400003384333104,BLACK,True,CORRECT,0.7160642000017106,716.0642000017106
7,20260325_141148,J,D,True,AUTOMATION1,3,397,1197,fixed_delta,0.033374705876577364,0.013109562710342202,,,,,0.4710608334207955,1696,1904,1,0.95,WHITE,WHITE,True,0,0.0013000026228837669,WHITE,True,CORRECT,0.7338889000020572,733.8889000020572
7,20260325_141148,J,D,True,AUTOMATION1,3,398,1198,fixed_delta,0.033374705876577364,0.013109562710342202,,,,,0.4779262585883337,1721,1879,1,0.95,WHITE,WHITE,True,0,0.0007999988156370819,WHITE,True,CORRECT,0.5759428999990632,575.9428999990632
7,20260325_141148,J,D,True,AUTOMATION1,3,399,1199,fixed_delta,0.033374705876577364,0.013109562710342202,,,,,0.5529918635480549,1991,1609,1,0.95,BLACK,BLACK,True,0,0.0013000026228837669,BLACK,True,CORRECT,0.5665049000017461,566.5049000017461
7,20260325_141148,J,D,True,AUTOMATION1,3,400,1200,fixed_delta,0.033374705876577364,0.013109562710342202,,,,,0.5418973886795355,1951,1649,1,0.95,BLACK,BLACK,True,0,0.0010000003385357559,BLACK,True,CORRECT,0.5066139999980805,506.61399999808054
7,20260325_141148,J,D,True,AUTOMATION1,3,401,1201,fixed_delta,0.033374705876577364,0.013109562710342202,,,,,0.4624619403164964,1665,1935,1,0.95,WHITE,WHITE,True,0,0.0012000018614344299,WHITE,True,CORRECT,0.4807661000013468,480.7661000013468
7,20260325_141148,J,D,True,AUTOMATION1,3,402,1202,fixed_delta,0.033374705876577364,0.013109562710342202,,,,,0.47713121785081997,1718,1882,1,0.95,WHITE,BLACK,False,0,0.0008999995770864189,WHITE,True,CORRECT,0.5668684000011126,566.8684000011126
7,20260325_141148,J,D,True,AUTOMATION1,3,403,1203,fixed_delta,0.033374705876577364,0.013109562710342202,,,,,0.4803670962115984,1729,1871,1,0.95,WHITE,WHITE,True,0,0.0012999989849049598,WHITE,True,CORRECT,0.7292041000000609,729.2041000000609
7,20260325_141148,J,D,True,AUTOMATION1,3,404,1204,fixed_delta,0.033374705876577364,0.013109562710342202,,,,,0.45111923545452803,1624,1976,1,0.95,WHITE,BLACK,False,0,0.000900003215065226,WHITE,True,CORRECT,0.792132100003073,792.132100003073
7,20260325_141148,J,D,True,AUTOMATION1,3,405,1205,fixed_delta,0.033374705876577364,0.013109562710342202,,,,,0.47067500651788396,1694,1906,1,0.95,WHITE,WHITE,True,0,0.0013999997463542968,WHITE,True,CORRECT,0.5909474000000046,590.9474000000046
7,20260325_141148,J,D,True,AUTOMATION1,3,406,1206,fixed_delta,0.033374705876577364,0.013109562710342202,,,,,0.5271004924134134,1898,1702,1,0.95,BLACK,BLACK,True,0,0.0010000003385357559,BLACK,True,CORRECT,0.6581423999996332,658.1423999996332
7,20260325_141148,J,D,True,AUTOMATION1,3,407,1207,fixed_delta,0.033374705876577364,0.013109562710342202,,,,,0.521095483650348,1876,1724,1,0.95,BLACK,BLACK,True,0,0.0020000006770715117,BLACK,True,CORRECT,0.5683174000005238,568.3174000005238
7,20260325_141148,J,D,True,AUTOMATION1,3,408,1208,fixed_delta,0.033374705876577364,0.013109562710342202,,,,,0.4718924856160475,1699,1901,1,0.95,WHITE,WHITE,True,0,0.0010000003385357559,WHITE,True,CORRECT,0.6768765000015264,676.8765000015264
7,20260325_141148,J,D,True,AUTOMATION1,3,409,1209,fixed_delta,0.033374705876577364,0.013109562710342202,,,,,0.5182923557916711,1866,1734,1,0.95,BLACK,BLACK,True,0,0.0013999997463542968,BLACK,True,CORRECT,0.5882782000007865,588.2782000007865
7,20260325_141148,J,D,True,AUTOMATION1,3,410,1210,fixed_delta,0.033374705876577364,0.013109562710342202,,,,,0.5370031585940755,1933,1667,1,0.95,BLACK,BLACK,True,0,0.0010999974620062858,BLACK,True,CORRECT,0.5430189999970025,543.0189999970025
7,20260325_141148,J,D,True,AUTOMATION1,3,411,1211,fixed_delta,0.033374705876577364,0.013109562710342202,,,,,0.5294074113979322,1906,1694,1,0.95,BLACK,BLACK,True,0,0.0013000026228837669,BLACK,True,CORRECT,0.7341450000021723,734.1450000021723
