participant_id,run_timestamp,key_black,key_white,keymap_flip,block,block_idx,trial,global_trial,difficulty_mode,delta_fixed_mean,delta_fixed_sd,delta_stair_realised,delta_stair_mean,delta_step_down_used,delta_step_up_used,vblack_prop,n_vblack,n_vwhite,auto_on,aid_accuracy_setting,stimulus,aid_label,aid_correct,aid_onset_ms,aid_onset_ms_rel,response,correct,feedback,rt_s,rt_ms
2,20260325_120617,D,J,False,CALIBRATION,1,1,1,staircase,,,0.19638830752557804,0.24000000000000002,0.01,0.04000000000000001,0.696388307525578,2507,1093,0,,BLACK,,,0,,WHITE,False,INCORRECT,4.114989099999548,4114.989099999548
2,20260325_120617,D,J,False,CALIBRATION,1,2,2,staircase,,,0.2495925466510805,0.23018367346938778,0.009816326530612245,0.03926530612244899,0.2504074533489195,901,2699,0,,WHITE,,,0,,WHITE,True,CORRECT,3.0510280000007697,3051.0280000007697
2,20260325_120617,D,J,False,CALIBRATION,1,3,3,staircase,,,0.23577662038070088,0.2205510204081633,0.00963265306122449,0.03853061224489797,0.7357766203807009,2649,951,0,,BLACK,,,0,,BLACK,True,CORRECT,3.739257700000053,3739.257700000053
2,20260325_120617,D,J,False,CALIBRATION,1,4,4,staircase,,,0.2300148377592678,0.21110204081632655,0.009448979591836736,0.03779591836734695,0.2699851622407322,972,2628,0,,WHITE,,,0,,WHITE,True,CORRECT,1.5909707000000708,1590.9707000000708
2,20260325_120617,D,J,False,CALIBRATION,1,5,5,staircase,,,0.20985056564701002,0.20183673469387758,0.009265306122448979,0.03706122448979592,0.70985056564701,2555,1045,0,,BLACK,,,0,,BLACK,True,CORRECT,1.5827713000007861,1582.7713000007861
2,20260325_120617,D,J,False,CALIBRATION,1,6,6,staircase,,,0.1913120674809373,0.19275510204081636,0.009081632653061224,0.0363265306122449,0.3086879325190627,1111,2489,0,,WHITE,,,0,,WHITE,True,CORRECT,0.6500347000001057,650.0347000001057
2,20260325_120617,D,J,False,CALIBRATION,1,7,7,staircase,,,0.1868275123137857,0.18385714285714289,0.00889795918367347,0.035591836734693884,0.6868275123137857,2473,1127,0,,BLACK,,,0,,BLACK,True,CORRECT,0.6431695000001127,643.1695000001127
2,20260325_120617,D,J,False,CALIBRATION,1,8,8,staircase,,,0.17747575881456465,0.17514285714285718,0.008714285714285714,0.034857142857142864,0.3225242411854353,1161,2439,0,,WHITE,,,0,,WHITE,True,CORRECT,2.202057500000592,2202.057500000592
2,20260325_120617,D,J,False,CALIBRATION,1,9,9,staircase,,,0.1722057019276155,0.16661224489795923,0.00853061224489796,0.034122448979591845,0.32779429807238447,1180,2420,0,,WHITE,,,0,,WHITE,True,CORRECT,1.5250202999995963,1525.0202999995963
2,20260325_120617,D,J,False,CALIBRATION,1,10,10,staircase,,,0.18576667124135937,0.15826530612244902,0.008346938775510205,0.033387755102040825,0.31423332875864063,1131,2469,0,,WHITE,,,0,,WHITE,True,CORRECT,0.7773174000003564,777.3174000003564
2,20260325_120617,D,J,False,CALIBRATION,1,11,11,staircase,,,0.1293696074877666,0.19091836734693882,0.00816326530612245,0.032653061224489806,0.3706303925122334,1334,2266,0,,WHITE,,,0,,BLACK,False,INCORRECT,1.319561000000249,1319.561000000249
2,20260325_120617,D,J,False,CALIBRATION,1,12,12,staircase,,,0.18886256918280772,0.18293877551020413,0.007979591836734693,0.03191836734693878,0.31113743081719225,1120,2480,0,,WHITE,,,0,,WHITE,True,CORRECT,0.8729376999999658,872.9376999999658
2,20260325_120617,D,J,False,CALIBRATION,1,13,13,staircase,,,0.1913108657833537,0.17514285714285718,0.007795918367346938,0.03118367346938776,0.3086891342166463,1111,2489,0,,WHITE,,,0,,WHITE,True,CORRECT,0.7001915000000736,700.1915000000736
2,20260325_120617,D,J,False,CALIBRATION,1,14,14,staircase,,,0.17654422108364187,0.16753061224489801,0.007612244897959183,0.03044897959183674,0.6765442210836419,2436,1164,0,,BLACK,,,0,,BLACK,True,CORRECT,0.9995725999997376,999.5725999997376
2,20260325_120617,D,J,False,CALIBRATION,1,15,15,staircase,,,0.18081603458227988,0.1601020408163266,0.0074285714285714285,0.02971428571428572,0.3191839654177201,1149,2451,0,,WHITE,,,0,,WHITE,True,CORRECT,1.6260472000003574,1626.0472000003574
2,20260325_120617,D,J,False,CALIBRATION,1,16,16,staircase,,,0.16445698915906581,0.1528571428571429,0.007244897959183674,0.0289795918367347,0.6644569891590658,2392,1208,0,,BLACK,,,0,,BLACK,True,CORRECT,0.6247153000003891,624.7153000003891
2,20260325_120617,D,J,False,CALIBRATION,1,17,17,staircase,,,0.14087980401668998,0.14579591836734698,0.007061224489795919,0.028244897959183682,0.35912019598331,1293,2307,0,,WHITE,,,0,,WHITE,True,CORRECT,1.6425022000003082,1642.5022000003082
2,20260325_120617,D,J,False,CALIBRATION,1,18,18,staircase,,,0.14942464697997868,0.13891836734693883,0.006877551020408163,0.02751020408163266,0.6494246469799787,2338,1262,0,,BLACK,,,0,,BLACK,True,CORRECT,0.6384613000009267,638.4613000009267
2,20260325_120617,D,J,False,CALIBRATION,1,19,19,staircase,,,0.1496054202076505,0.13222448979591842,0.006693877551020407,0.026775510204081636,0.6496054202076504,2339,1261,0,,BLACK,,,0,,BLACK,True,CORRECT,0.7610014000001684,761.0014000001684
2,20260325_120617,D,J,False,CALIBRATION,1,20,20,staircase,,,0.12376082733773099,0.12571428571428575,0.006510204081632652,0.026040816326530616,0.623760827337731,2246,1354,0,,BLACK,,,0,,BLACK,True,CORRECT,0.7949552000009135,794.9552000009135
2,20260325_120617,D,J,False,CALIBRATION,1,21,21,staircase,,,0.12217777215445845,0.11938775510204086,0.0063265306122448975,0.025306122448979597,0.37782222784554154,1360,2240,0,,WHITE,,,0,,WHITE,True,CORRECT,1.7913916999987123,1791.3916999987123
2,20260325_120617,D,J,False,CALIBRATION,1,22,22,staircase,,,0.11840772487599804,0.11324489795918372,0.006142857142857143,0.024571428571428577,0.38159227512400196,1374,2226,0,,WHITE,,,0,,WHITE,True,CORRECT,0.6515884000000369,651.5884000000369
2,20260325_120617,D,J,False,CALIBRATION,1,23,23,staircase,,,0.11268055088630838,0.10728571428571433,0.005959183673469388,0.023836734693877558,0.38731944911369165,1394,2206,0,,WHITE,,,0,,WHITE,True,CORRECT,0.6713753000003635,671.3753000003635
2,20260325_120617,D,J,False,CALIBRATION,1,24,24,staircase,,,0.09552449215017786,0.1015102040816327,0.005775510204081632,0.02310204081632653,0.4044755078498221,1456,2144,0,,WHITE,,,0,,WHITE,True,CORRECT,0.7908131000003777,790.8131000003777
2,20260325_120617,D,J,False,CALIBRATION,1,25,25,staircase,,,0.10958432701327739,0.09591836734693882,0.005591836734693877,0.022367346938775512,0.6095843270132774,2195,1405,0,,BLACK,,,0,,BLACK,True,CORRECT,0.49955860000045504,499.55860000045504
2,20260325_120617,D,J,False,CALIBRATION,1,26,26,staircase,,,0.09653699580379237,0.0905102040816327,0.005408163265306122,0.021632653061224492,0.5965369958037924,2148,1452,0,,BLACK,,,0,,BLACK,True,CORRECT,0.824067899999136,824.067899999136
2,20260325_120617,D,J,False,CALIBRATION,1,27,27,staircase,,,0.07911897702203796,0.11140816326530617,0.0052244897959183665,0.02089795918367347,0.42088102297796204,1515,2085,0,,WHITE,,,0,,BLACK,False,INCORRECT,1.3126106999989133,1312.6106999989133
2,20260325_120617,D,J,False,CALIBRATION,1,28,28,staircase,,,0.09611619080549083,0.10636734693877556,0.0050408163265306125,0.020163265306122453,0.5961161908054908,2146,1454,0,,BLACK,,,0,,BLACK,True,CORRECT,0.9690600000012637,969.0600000012637
2,20260325_120617,D,J,False,CALIBRATION,1,29,29,staircase,,,0.11236024897420499,0.10151020408163271,0.004857142857142857,0.01942857142857143,0.612360248974205,2204,1396,0,,BLACK,,,0,,BLACK,True,CORRECT,0.8700103000010131,870.0103000010131
2,20260325_120617,D,J,False,CALIBRATION,1,30,30,staircase,,,0.08908525630529086,0.0968367346938776,0.004673469387755102,0.01869387755102041,0.41091474369470915,1479,2121,0,,WHITE,,,0,,WHITE,True,CORRECT,1.9918162000012671,1991.8162000012671
2,20260325_120617,D,J,False,CALIBRATION,1,31,31,staircase,,,0.09888223215115302,0.09234693877551026,0.004489795918367346,0.017959183673469388,0.401117767848847,1444,2156,0,,WHITE,,,0,,WHITE,True,CORRECT,1.184733000000051,1184.733000000051
2,20260325_120617,D,J,False,CALIBRATION,1,32,32,staircase,,,0.08372025787005906,0.10957142857142863,0.004306122448979591,0.01722448979591837,0.5837202578700591,2101,1499,0,,BLACK,,,0,,WHITE,False,INCORRECT,0.7560341999997036,756.0341999997036
2,20260325_120617,D,J,False,CALIBRATION,1,33,33,staircase,,,0.12320907678787385,0.10544897959183679,0.004122448979591836,0.01648979591836735,0.6232090767878739,2244,1356,0,,BLACK,,,0,,BLACK,True,CORRECT,0.7812159000004613,781.2159000004613
2,20260325_120617,D,J,False,CALIBRATION,1,34,34,staircase,,,0.11080135333764936,0.10151020408163271,0.0039387755102040815,0.01575510204081633,0.38919864666235066,1401,2199,0,,WHITE,,,0,,WHITE,True,CORRECT,0.7522258000008151,752.2258000008151
2,20260325_120617,D,J,False,CALIBRATION,1,35,35,staircase,,,0.10172297271983438,0.09775510204081639,0.0037551020408163258,0.015020408163265307,0.3982770272801656,1434,2166,0,,WHITE,,,0,,WHITE,True,CORRECT,0.9599275000000489,959.9275000000489
2,20260325_120617,D,J,False,CALIBRATION,1,36,36,staircase,,,0.1015939083442859,0.09418367346938782,0.003571428571428571,0.014285714285714287,0.3984060916557141,1434,2166,0,,WHITE,,,0,,WHITE,True,CORRECT,1.7654101999996783,1765.4101999996783
2,20260325_120617,D,J,False,CALIBRATION,1,37,37,staircase,,,0.0893588232568234,0.090795918367347,0.003387755102040815,0.013551020408163264,0.4106411767431766,1478,2122,0,,WHITE,,,0,,WHITE,True,CORRECT,1.376442999999199,1376.442999999199
2,20260325_120617,D,J,False,CALIBRATION,1,38,38,staircase,,,0.07587699810339855,0.10361224489795925,0.003204081632653061,0.012816326530612248,0.42412300189660146,1527,2073,0,,WHITE,,,0,,BLACK,False,INCORRECT,1.1241479000000254,1124.1479000000254
2,20260325_120617,D,J,False,CALIBRATION,1,39,39,staircase,,,0.0954462041337949,0.10059183673469395,0.0030204081632653054,0.012081632653061225,0.5954462041337949,2144,1456,0,,BLACK,,,0,,BLACK,True,CORRECT,0.744698000000426,744.698000000426
2,20260325_120617,D,J,False,CALIBRATION,1,40,40,staircase,,,0.09274867541899517,0.0977551020408164,0.0028367346938775505,0.011346938775510204,0.5927486754189952,2134,1466,0,,BLACK,,,0,,BLACK,True,CORRECT,1.6602786999992531,1660.2786999992531
2,20260325_120617,D,J,False,CALIBRATION,1,41,41,staircase,,,0.09896258262305187,0.0951020408163266,0.0026530612244897948,0.01061224489795918,0.40103741737694815,1444,2156,0,,WHITE,,,0,,WHITE,True,CORRECT,1.8718855999995867,1871.8855999995867
2,20260325_120617,D,J,False,CALIBRATION,1,42,42,staircase,,,0.1162654511981085,0.09263265306122456,0.00246938775510204,0.009877551020408161,0.6162654511981085,2219,1381,0,,BLACK,,,0,,BLACK,True,CORRECT,1.0717721000000893,1071.7721000000893
2,20260325_120617,D,J,False,CALIBRATION,1,43,43,staircase,,,0.10527999186045514,0.09034693877551028,0.002285714285714285,0.009142857142857142,0.3947200081395449,1421,2179,0,,WHITE,,,0,,WHITE,True,CORRECT,2.087527900001078,2087.527900001078
2,20260325_120617,D,J,False,CALIBRATION,1,44,44,staircase,,,0.10033251874244388,0.08824489795918375,0.00210204081632653,0.008408163265306122,0.39966748125755613,1439,2161,0,,WHITE,,,0,,WHITE,True,CORRECT,1.954108100000667,1954.108100000667
2,20260325_120617,D,J,False,CALIBRATION,1,45,45,staircase,,,0.08911157983029827,0.08632653061224498,0.0019183673469387753,0.007673469387755103,0.41088842016970173,1479,2121,0,,WHITE,,,0,,WHITE,True,CORRECT,1.8910820000000967,1891.0820000000967
2,20260325_120617,D,J,False,CALIBRATION,1,46,46,staircase,,,0.07494975987451641,0.08459183673469396,0.0017346938775510187,0.006938775510204076,0.5749497598745164,2070,1530,0,,BLACK,,,0,,BLACK,True,CORRECT,1.4865853999999672,1486.5853999999672
2,20260325_120617,D,J,False,CALIBRATION,1,47,47,staircase,,,0.08040746163120792,0.0830408163265307,0.0015510204081632638,0.006204081632653057,0.41959253836879207,1511,2089,0,,WHITE,,,0,,WHITE,True,CORRECT,2.0749605000000884,2074.9605000000884
2,20260325_120617,D,J,False,CALIBRATION,1,48,48,staircase,,,0.07663269868816543,0.08167346938775519,0.0013673469387755106,0.005469387755102043,0.4233673013118346,1524,2076,0,,WHITE,,,0,,WHITE,True,CORRECT,2.1500973000001977,2150.0973000001977
2,20260325_120617,D,J,False,CALIBRATION,1,49,49,staircase,,,0.062450614357111564,0.08048979591836744,0.001183673469387754,0.004734693877551017,0.4375493856428884,1575,2025,0,,WHITE,,,0,,WHITE,True,CORRECT,2.037592599999698,2037.592599999698
2,20260325_120617,D,J,False,CALIBRATION,1,50,50,staircase,,,0.06638867541047093,0.07948979591836744,0.001,0.004000000000000001,0.5663886754104709,2039,1561,0,,BLACK,,,0,,BLACK,True,CORRECT,0.90954899999997,909.54899999997
2,20260325_120617,D,J,False,CALIBRATION,1,51,51,staircase,,,0.09026990479432034,0.07848979591836744,0.001,0.004000000000000001,0.40973009520567966,1475,2125,0,,WHITE,,,0,,WHITE,True,CORRECT,1.7026072000007844,1702.6072000007844
2,20260325_120617,D,J,False,CALIBRATION,1,52,52,staircase,,,0.0920235137402525,0.07748979591836744,0.001,0.004000000000000001,0.4079764862597475,1469,2131,0,,WHITE,,,0,,WHITE,True,CORRECT,3.5457077999999456,3545.7077999999456
2,20260325_120617,D,J,False,CALIBRATION,1,53,53,staircase,,,0.083647535302465,0.07648979591836744,0.001,0.004000000000000001,0.583647535302465,2101,1499,0,,BLACK,,,0,,BLACK,True,CORRECT,2.252321899999515,2252.321899999515
2,20260325_120617,D,J,False,CALIBRATION,1,54,54,staircase,,,0.08102370415892754,0.07548979591836744,0.001,0.004000000000000001,0.41897629584107243,1508,2092,0,,WHITE,,,0,,WHITE,True,CORRECT,2.091752700000143,2091.752700000143
2,20260325_120617,D,J,False,CALIBRATION,1,55,55,staircase,,,0.09716213431391449,0.07448979591836744,0.001,0.004000000000000001,0.4028378656860855,1450,2150,0,,WHITE,,,0,,WHITE,True,CORRECT,1.5334789999997156,1533.4789999997156
2,20260325_120617,D,J,False,CALIBRATION,1,56,56,staircase,,,0.0725803872706226,0.07348979591836743,0.001,0.004000000000000001,0.5725803872706225,2061,1539,0,,BLACK,,,0,,BLACK,True,CORRECT,0.7413374000007025,741.3374000007025
2,20260325_120617,D,J,False,CALIBRATION,1,57,57,staircase,,,0.064994670164017,0.07248979591836743,0.001,0.004000000000000001,0.435005329835983,1566,2034,0,,WHITE,,,0,,WHITE,True,CORRECT,3.4654802000004565,3465.4802000004565
2,20260325_120617,D,J,False,CALIBRATION,1,58,58,staircase,,,0.07652861493658843,0.07148979591836743,0.001,0.004000000000000001,0.5765286149365885,2076,1524,0,,BLACK,,,0,,BLACK,True,CORRECT,1.3314568999994663,1331.4568999994663
2,20260325_120617,D,J,False,CALIBRATION,1,59,59,staircase,,,0.08360554103879006,0.07048979591836743,0.001,0.004000000000000001,0.58360554103879,2101,1499,0,,BLACK,,,0,,BLACK,True,CORRECT,1.189114900000277,1189.114900000277
2,20260325_120617,D,J,False,CALIBRATION,1,60,60,staircase,,,0.07555999068868718,0.06948979591836743,0.001,0.004000000000000001,0.5755599906886872,2072,1528,0,,BLACK,,,0,,BLACK,True,CORRECT,1.5528599999997823,1552.8599999997823
2,20260325_120617,D,J,False,CALIBRATION,1,61,61,staircase,,,0.05934235789988981,0.06848979591836743,0.001,0.004000000000000001,0.4406576421001102,1586,2014,0,,WHITE,,,0,,WHITE,True,CORRECT,1.5572575999995024,1557.2575999995024
2,20260325_120617,D,J,False,CALIBRATION,1,62,62,staircase,,,0.05985282009458042,0.07248979591836743,0.001,0.004000000000000001,0.44014717990541957,1585,2015,0,,WHITE,,,0,,BLACK,False,INCORRECT,1.5720516000001226,1572.0516000001226
2,20260325_120617,D,J,False,CALIBRATION,1,63,63,staircase,,,0.07693965607838082,0.07148979591836743,0.001,0.004000000000000001,0.4230603439216192,1523,2077,0,,WHITE,,,0,,WHITE,True,CORRECT,2.094132100000934,2094.132100000934
2,20260325_120617,D,J,False,CALIBRATION,1,64,64,staircase,,,0.05793236687970668,0.07048979591836743,0.001,0.004000000000000001,0.4420676331202933,1591,2009,0,,WHITE,,,0,,WHITE,True,CORRECT,2.3984490999991976,2398.4490999991976
2,20260325_120617,D,J,False,CALIBRATION,1,65,65,staircase,,,0.06999987558385826,0.06948979591836743,0.001,0.004000000000000001,0.43000012441614177,1548,2052,0,,WHITE,,,0,,WHITE,True,CORRECT,2.1972315999992134,2197.2315999992134
2,20260325_120617,D,J,False,CALIBRATION,1,66,66,staircase,,,0.07225569290716401,0.07348979591836743,0.001,0.004000000000000001,0.572255692907164,2060,1540,0,,BLACK,,,0,,WHITE,False,INCORRECT,2.3649851999998646,2364.9851999998646
2,20260325_120617,D,J,False,CALIBRATION,1,67,67,staircase,,,0.0626146954803817,0.07248979591836743,0.001,0.004000000000000001,0.5626146954803817,2025,1575,0,,BLACK,,,0,,BLACK,True,CORRECT,1.324440799999138,1324.440799999138
2,20260325_120617,D,J,False,CALIBRATION,1,68,68,staircase,,,0.09411851589891392,0.07148979591836743,0.001,0.004000000000000001,0.594118515898914,2139,1461,0,,BLACK,,,0,,BLACK,True,CORRECT,1.1641233999998803,1164.1233999998803
2,20260325_120617,D,J,False,CALIBRATION,1,69,69,staircase,,,0.07149995513700552,0.07048979591836743,0.001,0.004000000000000001,0.5714999551370055,2057,1543,0,,BLACK,,,0,,BLACK,True,CORRECT,0.9586202999998932,958.6202999998932
2,20260325_120617,D,J,False,CALIBRATION,1,70,70,staircase,,,0.06748002555609031,0.06948979591836743,0.001,0.004000000000000001,0.43251997444390966,1557,2043,0,,WHITE,,,0,,WHITE,True,CORRECT,1.0304436000005808,1030.4436000005808
2,20260325_120617,D,J,False,CALIBRATION,1,71,71,staircase,,,0.06134704788900223,0.06848979591836743,0.001,0.004000000000000001,0.5613470478890022,2021,1579,0,,BLACK,,,0,,BLACK,True,CORRECT,2.3546456000003673,2354.6456000003673
2,20260325_120617,D,J,False,CALIBRATION,1,72,72,staircase,,,0.050955178839466264,0.06748979591836743,0.001,0.004000000000000001,0.5509551788394662,1983,1617,0,,BLACK,,,0,,BLACK,True,CORRECT,3.7173914999984845,3717.3914999984845
2,20260325_120617,D,J,False,CALIBRATION,1,73,73,staircase,,,0.06684697949800208,0.06648979591836743,0.001,0.004000000000000001,0.5668469794980021,2041,1559,0,,BLACK,,,0,,BLACK,True,CORRECT,0.9688177000007272,968.8177000007272
2,20260325_120617,D,J,False,CALIBRATION,1,74,74,staircase,,,0.07763884968136762,0.06548979591836743,0.001,0.004000000000000001,0.5776388496813676,2079,1521,0,,BLACK,,,0,,BLACK,True,CORRECT,5.166908000001058,5166.908000001058
2,20260325_120617,D,J,False,CALIBRATION,1,75,75,staircase,,,0.06257652778157552,0.06448979591836743,0.001,0.004000000000000001,0.5625765277815755,2025,1575,0,,BLACK,,,0,,BLACK,True,CORRECT,1.5105126999987988,1510.5126999987988
2,20260325_120617,D,J,False,CALIBRATION,1,76,76,staircase,,,0.05322283232843746,0.06348979591836743,0.001,0.004000000000000001,0.44677716767156256,1608,1992,0,,WHITE,,,0,,WHITE,True,CORRECT,1.4791923000011593,1479.1923000011593
2,20260325_120617,D,J,False,CALIBRATION,1,77,77,staircase,,,0.06259521230920975,0.062489795918367425,0.001,0.004000000000000001,0.5625952123092097,2025,1575,0,,BLACK,,,0,,BLACK,True,CORRECT,3.4624160999992455,3462.4160999992455
2,20260325_120617,D,J,False,CALIBRATION,1,78,78,staircase,,,0.06350223497950985,0.061489795918367424,0.001,0.004000000000000001,0.5635022349795098,2029,1571,0,,BLACK,,,0,,BLACK,True,CORRECT,2.174295400000119,2174.295400000119
2,20260325_120617,D,J,False,CALIBRATION,1,79,79,staircase,,,0.08229925494340314,0.06048979591836742,0.001,0.004000000000000001,0.4177007450565969,1504,2096,0,,WHITE,,,0,,WHITE,True,CORRECT,0.8016563000001042,801.6563000001042
2,20260325_120617,D,J,False,CALIBRATION,1,80,80,staircase,,,0.05152156967929993,0.06448979591836743,0.001,0.004000000000000001,0.5515215696792999,1985,1615,0,,BLACK,,,0,,WHITE,False,INCORRECT,3.5835449999995035,3583.5449999995035
2,20260325_120617,D,J,False,CALIBRATION,1,81,81,staircase,,,0.05259561488269689,0.06348979591836743,0.001,0.004000000000000001,0.5525956148826969,1989,1611,0,,BLACK,,,0,,BLACK,True,CORRECT,1.9625088000011601,1962.5088000011601
2,20260325_120617,D,J,False,CALIBRATION,1,82,82,staircase,,,0.05646023730774963,0.062489795918367425,0.001,0.004000000000000001,0.5564602373077496,2003,1597,0,,BLACK,,,0,,BLACK,True,CORRECT,2.1069670999986556,2106.9670999986556
2,20260325_120617,D,J,False,CALIBRATION,1,83,83,staircase,,,0.06431914918000929,0.061489795918367424,0.001,0.004000000000000001,0.4356808508199907,1568,2032,0,,WHITE,,,0,,WHITE,True,CORRECT,1.7461648999997124,1746.1648999997124
2,20260325_120617,D,J,False,CALIBRATION,1,84,84,staircase,,,0.06935542438966263,0.06548979591836743,0.001,0.004000000000000001,0.5693554243896626,2050,1550,0,,BLACK,,,0,,WHITE,False,INCORRECT,4.626852500001405,4626.852500001405
2,20260325_120617,D,J,False,CALIBRATION,1,85,85,staircase,,,0.06757425641506119,0.06448979591836743,0.001,0.004000000000000001,0.4324257435849388,1557,2043,0,,WHITE,,,0,,WHITE,True,CORRECT,3.3522613999994064,3352.2613999994064
2,20260325_120617,D,J,False,CALIBRATION,1,86,86,staircase,,,0.07729178840414817,0.06348979591836743,0.001,0.004000000000000001,0.5772917884041482,2078,1522,0,,BLACK,,,0,,BLACK,True,CORRECT,3.2052920999994967,3205.2920999994967
2,20260325_120617,D,J,False,CALIBRATION,1,87,87,staircase,,,0.06069867206540082,0.062489795918367425,0.001,0.004000000000000001,0.4393013279345992,1581,2019,0,,WHITE,,,0,,WHITE,True,CORRECT,3.0720593000005465,3072.0593000005465
2,20260325_120617,D,J,False,CALIBRATION,1,88,88,staircase,,,0.06374953929397391,0.061489795918367424,0.001,0.004000000000000001,0.4362504607060261,1571,2029,0,,WHITE,,,0,,WHITE,True,CORRECT,1.7658764000007068,1765.8764000007068
2,20260325_120617,D,J,False,CALIBRATION,1,89,89,staircase,,,0.07425537915228059,0.06048979591836742,0.001,0.004000000000000001,0.5742553791522806,2067,1533,0,,BLACK,,,0,,BLACK,True,CORRECT,1.5317763000002742,1531.7763000002742
2,20260325_120617,D,J,False,CALIBRATION,1,90,90,staircase,,,0.06450530756162398,0.05948979591836742,0.001,0.004000000000000001,0.564505307561624,2032,1568,0,,BLACK,,,0,,BLACK,True,CORRECT,1.6919955000012123,1691.9955000012123
2,20260325_120617,D,J,False,CALIBRATION,1,91,91,staircase,,,0.06251230580067611,0.05848979591836742,0.001,0.004000000000000001,0.5625123058006761,2025,1575,0,,BLACK,,,0,,BLACK,True,CORRECT,1.1850311999987753,1185.0311999987753
2,20260325_120617,D,J,False,CALIBRATION,1,92,92,staircase,,,0.0690093470358997,0.05748979591836742,0.001,0.004000000000000001,0.43099065296410033,1552,2048,0,,WHITE,,,0,,WHITE,True,CORRECT,3.972268699999404,3972.268699999404
2,20260325_120617,D,J,False,CALIBRATION,1,93,93,staircase,,,0.05390383144330029,0.05648979591836742,0.001,0.004000000000000001,0.4460961685566997,1606,1994,0,,WHITE,,,0,,WHITE,True,CORRECT,1.0081536999987293,1008.1536999987293
2,20260325_120617,D,J,False,CALIBRATION,1,94,94,staircase,,,0.05278559030559858,0.05548979591836742,0.001,0.004000000000000001,0.4472144096944014,1610,1990,0,,WHITE,,,0,,WHITE,True,CORRECT,0.9059949000002234,905.9949000002234
2,20260325_120617,D,J,False,CALIBRATION,1,95,95,staircase,,,0.059644376270300066,0.05448979591836742,0.001,0.004000000000000001,0.5596443762703001,2015,1585,0,,BLACK,,,0,,BLACK,True,CORRECT,2.027993700001389,2027.9937000013888
2,20260325_120617,D,J,False,CALIBRATION,1,96,96,staircase,,,0.07235753947288662,0.05348979591836742,0.001,0.004000000000000001,0.5723575394728866,2060,1540,0,,BLACK,,,0,,BLACK,True,CORRECT,2.5237355000008392,2523.7355000008392
2,20260325_120617,D,J,False,CALIBRATION,1,97,97,staircase,,,0.035505234619196975,0.052489795918367416,0.001,0.004000000000000001,0.46449476538080303,1672,1928,0,,WHITE,,,0,,WHITE,True,CORRECT,1.0846046999995451,1084.6046999995451
2,20260325_120617,D,J,False,CALIBRATION,1,98,98,staircase,,,0.04243373876842031,0.051489795918367415,0.001,0.004000000000000001,0.5424337387684203,1953,1647,0,,BLACK,,,0,,BLACK,True,CORRECT,1.724004599998807,1724.004599998807
2,20260325_120617,D,J,False,CALIBRATION,1,99,99,staircase,,,0.05457763962600485,0.05548979591836742,0.001,0.004000000000000001,0.5545776396260048,1996,1604,0,,BLACK,,,0,,WHITE,False,INCORRECT,4.170346000000791,4170.346000000791
2,20260325_120617,D,J,False,CALIBRATION,1,100,100,staircase,,,0.0539294644933325,0.05448979591836742,0.001,0.004000000000000001,0.4460705355066675,1606,1994,0,,WHITE,,,0,,WHITE,True,CORRECT,1.7762093000001187,1776.2093000001187
2,20260325_120617,D,J,False,CALIBRATION,1,101,101,staircase,,,0.0528986980639702,0.05348979591836742,0.001,0.004000000000000001,0.5528986980639702,1990,1610,0,,BLACK,,,0,,BLACK,True,CORRECT,1.0620097999999416,1062.0097999999416
2,20260325_120617,D,J,False,CALIBRATION,1,102,102,staircase,,,0.05622165604800199,0.052489795918367416,0.001,0.004000000000000001,0.556221656048002,2002,1598,0,,BLACK,,,0,,BLACK,True,CORRECT,1.876721799999359,1876.721799999359
2,20260325_120617,D,J,False,CALIBRATION,1,103,103,staircase,,,0.04806579578561275,0.051489795918367415,0.001,0.004000000000000001,0.45193420421438724,1627,1973,0,,WHITE,,,0,,WHITE,True,CORRECT,1.120458100000178,1120.458100000178
2,20260325_120617,D,J,False,CALIBRATION,1,104,104,staircase,,,0.04670670804246782,0.05548979591836742,0.001,0.004000000000000001,0.5467067080424678,1968,1632,0,,BLACK,,,0,,WHITE,False,INCORRECT,1.2018339000005653,1201.8339000005653
2,20260325_120617,D,J,False,CALIBRATION,1,105,105,staircase,,,0.05339543371657052,0.05448979591836742,0.001,0.004000000000000001,0.4466045662834295,1608,1992,0,,WHITE,,,0,,WHITE,True,CORRECT,2.69335669999964,2693.35669999964
2,20260325_120617,D,J,False,CALIBRATION,1,106,106,staircase,,,0.05262179787715177,0.05348979591836742,0.001,0.004000000000000001,0.44737820212284823,1611,1989,0,,WHITE,,,0,,WHITE,True,CORRECT,4.2211134000008315,4221.1134000008315
2,20260325_120617,D,J,False,CALIBRATION,1,107,107,staircase,,,0.06144064725654512,0.052489795918367416,0.001,0.004000000000000001,0.5614406472565451,2021,1579,0,,BLACK,,,0,,BLACK,True,CORRECT,2.4509278000004997,2450.9278000004997
2,20260325_120617,D,J,False,CALIBRATION,1,108,108,staircase,,,0.05496109072773042,0.051489795918367415,0.001,0.004000000000000001,0.4450389092722696,1602,1998,0,,WHITE,,,0,,WHITE,True,CORRECT,3.303317399999287,3303.317399999287
2,20260325_120617,D,J,False,CALIBRATION,1,109,109,staircase,,,0.03324777923541401,0.050489795918367414,0.001,0.004000000000000001,0.466752220764586,1680,1920,0,,WHITE,,,0,,WHITE,True,CORRECT,3.487572899999577,3487.572899999577
2,20260325_120617,D,J,False,CALIBRATION,1,110,110,staircase,,,0.05384280828505066,0.04948979591836741,0.001,0.004000000000000001,0.44615719171494933,1606,1994,0,,WHITE,,,0,,WHITE,True,CORRECT,3.0595892000001186,3059.5892000001186
2,20260325_120617,D,J,False,CALIBRATION,1,111,111,staircase,,,0.0502653013414622,0.05348979591836742,0.001,0.004000000000000001,0.4497346986585378,1619,1981,0,,WHITE,,,0,,BLACK,False,INCORRECT,1.2189706999997725,1218.9706999997725
2,20260325_120617,D,J,False,CALIBRATION,1,112,112,staircase,,,0.06319749045631963,0.052489795918367416,0.001,0.004000000000000001,0.5631974904563196,2028,1572,0,,BLACK,,,0,,BLACK,True,CORRECT,1.3794882000001962,1379.4882000001962
2,20260325_120617,D,J,False,CALIBRATION,1,113,113,staircase,,,0.04970849877767594,0.051489795918367415,0.001,0.004000000000000001,0.5497084987776759,1979,1621,0,,BLACK,,,0,,BLACK,True,CORRECT,3.4978334000006726,3497.8334000006726
2,20260325_120617,D,J,False,CALIBRATION,1,114,114,staircase,,,0.03476318357125667,0.050489795918367414,0.001,0.004000000000000001,0.5347631835712566,1925,1675,0,,BLACK,,,0,,BLACK,True,CORRECT,2.6825509000009333,2682.5509000009333
2,20260325_120617,D,J,False,CALIBRATION,1,115,115,staircase,,,0.05528506893160369,0.04948979591836741,0.001,0.004000000000000001,0.5552850689316037,1999,1601,0,,BLACK,,,0,,BLACK,True,CORRECT,2.358850300000995,2358.850300000995
2,20260325_120617,D,J,False,CALIBRATION,1,116,116,staircase,,,0.05517666385040006,0.04848979591836741,0.001,0.004000000000000001,0.5551766638504001,1999,1601,0,,BLACK,,,0,,BLACK,True,CORRECT,1.5428044000000227,1542.8044000000227
2,20260325_120617,D,J,False,CALIBRATION,1,117,117,staircase,,,0.03441014330828854,0.04748979591836741,0.001,0.004000000000000001,0.5344101433082885,1924,1676,0,,BLACK,,,0,,BLACK,True,CORRECT,3.195551799999521,3195.551799999521
2,20260325_120617,D,J,False,CALIBRATION,1,118,118,staircase,,,0.04480704596436331,0.04648979591836741,0.001,0.004000000000000001,0.5448070459643634,1961,1639,0,,BLACK,,,0,,BLACK,True,CORRECT,3.4259431999998924,3425.9431999998924
2,20260325_120617,D,J,False,CALIBRATION,1,119,119,staircase,,,0.03093257497544502,0.04548979591836741,0.001,0.004000000000000001,0.469067425024555,1689,1911,0,,WHITE,,,0,,WHITE,True,CORRECT,3.347580800000287,3347.580800000287
2,20260325_120617,D,J,False,CALIBRATION,1,120,120,staircase,,,0.04169540749430497,0.04448979591836741,0.001,0.004000000000000001,0.45830459250569505,1650,1950,0,,WHITE,,,0,,WHITE,True,CORRECT,0.9067261000000144,906.7261000000144
2,20260325_120617,D,J,False,CALIBRATION,1,121,121,staircase,,,0.03426555559480856,0.04348979591836741,0.001,0.004000000000000001,0.5342655555948086,1923,1677,0,,BLACK,,,0,,BLACK,True,CORRECT,1.155887700000676,1155.887700000676
2,20260325_120617,D,J,False,CALIBRATION,1,122,122,staircase,,,0.056854226667067735,0.04248979591836741,0.001,0.004000000000000001,0.44314577333293226,1595,2005,0,,WHITE,,,0,,WHITE,True,CORRECT,1.2774726999996346,1277.4726999996346
2,20260325_120617,D,J,False,CALIBRATION,1,123,123,staircase,,,0.04740043679025385,0.041489795918367406,0.001,0.004000000000000001,0.45259956320974615,1629,1971,0,,WHITE,,,0,,WHITE,True,CORRECT,0.9369925999999396,936.9925999999396
2,20260325_120617,D,J,False,CALIBRATION,1,124,124,staircase,,,0.04986551148259533,0.040489795918367405,0.001,0.004000000000000001,0.5498655114825953,1980,1620,0,,BLACK,,,0,,BLACK,True,CORRECT,0.8958607000004122,895.8607000004122
2,20260325_120617,D,J,False,CALIBRATION,1,125,125,staircase,,,0.04306588904942813,0.039489795918367404,0.001,0.004000000000000001,0.5430658890494281,1955,1645,0,,BLACK,,,0,,BLACK,True,CORRECT,3.4685723000002326,3468.5723000002326
2,20260325_120617,D,J,False,CALIBRATION,1,126,126,staircase,,,0.04985536400249481,0.0384897959183674,0.001,0.004000000000000001,0.5498553640024948,1979,1621,0,,BLACK,,,0,,BLACK,True,CORRECT,1.203824700000041,1203.824700000041
2,20260325_120617,D,J,False,CALIBRATION,1,127,127,staircase,,,0.03429470926741948,0.0374897959183674,0.001,0.004000000000000001,0.4657052907325805,1677,1923,0,,WHITE,,,0,,WHITE,True,CORRECT,1.236582500001532,1236.582500001532
2,20260325_120617,D,J,False,CALIBRATION,1,128,128,staircase,,,0.044913205969354435,0.0364897959183674,0.001,0.004000000000000001,0.45508679403064556,1638,1962,0,,WHITE,,,0,,WHITE,True,CORRECT,0.8411510000005364,841.1510000005364
2,20260325_120617,D,J,False,CALIBRATION,1,129,129,staircase,,,0.04731024878902705,0.0354897959183674,0.001,0.004000000000000001,0.45268975121097293,1630,1970,0,,WHITE,,,0,,WHITE,True,CORRECT,0.7083911999998236,708.3911999998236
2,20260325_120617,D,J,False,CALIBRATION,1,130,130,staircase,,,0.04021844467204926,0.0344897959183674,0.001,0.004000000000000001,0.5402184446720493,1945,1655,0,,BLACK,,,0,,BLACK,True,CORRECT,0.828812800000378,828.812800000378
2,20260325_120617,D,J,False,CALIBRATION,1,131,131,staircase,,,0.019066662079723195,0.0334897959183674,0.001,0.004000000000000001,0.4809333379202768,1731,1869,0,,WHITE,,,0,,WHITE,True,CORRECT,1.6143196000011812,1614.3196000011812
2,20260325_120617,D,J,False,CALIBRATION,1,132,132,staircase,,,0.034731822104517425,0.0324897959183674,0.001,0.004000000000000001,0.5347318221045174,1925,1675,0,,BLACK,,,0,,BLACK,True,CORRECT,2.734454800000094,2734.454800000094
2,20260325_120617,D,J,False,CALIBRATION,1,133,133,staircase,,,0.029981317864388228,0.0314897959183674,0.001,0.004000000000000001,0.5299813178643882,1908,1692,0,,BLACK,,,0,,BLACK,True,CORRECT,1.9880757999999332,1988.0757999999332
2,20260325_120617,D,J,False,CALIBRATION,1,134,134,staircase,,,0.03240041583239335,0.030489795918367396,0.001,0.004000000000000001,0.46759958416760666,1683,1917,0,,WHITE,,,0,,WHITE,True,CORRECT,1.5319778000011866,1531.9778000011866
2,20260325_120617,D,J,False,CALIBRATION,1,135,135,staircase,,,0.03587781939207301,0.029489795918367395,0.001,0.004000000000000001,0.464122180607927,1671,1929,0,,WHITE,,,0,,WHITE,True,CORRECT,1.1933649000002333,1193.3649000002333
2,20260325_120617,D,J,False,CALIBRATION,1,136,136,staircase,,,0.02677297232753701,0.0334897959183674,0.001,0.004000000000000001,0.5267729723275371,1896,1704,0,,BLACK,,,0,,WHITE,False,INCORRECT,2.2095172999997885,2209.5172999997885
2,20260325_120617,D,J,False,CALIBRATION,1,137,137,staircase,,,0.01766884407108545,0.0324897959183674,0.001,0.004000000000000001,0.5176688440710855,1864,1736,0,,BLACK,,,0,,BLACK,True,CORRECT,1.2554887000005692,1255.4887000005692
2,20260325_120617,D,J,False,CALIBRATION,1,138,138,staircase,,,0.039521216668392915,0.0314897959183674,0.001,0.004000000000000001,0.4604787833316071,1658,1942,0,,WHITE,,,0,,WHITE,True,CORRECT,0.9092665999996825,909.2665999996825
2,20260325_120617,D,J,False,CALIBRATION,1,139,139,staircase,,,0.03053936359498636,0.030489795918367396,0.001,0.004000000000000001,0.4694606364050136,1690,1910,0,,WHITE,,,0,,WHITE,True,CORRECT,0.7643124000005628,764.3124000005628
2,20260325_120617,D,J,False,CALIBRATION,1,140,140,staircase,,,0.03167181721256777,0.029489795918367395,0.001,0.004000000000000001,0.5316718172125677,1914,1686,0,,BLACK,,,0,,BLACK,True,CORRECT,0.8770343000014691,877.0343000014691
2,20260325_120617,D,J,False,CALIBRATION,1,141,141,staircase,,,0.034303083789611534,0.028489795918367394,0.001,0.004000000000000001,0.5343030837896116,1923,1677,0,,BLACK,,,0,,BLACK,True,CORRECT,2.7132434000013745,2713.2434000013745
2,20260325_120617,D,J,False,CALIBRATION,1,142,142,staircase,,,0.03775152641804378,0.027489795918367393,0.001,0.004000000000000001,0.4622484735819562,1664,1936,0,,WHITE,,,0,,WHITE,True,CORRECT,1.2937810000003083,1293.7810000003083
2,20260325_120617,D,J,False,CALIBRATION,1,143,143,staircase,,,0.012931431442385689,0.026489795918367393,0.001,0.004000000000000001,0.4870685685576143,1753,1847,0,,WHITE,,,0,,WHITE,True,CORRECT,2.858280200000081,2858.280200000081
2,20260325_120617,D,J,False,CALIBRATION,1,144,144,staircase,,,0.03292578764266939,0.02548979591836739,0.001,0.004000000000000001,0.5329257876426694,1919,1681,0,,BLACK,,,0,,BLACK,True,CORRECT,3.970743700001549,3970.743700001549
2,20260325_120617,D,J,False,CALIBRATION,1,145,145,staircase,,,0.021931269118115243,0.029489795918367392,0.001,0.004000000000000001,0.5219312691181153,1879,1721,0,,BLACK,,,0,,WHITE,False,INCORRECT,1.7856620000002295,1785.6620000002295
2,20260325_120617,D,J,False,CALIBRATION,1,146,146,staircase,,,0.04131198406257172,0.02848979591836739,0.001,0.004000000000000001,0.5413119840625717,1949,1651,0,,BLACK,,,0,,BLACK,True,CORRECT,1.8709292999992613,1870.9292999992613
2,20260325_120617,D,J,False,CALIBRATION,1,147,147,staircase,,,0.029856190375882146,0.02748979591836739,0.001,0.004000000000000001,0.47014380962411784,1693,1907,0,,WHITE,,,0,,WHITE,True,CORRECT,0.7909270000000106,790.9270000000106
2,20260325_120617,D,J,False,CALIBRATION,1,148,148,staircase,,,0.03066452640135949,0.02648979591836739,0.001,0.004000000000000001,0.46933547359864053,1690,1910,0,,WHITE,,,0,,WHITE,True,CORRECT,0.8656300000002375,865.6300000002375
2,20260325_120617,D,J,False,CALIBRATION,1,149,149,staircase,,,0.03600364820208703,0.025489795918367388,0.001,0.004000000000000001,0.463996351797913,1670,1930,0,,WHITE,,,0,,WHITE,True,CORRECT,0.783609100000831,783.609100000831
2,20260325_120617,D,J,False,CALIBRATION,1,150,150,staircase,,,0.014250329207292696,0.024489795918367387,0.001,0.004000000000000001,0.5142503292072927,1851,1749,0,,BLACK,,,0,,BLACK,True,CORRECT,1.0621398000002955,1062.1398000002955
2,20260325_120617,D,J,False,CALIBRATION,1,151,151,staircase,,,0.022410034812634563,0.028489795918367387,0.001,0.004000000000000001,0.47758996518736546,1719,1881,0,,WHITE,,,0,,BLACK,False,INCORRECT,0.9672790999993595,967.2790999993595
2,20260325_120617,D,J,False,CALIBRATION,1,152,152,staircase,,,0.037813603635344036,0.027489795918367387,0.001,0.004000000000000001,0.46218639636465597,1664,1936,0,,WHITE,,,0,,WHITE,True,CORRECT,1.8184332000000722,1818.4332000000722
2,20260325_120617,D,J,False,CALIBRATION,1,153,153,staircase,,,0.024448424131251,0.03148979591836739,0.001,0.004000000000000001,0.475551575868749,1712,1888,0,,WHITE,,,0,,BLACK,False,INCORRECT,1.5320160999999644,1532.0160999999644
2,20260325_120617,D,J,False,CALIBRATION,1,154,154,staircase,,,0.02986265807040934,0.035489795918367394,0.001,0.004000000000000001,0.5298626580704093,1908,1692,0,,BLACK,,,0,,WHITE,False,INCORRECT,0.8447842000005039,844.7842000005039
2,20260325_120617,D,J,False,CALIBRATION,1,155,155,staircase,,,0.047525324695544754,0.03448979591836739,0.001,0.004000000000000001,0.5475253246955447,1971,1629,0,,BLACK,,,0,,BLACK,True,CORRECT,2.1082385999998223,2108.2385999998223
2,20260325_120617,D,J,False,CALIBRATION,1,156,156,staircase,,,0.03816494603012146,0.03348979591836739,0.001,0.004000000000000001,0.5381649460301214,1937,1663,0,,BLACK,,,0,,BLACK,True,CORRECT,2.6330224000012095,2633.0224000012095
2,20260325_120617,D,J,False,CALIBRATION,1,157,157,staircase,,,0.02574857737466682,0.03248979591836739,0.001,0.004000000000000001,0.47425142262533315,1707,1893,0,,WHITE,,,0,,WHITE,True,CORRECT,0.9237238999994588,923.7238999994588
2,20260325_120617,D,J,False,CALIBRATION,1,158,158,staircase,,,0.0312919361647563,0.036489795918367395,0.001,0.004000000000000001,0.4687080638352437,1687,1913,0,,WHITE,,,0,,BLACK,False,INCORRECT,3.594075499999235,3594.075499999235
2,20260325_120617,D,J,False,CALIBRATION,1,159,159,staircase,,,0.054177067662865966,0.035489795918367394,0.001,0.004000000000000001,0.44582293233713405,1605,1995,0,,WHITE,,,0,,WHITE,True,CORRECT,1.7325338000009651,1732.5338000009651
2,20260325_120617,D,J,False,CALIBRATION,1,160,160,staircase,,,0.054023614278725436,0.03448979591836739,0.001,0.004000000000000001,0.5540236142787255,1994,1606,0,,BLACK,,,0,,BLACK,True,CORRECT,2.4900446999999986,2490.0446999999986
2,20260325_120617,D,J,False,CALIBRATION,1,161,161,staircase,,,0.030448269936029705,0.03348979591836739,0.001,0.004000000000000001,0.5304482699360297,1910,1690,0,,BLACK,,,0,,BLACK,True,CORRECT,1.4240069999996194,1424.0069999996194
2,20260325_120617,D,J,False,CALIBRATION,1,162,162,staircase,,,0.021659674465050252,0.03248979591836739,0.001,0.004000000000000001,0.47834032553494976,1722,1878,0,,WHITE,,,0,,WHITE,True,CORRECT,1.0782512000005227,1078.2512000005227
2,20260325_120617,D,J,False,CALIBRATION,1,163,163,staircase,,,0.015267662999645517,0.036489795918367395,0.001,0.004000000000000001,0.5152676629996455,1855,1745,0,,BLACK,,,0,,WHITE,False,INCORRECT,4.176312899999175,4176.312899999175
2,20260325_120617,D,J,False,CALIBRATION,1,164,164,staircase,,,0.03713453323364422,0.035489795918367394,0.001,0.004000000000000001,0.46286546676635576,1666,1934,0,,WHITE,,,0,,WHITE,True,CORRECT,4.2971887000003335,4297.1887000003335
2,20260325_120617,D,J,False,CALIBRATION,1,165,165,staircase,,,0.0241593848476052,0.03448979591836739,0.001,0.004000000000000001,0.4758406151523948,1713,1887,0,,WHITE,,,0,,WHITE,True,CORRECT,2.0747674999984156,2074.7674999984156
2,20260325_120617,D,J,False,CALIBRATION,1,166,166,staircase,,,0.03728991068563396,0.038489795918367396,0.001,0.004000000000000001,0.5372899106856339,1934,1666,0,,BLACK,,,0,,WHITE,False,INCORRECT,1.44685600000048,1446.85600000048
2,20260325_120617,D,J,False,CALIBRATION,1,167,167,staircase,,,0.0259114324884826,0.0424897959183674,0.001,0.004000000000000001,0.4740885675115174,1707,1893,0,,WHITE,,,0,,BLACK,False,INCORRECT,3.3660354999992705,3366.0354999992705
2,20260325_120617,D,J,False,CALIBRATION,1,168,168,staircase,,,0.04245637081524067,0.0414897959183674,0.001,0.004000000000000001,0.5424563708152407,1953,1647,0,,BLACK,,,0,,BLACK,True,CORRECT,4.436739900000248,4436.739900000248
2,20260325_120617,D,J,False,CALIBRATION,1,169,169,staircase,,,0.0481861339730194,0.0404897959183674,0.001,0.004000000000000001,0.4518138660269806,1627,1973,0,,WHITE,,,0,,WHITE,True,CORRECT,3.1390252000001055,3139.0252000001055
2,20260325_120617,D,J,False,CALIBRATION,1,170,170,staircase,,,0.015435688780258357,0.0394897959183674,0.001,0.004000000000000001,0.5154356887802584,1856,1744,0,,BLACK,,,0,,BLACK,True,CORRECT,6.522482099999252,6522.482099999252
2,20260325_120617,D,J,False,CALIBRATION,1,171,171,staircase,,,0.043696271233055084,0.0434897959183674,0.001,0.004000000000000001,0.5436962712330551,1957,1643,0,,BLACK,,,0,,WHITE,False,INCORRECT,4.633468999998513,4633.468999998513
2,20260325_120617,D,J,False,CALIBRATION,1,172,172,staircase,,,0.0306694179826388,0.0424897959183674,0.001,0.004000000000000001,0.5306694179826388,1910,1690,0,,BLACK,,,0,,BLACK,True,CORRECT,3.9061523000000307,3906.1523000000307
2,20260325_120617,D,J,False,CALIBRATION,1,173,173,staircase,,,0.036091800065508634,0.0414897959183674,0.001,0.004000000000000001,0.5360918000655086,1930,1670,0,,BLACK,,,0,,BLACK,True,CORRECT,1.245288399999481,1245.288399999481
2,20260325_120617,D,J,False,CALIBRATION,1,174,174,staircase,,,0.043450897264841325,0.0454897959183674,0.001,0.004000000000000001,0.5434508972648413,1956,1644,0,,BLACK,,,0,,WHITE,False,INCORRECT,7.755930999999691,7755.930999999691
2,20260325_120617,D,J,False,CALIBRATION,1,175,175,staircase,,,0.046042777420019006,0.049489795918367406,0.001,0.004000000000000001,0.546042777420019,1966,1634,0,,BLACK,,,0,,WHITE,False,INCORRECT,2.0255849999994098,2025.5849999994098
2,20260325_120617,D,J,False,CALIBRATION,1,176,176,staircase,,,0.05758246096575284,0.05348979591836741,0.001,0.004000000000000001,0.4424175390342472,1593,2007,0,,WHITE,,,0,,BLACK,False,INCORRECT,2.2501468999998906,2250.1468999998906
2,20260325_120617,D,J,False,CALIBRATION,1,177,177,staircase,,,0.04540690275683885,0.05748979591836741,0.001,0.004000000000000001,0.5454069027568389,1963,1637,0,,BLACK,,,0,,WHITE,False,INCORRECT,4.97763920000034,4977.63920000034
2,20260325_120617,D,J,False,CALIBRATION,1,178,178,staircase,,,0.0573582387945493,0.05648979591836741,0.001,0.004000000000000001,0.5573582387945493,2006,1594,0,,BLACK,,,0,,BLACK,True,CORRECT,2.8692031000009592,2869.2031000009592
2,20260325_120617,D,J,False,CALIBRATION,1,179,179,staircase,,,0.055720721128464136,0.05548979591836741,0.001,0.004000000000000001,0.44427927887153584,1599,2001,0,,WHITE,,,0,,WHITE,True,CORRECT,1.0633680999999342,1063.3680999999342
2,20260325_120617,D,J,False,CALIBRATION,1,180,180,staircase,,,0.03927028235707854,0.05448979591836741,0.001,0.004000000000000001,0.4607297176429215,1659,1941,0,,WHITE,,,0,,WHITE,True,CORRECT,1.3581295000003593,1358.1295000003593
2,20260325_120617,D,J,False,CALIBRATION,1,181,181,staircase,,,0.04055052005804649,0.058489795918367414,0.001,0.004000000000000001,0.4594494799419535,1654,1946,0,,WHITE,,,0,,BLACK,False,INCORRECT,1.055933300000106,1055.933300000106
2,20260325_120617,D,J,False,CALIBRATION,1,182,182,staircase,,,0.04731131875851758,0.05748979591836741,0.001,0.004000000000000001,0.4526886812414824,1630,1970,0,,WHITE,,,0,,WHITE,True,CORRECT,3.026359400000729,3026.359400000729
2,20260325_120617,D,J,False,CALIBRATION,1,183,183,staircase,,,0.06381250751962608,0.05648979591836741,0.001,0.004000000000000001,0.5638125075196261,2030,1570,0,,BLACK,,,0,,BLACK,True,CORRECT,0.8628150999993522,862.8150999993522
2,20260325_120617,D,J,False,CALIBRATION,1,184,184,staircase,,,0.05729211661323997,0.05548979591836741,0.001,0.004000000000000001,0.44270788338676004,1594,2006,0,,WHITE,,,0,,WHITE,True,CORRECT,1.0970170999989932,1097.0170999989932
2,20260325_120617,D,J,False,CALIBRATION,1,185,185,staircase,,,0.053393176402891096,0.05448979591836741,0.001,0.004000000000000001,0.5533931764028911,1992,1608,0,,BLACK,,,0,,BLACK,True,CORRECT,0.9563720999994985,956.3720999994985
2,20260325_120617,D,J,False,CALIBRATION,1,186,186,staircase,,,0.058871160829827664,0.05348979591836741,0.001,0.004000000000000001,0.4411288391701723,1588,2012,0,,WHITE,,,0,,WHITE,True,CORRECT,0.8267828000007285,826.7828000007285
2,20260325_120617,D,J,False,CALIBRATION,1,187,187,staircase,,,0.05796333734654861,0.05248979591836741,0.001,0.004000000000000001,0.5579633373465486,2009,1591,0,,BLACK,,,0,,BLACK,True,CORRECT,0.6166621999982453,616.6621999982453
2,20260325_120617,D,J,False,CALIBRATION,1,188,188,staircase,,,0.05841943739869283,0.05148979591836741,0.001,0.004000000000000001,0.5584194373986928,2010,1590,0,,BLACK,,,0,,BLACK,True,CORRECT,0.882916300000943,882.916300000943
2,20260325_120617,D,J,False,CALIBRATION,1,189,189,staircase,,,0.052057886050308345,0.05548979591836741,0.001,0.004000000000000001,0.5520578860503084,1987,1613,0,,BLACK,,,0,,WHITE,False,INCORRECT,1.0286826999999903,1028.6826999999903
2,20260325_120617,D,J,False,CALIBRATION,1,190,190,staircase,,,0.06266041304093779,0.05448979591836741,0.001,0.004000000000000001,0.4373395869590622,1574,2026,0,,WHITE,,,0,,WHITE,True,CORRECT,2.218367899999066,2218.367899999066
2,20260325_120617,D,J,False,CALIBRATION,1,191,191,staircase,,,0.04589398757538382,0.05348979591836741,0.001,0.004000000000000001,0.5458939875753839,1965,1635,0,,BLACK,,,0,,BLACK,True,CORRECT,0.7009875000003376,700.9875000003376
2,20260325_120617,D,J,False,CALIBRATION,1,192,192,staircase,,,0.06189589727017965,0.05248979591836741,0.001,0.004000000000000001,0.5618958972701796,2023,1577,0,,BLACK,,,0,,BLACK,True,CORRECT,0.8888806000013574,888.8806000013574
2,20260325_120617,D,J,False,CALIBRATION,1,193,193,staircase,,,0.03988914388495249,0.05148979591836741,0.001,0.004000000000000001,0.46011085611504754,1656,1944,0,,WHITE,,,0,,WHITE,True,CORRECT,1.4123094999995374,1412.3094999995374
2,20260325_120617,D,J,False,CALIBRATION,1,194,194,staircase,,,0.04621374369244535,0.05048979591836741,0.001,0.004000000000000001,0.5462137436924454,1966,1634,0,,BLACK,,,0,,BLACK,True,CORRECT,0.7866955999998027,786.6955999998027
2,20260325_120617,D,J,False,CALIBRATION,1,195,195,staircase,,,0.047060634353670305,0.049489795918367406,0.001,0.004000000000000001,0.4529393656463297,1631,1969,0,,WHITE,,,0,,WHITE,True,CORRECT,1.2891204000006837,1289.1204000006837
2,20260325_120617,D,J,False,CALIBRATION,1,196,196,staircase,,,0.05601046305967872,0.048489795918367405,0.001,0.004000000000000001,0.4439895369403213,1598,2002,0,,WHITE,,,0,,WHITE,True,CORRECT,2.499029499998869,2499.029499998869
2,20260325_120617,D,J,False,CALIBRATION,1,197,197,staircase,,,0.056520563691280334,0.047489795918367404,0.001,0.004000000000000001,0.5565205636912803,2003,1597,0,,BLACK,,,0,,BLACK,True,CORRECT,0.9804289999992761,980.4289999992761
2,20260325_120617,D,J,False,CALIBRATION,1,198,198,staircase,,,0.05401184895762264,0.0464897959183674,0.001,0.004000000000000001,0.4459881510423774,1606,1994,0,,WHITE,,,0,,WHITE,True,CORRECT,1.5338820000015403,1533.8820000015403
2,20260325_120617,D,J,False,CALIBRATION,1,199,199,staircase,,,0.046188009724724595,0.05048979591836741,0.001,0.004000000000000001,0.4538119902752754,1634,1966,0,,WHITE,,,0,,BLACK,False,INCORRECT,0.7382672000003367,738.2672000003367
2,20260325_120617,D,J,False,CALIBRATION,1,200,200,staircase,,,0.03346392800031418,0.049489795918367406,0.001,0.004000000000000001,0.5334639280003142,1920,1680,0,,BLACK,,,0,,BLACK,True,CORRECT,1.3862383000014233,1386.2383000014233
2,20260325_120617,D,J,False,CALIBRATION,1,201,201,staircase,,,0.034722760201404475,0.048489795918367405,0.001,0.004000000000000001,0.5347227602014045,1925,1675,0,,BLACK,,,0,,BLACK,True,CORRECT,2.3143858999992517,2314.3858999992517
2,20260325_120617,D,J,False,CALIBRATION,1,202,202,staircase,,,0.0642238866755276,0.047489795918367404,0.001,0.004000000000000001,0.5642238866755276,2031,1569,0,,BLACK,,,0,,BLACK,True,CORRECT,0.8388163999989047,838.8163999989047
2,20260325_120617,D,J,False,CALIBRATION,1,203,203,staircase,,,0.04014747693280292,0.0464897959183674,0.001,0.004000000000000001,0.4598525230671971,1655,1945,0,,WHITE,,,0,,WHITE,True,CORRECT,1.208865999999034,1208.865999999034
2,20260325_120617,D,J,False,CALIBRATION,1,204,204,staircase,,,0.056379254417866176,0.0454897959183674,0.001,0.004000000000000001,0.4436207455821338,1597,2003,0,,WHITE,,,0,,WHITE,True,CORRECT,0.8942349999997532,894.2349999997532
2,20260325_120617,D,J,False,CALIBRATION,1,205,205,staircase,,,0.04758911539429991,0.0444897959183674,0.001,0.004000000000000001,0.4524108846057001,1629,1971,0,,WHITE,,,0,,WHITE,True,CORRECT,0.7042259000008926,704.2259000008926
2,20260325_120617,D,J,False,CALIBRATION,1,206,206,staircase,,,0.036283251501277716,0.0434897959183674,0.001,0.004000000000000001,0.4637167484987223,1669,1931,0,,WHITE,,,0,,WHITE,True,CORRECT,4.448181499999919,4448.181499999919
2,20260325_120617,D,J,False,CALIBRATION,1,207,207,staircase,,,0.029704247679144976,0.0424897959183674,0.001,0.004000000000000001,0.5297042476791449,1907,1693,0,,BLACK,,,0,,BLACK,True,CORRECT,1.9928227000000334,1992.8227000000334
2,20260325_120617,D,J,False,CALIBRATION,1,208,208,staircase,,,0.047353385221225695,0.0414897959183674,0.001,0.004000000000000001,0.5473533852212257,1970,1630,0,,BLACK,,,0,,BLACK,True,CORRECT,1.6136597999993683,1613.6597999993683
2,20260325_120617,D,J,False,CALIBRATION,1,209,209,staircase,,,0.04475172139640482,0.0404897959183674,0.001,0.004000000000000001,0.4552482786035952,1639,1961,0,,WHITE,,,0,,WHITE,True,CORRECT,1.8871046000003844,1887.1046000003844
2,20260325_120617,D,J,False,CALIBRATION,1,210,210,staircase,,,0.020487537215525094,0.0394897959183674,0.001,0.004000000000000001,0.4795124627844749,1726,1874,0,,WHITE,,,0,,WHITE,True,CORRECT,2.8215885999998136,2821.5885999998136
2,20260325_120617,D,J,False,CALIBRATION,1,211,211,staircase,,,0.034603866575075276,0.038489795918367396,0.001,0.004000000000000001,0.5346038665750753,1925,1675,0,,BLACK,,,0,,BLACK,True,CORRECT,0.6086321999991924,608.6321999991924
2,20260325_120617,D,J,False,CALIBRATION,1,212,212,staircase,,,0.040438303192134935,0.037489795918367395,0.001,0.004000000000000001,0.5404383031921349,1946,1654,0,,BLACK,,,0,,BLACK,True,CORRECT,0.8790453000001435,879.0453000001435
2,20260325_120617,D,J,False,CALIBRATION,1,213,213,staircase,,,0.0375443550015795,0.036489795918367395,0.001,0.004000000000000001,0.4624556449984205,1665,1935,0,,WHITE,,,0,,WHITE,True,CORRECT,3.4441325000007055,3444.1325000007055
2,20260325_120617,D,J,False,CALIBRATION,1,214,214,staircase,,,0.02002479220985522,0.035489795918367394,0.001,0.004000000000000001,0.5200247922098552,1872,1728,0,,BLACK,,,0,,BLACK,True,CORRECT,2.651975599999787,2651.975599999787
2,20260325_120617,D,J,False,CALIBRATION,1,215,215,staircase,,,0.031214087077177727,0.03448979591836739,0.001,0.004000000000000001,0.5312140870771778,1912,1688,0,,BLACK,,,0,,BLACK,True,CORRECT,4.213449400000172,4213.449400000172
2,20260325_120617,D,J,False,CALIBRATION,1,216,216,staircase,,,0.03890857212595004,0.03348979591836739,0.001,0.004000000000000001,0.53890857212595,1940,1660,0,,BLACK,,,0,,BLACK,True,CORRECT,1.2816675000012765,1281.6675000012765
2,20260325_120617,D,J,False,CALIBRATION,1,217,217,staircase,,,0.03635948311520548,0.03248979591836739,0.001,0.004000000000000001,0.4636405168847945,1669,1931,0,,WHITE,,,0,,WHITE,True,CORRECT,1.878569399999833,1878.569399999833
2,20260325_120617,D,J,False,CALIBRATION,1,218,218,staircase,,,0.03278087147429655,0.03148979591836739,0.001,0.004000000000000001,0.5327808714742965,1918,1682,0,,BLACK,,,0,,BLACK,True,CORRECT,1.0155195999996067,1015.5195999996067
2,20260325_120617,D,J,False,CALIBRATION,1,219,219,staircase,,,0.03847405000907774,0.03048979591836739,0.001,0.004000000000000001,0.4615259499909223,1661,1939,0,,WHITE,,,0,,WHITE,True,CORRECT,0.777809499999421,777.809499999421
2,20260325_120617,D,J,False,CALIBRATION,1,220,220,staircase,,,0.01704395618468084,0.02948979591836739,0.001,0.004000000000000001,0.48295604381531915,1739,1861,0,,WHITE,,,0,,WHITE,True,CORRECT,0.9403853000003437,940.3853000003437
2,20260325_120617,D,J,False,CALIBRATION,1,221,221,staircase,,,0.021971604669553425,0.028489795918367387,0.001,0.004000000000000001,0.5219716046695534,1879,1721,0,,BLACK,,,0,,BLACK,True,CORRECT,0.8525306999999884,852.5306999999884
2,20260325_120617,D,J,False,CALIBRATION,1,222,222,staircase,,,0.03356551268077236,0.027489795918367387,0.001,0.004000000000000001,0.5335655126807723,1921,1679,0,,BLACK,,,0,,BLACK,True,CORRECT,2.3967919000006077,2396.7919000006077
2,20260325_120617,D,J,False,CALIBRATION,1,223,223,staircase,,,0.02492809512916158,0.026489795918367386,0.001,0.004000000000000001,0.4750719048708384,1710,1890,0,,WHITE,,,0,,WHITE,True,CORRECT,1.0174217999992834,1017.4217999992834
2,20260325_120617,D,J,False,CALIBRATION,1,224,224,staircase,,,0.01002435823049199,0.025489795918367385,0.001,0.004000000000000001,0.510024358230492,1836,1764,0,,BLACK,,,0,,BLACK,True,CORRECT,1.4640584000007948,1464.0584000007948
2,20260325_120617,D,J,False,CALIBRATION,1,225,225,staircase,,,0.010473395635040895,0.029489795918367385,0.001,0.004000000000000001,0.5104733956350409,1838,1762,0,,BLACK,,,0,,WHITE,False,INCORRECT,1.9667458000003535,1966.7458000003535
2,20260325_120617,D,J,False,CALIBRATION,1,226,226,staircase,,,0.014430557471079441,0.028489795918367384,0.001,0.004000000000000001,0.48556944252892054,1748,1852,0,,WHITE,,,0,,WHITE,True,CORRECT,1.1810946999994485,1181.0946999994485
2,20260325_120617,D,J,False,CALIBRATION,1,227,227,staircase,,,0.03275518815666714,0.027489795918367383,0.001,0.004000000000000001,0.4672448118433329,1682,1918,0,,WHITE,,,0,,WHITE,True,CORRECT,0.801764899999398,801.764899999398
2,20260325_120617,D,J,False,CALIBRATION,1,228,228,staircase,,,0.020977104047439667,0.026489795918367382,0.001,0.004000000000000001,0.4790228959525603,1724,1876,0,,WHITE,,,0,,WHITE,True,CORRECT,2.1283138999988296,2128.3138999988296
2,20260325_120617,D,J,False,CALIBRATION,1,229,229,staircase,,,0.04651855739843741,0.030489795918367382,0.001,0.004000000000000001,0.5465185573984375,1967,1633,0,,BLACK,,,0,,WHITE,False,INCORRECT,0.787373099999968,787.373099999968
2,20260325_120617,D,J,False,CALIBRATION,1,230,230,staircase,,,0.032646443005702,0.02948979591836738,0.001,0.004000000000000001,0.532646443005702,1918,1682,0,,BLACK,,,0,,BLACK,True,CORRECT,1.0425334999999905,1042.5334999999905
2,20260325_120617,D,J,False,CALIBRATION,1,231,231,staircase,,,0.03303503160742383,0.02848979591836738,0.001,0.004000000000000001,0.4669649683925762,1681,1919,0,,WHITE,,,0,,WHITE,True,CORRECT,1.8647220999991987,1864.7220999991987
2,20260325_120617,D,J,False,CALIBRATION,1,232,232,staircase,,,0.032207876155323764,0.02748979591836738,0.001,0.004000000000000001,0.5322078761553237,1916,1684,0,,BLACK,,,0,,BLACK,True,CORRECT,2.965565100001186,2965.565100001186
2,20260325_120617,D,J,False,CALIBRATION,1,233,233,staircase,,,0.027442261963506673,0.02648979591836738,0.001,0.004000000000000001,0.4725577380364933,1701,1899,0,,WHITE,,,0,,WHITE,True,CORRECT,1.845681999999215,1845.681999999215
2,20260325_120617,D,J,False,CALIBRATION,1,234,234,staircase,,,0.03322372879521705,0.025489795918367378,0.001,0.004000000000000001,0.5332237287952171,1920,1680,0,,BLACK,,,0,,BLACK,True,CORRECT,1.3281788999993296,1328.1788999993296
2,20260325_120617,D,J,False,CALIBRATION,1,235,235,staircase,,,0.015800160169492407,0.024489795918367377,0.001,0.004000000000000001,0.5158001601694924,1857,1743,0,,BLACK,,,0,,BLACK,True,CORRECT,1.512397400001646,1512.397400001646
2,20260325_120617,D,J,False,CALIBRATION,1,236,236,staircase,,,0.033857196247165225,0.028489795918367377,0.001,0.004000000000000001,0.4661428037528348,1678,1922,0,,WHITE,,,0,,BLACK,False,INCORRECT,2.7737417000007554,2773.7417000007554
2,20260325_120617,D,J,False,CALIBRATION,1,237,237,staircase,,,0.03621974261434098,0.027489795918367376,0.001,0.004000000000000001,0.46378025738565903,1670,1930,0,,WHITE,,,0,,WHITE,True,CORRECT,4.6058089999987715,4605.8089999987715
2,20260325_120617,D,J,False,CALIBRATION,1,238,238,staircase,,,0.01054216887095017,0.031489795918367376,0.001,0.004000000000000001,0.48945783112904984,1762,1838,0,,WHITE,,,0,,BLACK,False,INCORRECT,2.149704700001166,2149.704700001166
2,20260325_120617,D,J,False,CALIBRATION,1,239,239,staircase,,,0.03036669219755387,0.030489795918367375,0.001,0.004000000000000001,0.4696333078024461,1691,1909,0,,WHITE,,,0,,WHITE,True,CORRECT,1.02764070000012,1027.64070000012
2,20260325_120617,D,J,False,CALIBRATION,1,240,240,staircase,,,0.0353695988250868,0.03448979591836738,0.001,0.004000000000000001,0.5353695988250868,1927,1673,0,,BLACK,,,0,,WHITE,False,INCORRECT,6.19220150000001,6192.20150000001
2,20260325_120617,D,J,False,CALIBRATION,1,241,241,staircase,,,0.034214728103022694,0.03848979591836738,0.001,0.004000000000000001,0.4657852718969773,1677,1923,0,,WHITE,,,0,,BLACK,False,INCORRECT,4.878424100001212,4878.424100001212
2,20260325_120617,D,J,False,CALIBRATION,1,242,242,staircase,,,0.04320338580845406,0.03748979591836738,0.001,0.004000000000000001,0.5432033858084541,1956,1644,0,,BLACK,,,0,,BLACK,True,CORRECT,0.9150936999994883,915.0936999994883
2,20260325_120617,D,J,False,CALIBRATION,1,243,243,staircase,,,0.031520345343232316,0.03648979591836738,0.001,0.004000000000000001,0.5315203453432323,1913,1687,0,,BLACK,,,0,,BLACK,True,CORRECT,1.2415297999996255,1241.5297999996255
2,20260325_120617,D,J,False,CALIBRATION,1,244,244,staircase,,,0.03054349482872941,0.03548979591836738,0.001,0.004000000000000001,0.5305434948287294,1910,1690,0,,BLACK,,,0,,BLACK,True,CORRECT,1.619152999999642,1619.152999999642
2,20260325_120617,D,J,False,CALIBRATION,1,245,245,staircase,,,0.03205121487223068,0.03948979591836738,0.001,0.004000000000000001,0.5320512148722307,1915,1685,0,,BLACK,,,0,,WHITE,False,INCORRECT,2.221893899999486,2221.893899999486
2,20260325_120617,D,J,False,CALIBRATION,1,246,246,staircase,,,0.025875627002896105,0.03848979591836738,0.001,0.004000000000000001,0.5258756270028961,1893,1707,0,,BLACK,,,0,,BLACK,True,CORRECT,2.638882900000681,2638.882900000681
2,20260325_120617,D,J,False,CALIBRATION,1,247,247,staircase,,,0.049200305027962264,0.042489795918367386,0.001,0.004000000000000001,0.5492003050279622,1977,1623,0,,BLACK,,,0,,WHITE,False,INCORRECT,0.8020995999995648,802.0995999995648
2,20260325_120617,D,J,False,CALIBRATION,1,248,248,staircase,,,0.03655383178782337,0.041489795918367385,0.001,0.004000000000000001,0.46344616821217666,1668,1932,0,,WHITE,,,0,,WHITE,True,CORRECT,3.6027534999993804,3602.7534999993804
2,20260325_120617,D,J,False,CALIBRATION,1,249,249,staircase,,,0.02918066704283681,0.040489795918367384,0.001,0.004000000000000001,0.47081933295716316,1695,1905,0,,WHITE,,,0,,WHITE,True,CORRECT,3.3708147999986977,3370.8147999986977
2,20260325_120617,D,J,False,CALIBRATION,1,250,250,staircase,,,0.04067970772362007,0.03948979591836738,0.001,0.004000000000000001,0.45932029227637994,1654,1946,0,,WHITE,,,0,,WHITE,True,CORRECT,2.276581399999486,2276.581399999486
2,20260325_120617,D,J,False,CALIBRATION,1,251,251,staircase,,,0.03946444188443872,0.03848979591836738,0.001,0.004000000000000001,0.5394644418844388,1942,1658,0,,BLACK,,,0,,BLACK,True,CORRECT,1.0453182000001107,1045.3182000001107
2,20260325_120617,D,J,False,CALIBRATION,1,252,252,staircase,,,0.062065431854574235,0.042489795918367386,0.001,0.004000000000000001,0.5620654318545742,2023,1577,0,,BLACK,,,0,,WHITE,False,INCORRECT,3.644884400000592,3644.884400000592
2,20260325_120617,D,J,False,CALIBRATION,1,253,253,staircase,,,0.027470663465203736,0.041489795918367385,0.001,0.004000000000000001,0.4725293365347963,1701,1899,0,,WHITE,,,0,,WHITE,True,CORRECT,1.5796650999982376,1579.6650999982376
2,20260325_120617,D,J,False,CALIBRATION,1,254,254,staircase,,,0.05183502531491988,0.040489795918367384,0.001,0.004000000000000001,0.4481649746850801,1613,1987,0,,WHITE,,,0,,WHITE,True,CORRECT,1.4115911000008055,1411.5911000008055
2,20260325_120617,D,J,False,CALIBRATION,1,255,255,staircase,,,0.0325365670900849,0.03948979591836738,0.001,0.004000000000000001,0.5325365670900849,1917,1683,0,,BLACK,,,0,,BLACK,True,CORRECT,1.230222700000013,1230.222700000013
2,20260325_120617,D,J,False,CALIBRATION,1,256,256,staircase,,,0.04049845237492263,0.04348979591836739,0.001,0.004000000000000001,0.4595015476250774,1654,1946,0,,WHITE,,,0,,BLACK,False,INCORRECT,1.567499400000088,1567.499400000088
2,20260325_120617,D,J,False,CALIBRATION,1,257,257,staircase,,,0.039862601709213186,0.042489795918367386,0.001,0.004000000000000001,0.4601373982907868,1656,1944,0,,WHITE,,,0,,WHITE,True,CORRECT,1.5442610000009154,1544.2610000009154
2,20260325_120617,D,J,False,CALIBRATION,1,258,258,staircase,,,0.04132458849543087,0.041489795918367385,0.001,0.004000000000000001,0.5413245884954309,1949,1651,0,,BLACK,,,0,,BLACK,True,CORRECT,0.9864508999999089,986.4508999999089
2,20260325_120617,D,J,False,CALIBRATION,1,259,259,staircase,,,0.041847004222221,0.040489795918367384,0.001,0.004000000000000001,0.458152995777779,1649,1951,0,,WHITE,,,0,,WHITE,True,CORRECT,3.319812699999602,3319.812699999602
2,20260325_120617,D,J,False,CALIBRATION,1,260,260,staircase,,,0.027659562369815857,0.03948979591836738,0.001,0.004000000000000001,0.47234043763018413,1700,1900,0,,WHITE,,,0,,WHITE,True,CORRECT,2.338855899999544,2338.855899999544
2,20260325_120617,D,J,False,CALIBRATION,1,261,261,staircase,,,0.037789752126878635,0.04348979591836739,0.001,0.004000000000000001,0.46221024787312137,1664,1936,0,,WHITE,,,0,,BLACK,False,INCORRECT,1.3534308999987843,1353.4308999987843
2,20260325_120617,D,J,False,CALIBRATION,1,262,262,staircase,,,0.02946005260092744,0.042489795918367386,0.001,0.004000000000000001,0.47053994739907257,1694,1906,0,,WHITE,,,0,,WHITE,True,CORRECT,2.134055199998329,2134.055199998329
2,20260325_120617,D,J,False,CALIBRATION,1,263,263,staircase,,,0.03378180200255547,0.04648979591836739,0.001,0.004000000000000001,0.4662181979974445,1678,1922,0,,WHITE,,,0,,BLACK,False,INCORRECT,1.1372847000002366,1137.2847000002366
2,20260325_120617,D,J,False,CALIBRATION,1,264,264,staircase,,,0.048848735915408725,0.04548979591836739,0.001,0.004000000000000001,0.5488487359154087,1976,1624,0,,BLACK,,,0,,BLACK,True,CORRECT,3.5071083000002545,3507.1083000002545
2,20260325_120617,D,J,False,CALIBRATION,1,265,265,staircase,,,0.05054976406310367,0.04948979591836739,0.001,0.004000000000000001,0.5505497640631036,1982,1618,0,,BLACK,,,0,,WHITE,False,INCORRECT,5.468316500000583,5468.316500000583
2,20260325_120617,D,J,False,CALIBRATION,1,266,266,staircase,,,0.06630322100828553,0.04848979591836739,0.001,0.004000000000000001,0.5663032210082856,2039,1561,0,,BLACK,,,0,,BLACK,True,CORRECT,0.9291620999993029,929.1620999993029
2,20260325_120617,D,J,False,CALIBRATION,1,267,267,staircase,,,0.04060535587695089,0.04748979591836739,0.001,0.004000000000000001,0.4593946441230491,1654,1946,0,,WHITE,,,0,,WHITE,True,CORRECT,0.9189463000002434,918.9463000002434
2,20260325_120617,D,J,False,CALIBRATION,1,268,268,staircase,,,0.0497985372230399,0.04648979591836739,0.001,0.004000000000000001,0.54979853722304,1979,1621,0,,BLACK,,,0,,BLACK,True,CORRECT,1.3705171999990853,1370.5171999990853
2,20260325_120617,D,J,False,CALIBRATION,1,269,269,staircase,,,0.05559412179609086,0.04548979591836739,0.001,0.004000000000000001,0.5555941217960909,2000,1600,0,,BLACK,,,0,,BLACK,True,CORRECT,1.684553799999776,1684.553799999776
2,20260325_120617,D,J,False,CALIBRATION,1,270,270,staircase,,,0.06700027240448045,0.04448979591836739,0.001,0.004000000000000001,0.5670002724044805,2041,1559,0,,BLACK,,,0,,BLACK,True,CORRECT,2.1853238999992755,2185.3238999992755
2,20260325_120617,D,J,False,CALIBRATION,1,271,271,staircase,,,0.01871396281412033,0.04848979591836739,0.001,0.004000000000000001,0.5187139628141203,1867,1733,0,,BLACK,,,0,,WHITE,False,INCORRECT,2.5092451000000437,2509.2451000000437
2,20260325_120617,D,J,False,CALIBRATION,1,272,272,staircase,,,0.05468237267947147,0.04748979591836739,0.001,0.004000000000000001,0.44531762732052854,1603,1997,0,,WHITE,,,0,,WHITE,True,CORRECT,0.9533978999988904,953.3978999988904
2,20260325_120617,D,J,False,CALIBRATION,1,273,273,staircase,,,0.03373518605145846,0.051489795918367394,0.001,0.004000000000000001,0.4662648139485415,1679,1921,0,,WHITE,,,0,,BLACK,False,INCORRECT,1.0199797000004764,1019.9797000004764
2,20260325_120617,D,J,False,CALIBRATION,1,274,274,staircase,,,0.06269052032740938,0.05048979591836739,0.001,0.004000000000000001,0.5626905203274094,2026,1574,0,,BLACK,,,0,,BLACK,True,CORRECT,1.004374199999802,1004.3741999998019
2,20260325_120617,D,J,False,CALIBRATION,1,275,275,staircase,,,0.04552610950973083,0.0544897959183674,0.001,0.004000000000000001,0.5455261095097308,1964,1636,0,,BLACK,,,0,,WHITE,False,INCORRECT,5.310242899999139,5310.242899999139
2,20260325_120617,D,J,False,CALIBRATION,1,276,276,staircase,,,0.04755032649813226,0.053489795918367396,0.001,0.004000000000000001,0.4524496735018677,1629,1971,0,,WHITE,,,0,,WHITE,True,CORRECT,1.1536104000006162,1153.6104000006162
2,20260325_120617,D,J,False,CALIBRATION,1,277,277,staircase,,,0.06757491671623378,0.052489795918367395,0.001,0.004000000000000001,0.5675749167162338,2043,1557,0,,BLACK,,,0,,BLACK,True,CORRECT,0.8594935000000987,859.4935000000987
2,20260325_120617,D,J,False,CALIBRATION,1,278,278,staircase,,,0.05361843267656977,0.051489795918367394,0.001,0.004000000000000001,0.5536184326765697,1993,1607,0,,BLACK,,,0,,BLACK,True,CORRECT,2.105239900000015,2105.239900000015
2,20260325_120617,D,J,False,CALIBRATION,1,279,279,staircase,,,0.03210560591872219,0.05048979591836739,0.001,0.004000000000000001,0.5321056059187221,1916,1684,0,,BLACK,,,0,,BLACK,True,CORRECT,2.2209958999992523,2220.9958999992523
2,20260325_120617,D,J,False,CALIBRATION,1,280,280,staircase,,,0.044183325614858354,0.04948979591836739,0.001,0.004000000000000001,0.4558166743851416,1641,1959,0,,WHITE,,,0,,WHITE,True,CORRECT,6.924695800000336,6924.695800000336
2,20260325_120617,D,J,False,CALIBRATION,1,281,281,staircase,,,0.059742467716650635,0.053489795918367396,0.001,0.004000000000000001,0.44025753228334935,1585,2015,0,,WHITE,,,0,,BLACK,False,INCORRECT,1.2108345000015106,1210.8345000015106
2,20260325_120617,D,J,False,CALIBRATION,1,282,282,staircase,,,0.036065542757217434,0.052489795918367395,0.001,0.004000000000000001,0.4639344572427826,1670,1930,0,,WHITE,,,0,,WHITE,True,CORRECT,2.944923099999869,2944.923099999869
2,20260325_120617,D,J,False,CALIBRATION,1,283,283,staircase,,,0.06263546967088804,0.051489795918367394,0.001,0.004000000000000001,0.5626354696708881,2025,1575,0,,BLACK,,,0,,BLACK,True,CORRECT,2.198664599998665,2198.664599998665
2,20260325_120617,D,J,False,CALIBRATION,1,284,284,staircase,,,0.06022641082268716,0.05048979591836739,0.001,0.004000000000000001,0.43977358917731285,1583,2017,0,,WHITE,,,0,,WHITE,True,CORRECT,1.422069799999008,1422.069799999008
2,20260325_120617,D,J,False,CALIBRATION,1,285,285,staircase,,,0.04455368438710135,0.04948979591836739,0.001,0.004000000000000001,0.45544631561289867,1640,1960,0,,WHITE,,,0,,WHITE,True,CORRECT,2.583408299999064,2583.408299999064
2,20260325_120617,D,J,False,CALIBRATION,1,286,286,staircase,,,0.05357220019862321,0.04848979591836739,0.001,0.004000000000000001,0.5535722001986232,1993,1607,0,,BLACK,,,0,,BLACK,True,CORRECT,1.0448552999987442,1044.8552999987442
2,20260325_120617,D,J,False,CALIBRATION,1,287,287,staircase,,,0.03630080150578108,0.04748979591836739,0.001,0.004000000000000001,0.4636991984942189,1669,1931,0,,WHITE,,,0,,WHITE,True,CORRECT,3.5506709000001138,3550.6709000001138
2,20260325_120617,D,J,False,CALIBRATION,1,288,288,staircase,,,0.035005237215739254,0.04648979591836739,0.001,0.004000000000000001,0.5350052372157392,1926,1674,0,,BLACK,,,0,,BLACK,True,CORRECT,3.603135999999722,3603.135999999722
2,20260325_120617,D,J,False,CALIBRATION,1,289,289,staircase,,,0.057034758767132016,0.04548979591836739,0.001,0.004000000000000001,0.44296524123286796,1595,2005,0,,WHITE,,,0,,WHITE,True,CORRECT,0.8205529999995633,820.5529999995633
2,20260325_120617,D,J,False,CALIBRATION,1,290,290,staircase,,,0.03076343574838858,0.04948979591836739,0.001,0.004000000000000001,0.4692365642516114,1689,1911,0,,WHITE,,,0,,BLACK,False,INCORRECT,1.0246404999998049,1024.640499999805
2,20260325_120617,D,J,False,CALIBRATION,1,291,291,staircase,,,0.024021105784774625,0.04848979591836739,0.001,0.004000000000000001,0.4759788942152254,1714,1886,0,,WHITE,,,0,,WHITE,True,CORRECT,2.2081115000000864,2208.1115000000864
2,20260325_120617,D,J,False,CALIBRATION,1,292,292,staircase,,,0.045117655248098014,0.04748979591836739,0.001,0.004000000000000001,0.545117655248098,1962,1638,0,,BLACK,,,0,,BLACK,True,CORRECT,0.7968586000006326,796.8586000006326
2,20260325_120617,D,J,False,CALIBRATION,1,293,293,staircase,,,0.047884192961747056,0.04648979591836739,0.001,0.004000000000000001,0.45211580703825294,1628,1972,0,,WHITE,,,0,,WHITE,True,CORRECT,1.3362331999996968,1336.2331999996968
2,20260325_120617,D,J,False,CALIBRATION,1,294,294,staircase,,,0.04875356931147556,0.04548979591836739,0.001,0.004000000000000001,0.5487535693114756,1976,1624,0,,BLACK,,,0,,BLACK,True,CORRECT,0.7375449999999546,737.5449999999546
2,20260325_120617,D,J,False,CALIBRATION,1,295,295,staircase,,,0.056803910887693584,0.04448979591836739,0.001,0.004000000000000001,0.5568039108876935,2004,1596,0,,BLACK,,,0,,BLACK,True,CORRECT,0.6072124000002077,607.2124000002077
2,20260325_120617,D,J,False,CALIBRATION,1,296,296,staircase,,,0.04376144839649948,0.04348979591836739,0.001,0.004000000000000001,0.5437614483964994,1958,1642,0,,BLACK,,,0,,BLACK,True,CORRECT,0.5667228000002069,566.7228000002069
2,20260325_120617,D,J,False,CALIBRATION,1,297,297,staircase,,,0.021916023924546363,0.042489795918367386,0.001,0.004000000000000001,0.4780839760754536,1721,1879,0,,WHITE,,,0,,WHITE,True,CORRECT,1.6351040000008652,1635.1040000008652
2,20260325_120617,D,J,False,CALIBRATION,1,298,298,staircase,,,0.04510378037495834,0.041489795918367385,0.001,0.004000000000000001,0.4548962196250417,1638,1962,0,,WHITE,,,0,,WHITE,True,CORRECT,1.2560395000000426,1256.0395000000426
2,20260325_120617,D,J,False,CALIBRATION,1,299,299,staircase,,,0.04167954088204142,0.040489795918367384,0.001,0.004000000000000001,0.5416795408820414,1950,1650,0,,BLACK,,,0,,BLACK,True,CORRECT,1.4430580999996891,1443.0580999996891
2,20260325_120617,D,J,False,CALIBRATION,1,300,300,staircase,,,0.023684442786758055,0.04448979591836739,0.001,0.004000000000000001,0.4763155572132419,1715,1885,0,,WHITE,,,0,,BLACK,False,INCORRECT,1.1846203999994032,1184.6203999994032
2,20260325_120617,D,J,False,MANUAL,2,1,301,fixed_delta,0.04010600706829564,0.013286393218712247,,,,,0.4483904814194343,1614,1986,0,,WHITE,,,0,,WHITE,True,CORRECT,1.8756400000002031,1875.6400000002031
2,20260325_120617,D,J,False,MANUAL,2,2,302,fixed_delta,0.04010600706829564,0.013286393218712247,,,,,0.535315492342239,1927,1673,0,,BLACK,,,0,,BLACK,True,CORRECT,3.3823804000003292,3382.3804000003292
2,20260325_120617,D,J,False,MANUAL,2,3,303,fixed_delta,0.04010600706829564,0.013286393218712247,,,,,0.47041449638929134,1693,1907,0,,WHITE,,,0,,WHITE,True,CORRECT,0.9221328000003268,922.1328000003268
2,20260325_120617,D,J,False,MANUAL,2,4,304,fixed_delta,0.04010600706829564,0.013286393218712247,,,,,0.5213255344202525,1877,1723,0,,BLACK,,,0,,BLACK,True,CORRECT,1.6711108999988937,1671.1108999988937
2,20260325_120617,D,J,False,MANUAL,2,5,305,fixed_delta,0.04010600706829564,0.013286393218712247,,,,,0.5371260337729682,1934,1666,0,,BLACK,,,0,,WHITE,False,INCORRECT,0.8603485000003275,860.3485000003275
2,20260325_120617,D,J,False,MANUAL,2,6,306,fixed_delta,0.04010600706829564,0.013286393218712247,,,,,0.5253668071173587,1891,1709,0,,BLACK,,,0,,BLACK,True,CORRECT,1.3889591000006476,1388.9591000006476
2,20260325_120617,D,J,False,MANUAL,2,7,307,fixed_delta,0.04010600706829564,0.013286393218712247,,,,,0.5302769646701526,1909,1691,0,,BLACK,,,0,,BLACK,True,CORRECT,0.9147988000004261,914.7988000004261
2,20260325_120617,D,J,False,MANUAL,2,8,308,fixed_delta,0.04010600706829564,0.013286393218712247,,,,,0.4409493132457323,1587,2013,0,,WHITE,,,0,,WHITE,True,CORRECT,0.5798594000007142,579.8594000007142
2,20260325_120617,D,J,False,MANUAL,2,9,309,fixed_delta,0.04010600706829564,0.013286393218712247,,,,,0.4628453795797027,1666,1934,0,,WHITE,,,0,,BLACK,False,INCORRECT,1.2000497999997606,1200.0497999997606
2,20260325_120617,D,J,False,MANUAL,2,10,310,fixed_delta,0.04010600706829564,0.013286393218712247,,,,,0.534815252385079,1925,1675,0,,BLACK,,,0,,BLACK,True,CORRECT,1.1534856999987824,1153.4856999987824
2,20260325_120617,D,J,False,MANUAL,2,11,311,fixed_delta,0.04010600706829564,0.013286393218712247,,,,,0.5181656595959004,1865,1735,0,,BLACK,,,0,,WHITE,False,INCORRECT,1.716131499999392,1716.131499999392
2,20260325_120617,D,J,False,MANUAL,2,12,312,fixed_delta,0.04010600706829564,0.013286393218712247,,,,,0.46249134679886006,1665,1935,0,,WHITE,,,0,,WHITE,True,CORRECT,0.834836500000165,834.836500000165
2,20260325_120617,D,J,False,MANUAL,2,13,313,fixed_delta,0.04010600706829564,0.013286393218712247,,,,,0.5201361415062826,1872,1728,0,,BLACK,,,0,,BLACK,True,CORRECT,1.2743004000003566,1274.3004000003566
2,20260325_120617,D,J,False,MANUAL,2,14,314,fixed_delta,0.04010600706829564,0.013286393218712247,,,,,0.46588176683525295,1677,1923,0,,WHITE,,,0,,WHITE,True,CORRECT,0.7567853999989893,756.7853999989893
2,20260325_120617,D,J,False,MANUAL,2,15,315,fixed_delta,0.04010600706829564,0.013286393218712247,,,,,0.47175869061753756,1698,1902,0,,WHITE,,,0,,WHITE,True,CORRECT,1.7219875000009779,1721.987500000978
2,20260325_120617,D,J,False,MANUAL,2,16,316,fixed_delta,0.04010600706829564,0.013286393218712247,,,,,0.44506177349921444,1602,1998,0,,WHITE,,,0,,WHITE,True,CORRECT,1.6070529999997234,1607.0529999997234
2,20260325_120617,D,J,False,MANUAL,2,17,317,fixed_delta,0.04010600706829564,0.013286393218712247,,,,,0.5556553151002818,2000,1600,0,,BLACK,,,0,,BLACK,True,CORRECT,0.8371831999993447,837.1831999993447
2,20260325_120617,D,J,False,MANUAL,2,18,318,fixed_delta,0.04010600706829564,0.013286393218712247,,,,,0.5494129830531865,1978,1622,0,,BLACK,,,0,,BLACK,True,CORRECT,0.8287712999990617,828.7712999990617
2,20260325_120617,D,J,False,MANUAL,2,19,319,fixed_delta,0.04010600706829564,0.013286393218712247,,,,,0.45380467596544416,1634,1966,0,,WHITE,,,0,,WHITE,True,CORRECT,2.9119494000005943,2911.9494000005943
2,20260325_120617,D,J,False,MANUAL,2,20,320,fixed_delta,0.04010600706829564,0.013286393218712247,,,,,0.5425350902022118,1953,1647,0,,BLACK,,,0,,BLACK,True,CORRECT,1.7849528999995528,1784.9528999995528
2,20260325_120617,D,J,False,MANUAL,2,21,321,fixed_delta,0.04010600706829564,0.013286393218712247,,,,,0.5458856408171394,1965,1635,0,,BLACK,,,0,,BLACK,True,CORRECT,1.1861631000010675,1186.1631000010675
2,20260325_120617,D,J,False,MANUAL,2,22,322,fixed_delta,0.04010600706829564,0.013286393218712247,,,,,0.4539113820808975,1634,1966,0,,WHITE,,,0,,WHITE,True,CORRECT,1.4327428000015061,1432.742800001506
2,20260325_120617,D,J,False,MANUAL,2,23,323,fixed_delta,0.04010600706829564,0.013286393218712247,,,,,0.5265991147491688,1896,1704,0,,BLACK,,,0,,BLACK,True,CORRECT,3.6411637000001065,3641.1637000001065
2,20260325_120617,D,J,False,MANUAL,2,24,324,fixed_delta,0.04010600706829564,0.013286393218712247,,,,,0.5425157336657049,1953,1647,0,,BLACK,,,0,,BLACK,True,CORRECT,2.536005699999805,2536.005699999805
2,20260325_120617,D,J,False,MANUAL,2,25,325,fixed_delta,0.04010600706829564,0.013286393218712247,,,,,0.4740013425865839,1706,1894,0,,WHITE,,,0,,WHITE,True,CORRECT,3.2651054999987537,3265.1054999987537
2,20260325_120617,D,J,False,MANUAL,2,26,326,fixed_delta,0.04010600706829564,0.013286393218712247,,,,,0.44413534139871935,1599,2001,0,,WHITE,,,0,,WHITE,True,CORRECT,1.7920883999995567,1792.0883999995567
2,20260325_120617,D,J,False,MANUAL,2,27,327,fixed_delta,0.04010600706829564,0.013286393218712247,,,,,0.4611188046436076,1660,1940,0,,WHITE,,,0,,WHITE,True,CORRECT,2.9431746999998722,2943.1746999998722
2,20260325_120617,D,J,False,MANUAL,2,28,328,fixed_delta,0.04010600706829564,0.013286393218712247,,,,,0.4702548192888038,1693,1907,0,,WHITE,,,0,,WHITE,True,CORRECT,1.9761710000002495,1976.1710000002495
2,20260325_120617,D,J,False,MANUAL,2,29,329,fixed_delta,0.04010600706829564,0.013286393218712247,,,,,0.4706172435521675,1694,1906,0,,WHITE,,,0,,BLACK,False,INCORRECT,1.8257069999999658,1825.7069999999658
2,20260325_120617,D,J,False,MANUAL,2,30,330,fixed_delta,0.04010600706829564,0.013286393218712247,,,,,0.5374365445787824,1935,1665,0,,BLACK,,,0,,WHITE,False,INCORRECT,2.296128600000884,2296.128600000884
2,20260325_120617,D,J,False,MANUAL,2,31,331,fixed_delta,0.04010600706829564,0.013286393218712247,,,,,0.47224681168700916,1700,1900,0,,WHITE,,,0,,WHITE,True,CORRECT,3.9561412000002747,3956.1412000002747
2,20260325_120617,D,J,False,MANUAL,2,32,332,fixed_delta,0.04010600706829564,0.013286393218712247,,,,,0.48278272404635064,1738,1862,0,,WHITE,,,0,,WHITE,True,CORRECT,1.283063900000343,1283.063900000343
2,20260325_120617,D,J,False,MANUAL,2,33,333,fixed_delta,0.04010600706829564,0.013286393218712247,,,,,0.44924250827047446,1617,1983,0,,WHITE,,,0,,WHITE,True,CORRECT,1.2288981999990938,1228.8981999990938
2,20260325_120617,D,J,False,MANUAL,2,34,334,fixed_delta,0.04010600706829564,0.013286393218712247,,,,,0.5301996793932477,1909,1691,0,,BLACK,,,0,,BLACK,True,CORRECT,0.671249799999714,671.249799999714
2,20260325_120617,D,J,False,MANUAL,2,35,335,fixed_delta,0.04010600706829564,0.013286393218712247,,,,,0.4507306513203368,1623,1977,0,,WHITE,,,0,,WHITE,True,CORRECT,4.706528300001082,4706.528300001082
2,20260325_120617,D,J,False,MANUAL,2,36,336,fixed_delta,0.04010600706829564,0.013286393218712247,,,,,0.4546680214156235,1637,1963,0,,WHITE,,,0,,BLACK,False,INCORRECT,2.343790499999159,2343.790499999159
2,20260325_120617,D,J,False,MANUAL,2,37,337,fixed_delta,0.04010600706829564,0.013286393218712247,,,,,0.45273906986681894,1630,1970,0,,WHITE,,,0,,WHITE,True,CORRECT,2.034923600000184,2034.9236000001838
2,20260325_120617,D,J,False,MANUAL,2,38,338,fixed_delta,0.04010600706829564,0.013286393218712247,,,,,0.539696165023042,1943,1657,0,,BLACK,,,0,,BLACK,True,CORRECT,0.8651561000006041,865.156100000604
2,20260325_120617,D,J,False,MANUAL,2,39,339,fixed_delta,0.04010600706829564,0.013286393218712247,,,,,0.4597392726069424,1655,1945,0,,WHITE,,,0,,WHITE,True,CORRECT,1.2312402999996266,1231.2402999996266
2,20260325_120617,D,J,False,MANUAL,2,40,340,fixed_delta,0.04010600706829564,0.013286393218712247,,,,,0.5334485307262373,1920,1680,0,,BLACK,,,0,,BLACK,True,CORRECT,1.2778687000009086,1277.8687000009086
2,20260325_120617,D,J,False,MANUAL,2,41,341,fixed_delta,0.04010600706829564,0.013286393218712247,,,,,0.4449468241067329,1602,1998,0,,WHITE,,,0,,WHITE,True,CORRECT,1.7280487999996694,1728.0487999996694
2,20260325_120617,D,J,False,MANUAL,2,42,342,fixed_delta,0.04010600706829564,0.013286393218712247,,,,,0.4660606410242279,1678,1922,0,,WHITE,,,0,,WHITE,True,CORRECT,0.8657885000011447,865.7885000011447
2,20260325_120617,D,J,False,MANUAL,2,43,343,fixed_delta,0.04010600706829564,0.013286393218712247,,,,,0.46936211523889093,1690,1910,0,,WHITE,,,0,,BLACK,False,INCORRECT,1.1880142999998498,1188.0142999998498
2,20260325_120617,D,J,False,MANUAL,2,44,344,fixed_delta,0.04010600706829564,0.013286393218712247,,,,,0.45405475067412737,1635,1965,0,,WHITE,,,0,,WHITE,True,CORRECT,1.3943407999995543,1394.3407999995543
2,20260325_120617,D,J,False,MANUAL,2,45,345,fixed_delta,0.04010600706829564,0.013286393218712247,,,,,0.553883871018495,1994,1606,0,,BLACK,,,0,,BLACK,True,CORRECT,0.7944848000006459,794.4848000006459
2,20260325_120617,D,J,False,MANUAL,2,46,346,fixed_delta,0.04010600706829564,0.013286393218712247,,,,,0.547880507807444,1972,1628,0,,BLACK,,,0,,BLACK,True,CORRECT,0.7985122000009142,798.5122000009142
2,20260325_120617,D,J,False,MANUAL,2,47,347,fixed_delta,0.04010600706829564,0.013286393218712247,,,,,0.4680860430853091,1685,1915,0,,WHITE,,,0,,WHITE,True,CORRECT,0.8283116000002337,828.3116000002337
2,20260325_120617,D,J,False,MANUAL,2,48,348,fixed_delta,0.04010600706829564,0.013286393218712247,,,,,0.5438589984161318,1958,1642,0,,BLACK,,,0,,BLACK,True,CORRECT,1.235604899999089,1235.604899999089
2,20260325_120617,D,J,False,MANUAL,2,49,349,fixed_delta,0.04010600706829564,0.013286393218712247,,,,,0.4625582832242312,1665,1935,0,,WHITE,,,0,,WHITE,True,CORRECT,0.7664217000001372,766.4217000001372
2,20260325_120617,D,J,False,MANUAL,2,50,350,fixed_delta,0.04010600706829564,0.013286393218712247,,,,,0.5520512766173847,1987,1613,0,,BLACK,,,0,,BLACK,True,CORRECT,0.8718040000003384,871.8040000003384
2,20260325_120617,D,J,False,MANUAL,2,51,351,fixed_delta,0.04010600706829564,0.013286393218712247,,,,,0.5630256663477168,2027,1573,0,,BLACK,,,0,,BLACK,True,CORRECT,0.9005970999987767,900.5970999987767
2,20260325_120617,D,J,False,MANUAL,2,52,352,fixed_delta,0.04010600706829564,0.013286393218712247,,,,,0.5540704334262718,1995,1605,0,,BLACK,,,0,,BLACK,True,CORRECT,0.9526473000005353,952.6473000005353
2,20260325_120617,D,J,False,MANUAL,2,53,353,fixed_delta,0.04010600706829564,0.013286393218712247,,,,,0.46107385880025303,1660,1940,0,,WHITE,,,0,,WHITE,True,CORRECT,0.7428469999995286,742.8469999995286
2,20260325_120617,D,J,False,MANUAL,2,54,354,fixed_delta,0.04010600706829564,0.013286393218712247,,,,,0.5492305592450788,1977,1623,0,,BLACK,,,0,,BLACK,True,CORRECT,0.9290137999996659,929.0137999996659
2,20260325_120617,D,J,False,MANUAL,2,55,355,fixed_delta,0.04010600706829564,0.013286393218712247,,,,,0.49972222222222223,1799,1801,0,,WHITE,,,0,,BLACK,False,INCORRECT,0.9747829999996611,974.7829999996611
2,20260325_120617,D,J,False,MANUAL,2,56,356,fixed_delta,0.04010600706829564,0.013286393218712247,,,,,0.4466608479342782,1608,1992,0,,WHITE,,,0,,WHITE,True,CORRECT,0.9521789999998873,952.1789999998873
2,20260325_120617,D,J,False,MANUAL,2,57,357,fixed_delta,0.04010600706829564,0.013286393218712247,,,,,0.4419455891815308,1591,2009,0,,WHITE,,,0,,WHITE,True,CORRECT,2.4253987000010966,2425.3987000010966
2,20260325_120617,D,J,False,MANUAL,2,58,358,fixed_delta,0.04010600706829564,0.013286393218712247,,,,,0.4744021414910656,1708,1892,0,,WHITE,,,0,,BLACK,False,INCORRECT,1.1638715999997657,1163.8715999997657
2,20260325_120617,D,J,False,MANUAL,2,59,359,fixed_delta,0.04010600706829564,0.013286393218712247,,,,,0.468012467208653,1685,1915,0,,WHITE,,,0,,WHITE,True,CORRECT,2.3981741000006878,2398.1741000006878
2,20260325_120617,D,J,False,MANUAL,2,60,360,fixed_delta,0.04010600706829564,0.013286393218712247,,,,,0.5565400207926672,2004,1596,0,,BLACK,,,0,,BLACK,True,CORRECT,0.598531900001035,598.531900001035
2,20260325_120617,D,J,False,MANUAL,2,61,361,fixed_delta,0.04010600706829564,0.013286393218712247,,,,,0.4572068216130469,1646,1954,0,,WHITE,,,0,,WHITE,True,CORRECT,2.2371751999999105,2237.1751999999105
2,20260325_120617,D,J,False,MANUAL,2,62,362,fixed_delta,0.04010600706829564,0.013286393218712247,,,,,0.4628067174231699,1666,1934,0,,WHITE,,,0,,WHITE,True,CORRECT,3.008692499999597,3008.692499999597
2,20260325_120617,D,J,False,MANUAL,2,63,363,fixed_delta,0.04010600706829564,0.013286393218712247,,,,,0.4601611402417431,1657,1943,0,,WHITE,,,0,,BLACK,False,INCORRECT,1.0358582000008028,1035.8582000008028
2,20260325_120617,D,J,False,MANUAL,2,64,364,fixed_delta,0.04010600706829564,0.013286393218712247,,,,,0.5369214690505177,1933,1667,0,,BLACK,,,0,,BLACK,True,CORRECT,0.6936977999994269,693.6977999994269
2,20260325_120617,D,J,False,MANUAL,2,65,365,fixed_delta,0.04010600706829564,0.013286393218712247,,,,,0.5466736826027858,1968,1632,0,,BLACK,,,0,,BLACK,True,CORRECT,0.6168362000007619,616.8362000007619
2,20260325_120617,D,J,False,MANUAL,2,66,366,fixed_delta,0.04010600706829564,0.013286393218712247,,,,,0.5665001678842613,2039,1561,0,,BLACK,,,0,,BLACK,True,CORRECT,0.8708753000009892,870.8753000009892
2,20260325_120617,D,J,False,MANUAL,2,67,367,fixed_delta,0.04010600706829564,0.013286393218712247,,,,,0.4378190951321049,1576,2024,0,,WHITE,,,0,,WHITE,True,CORRECT,0.6276906000002782,627.6906000002782
2,20260325_120617,D,J,False,MANUAL,2,68,368,fixed_delta,0.04010600706829564,0.013286393218712247,,,,,0.4597291825449231,1655,1945,0,,WHITE,,,0,,WHITE,True,CORRECT,1.4575666999990062,1457.5666999990062
2,20260325_120617,D,J,False,MANUAL,2,69,369,fixed_delta,0.04010600706829564,0.013286393218712247,,,,,0.4660188126411633,1678,1922,0,,WHITE,,,0,,WHITE,True,CORRECT,0.9362681999991764,936.2681999991764
2,20260325_120617,D,J,False,MANUAL,2,70,370,fixed_delta,0.04010600706829564,0.013286393218712247,,,,,0.4958177617463212,1785,1815,0,,WHITE,,,0,,WHITE,True,CORRECT,0.7648265999996511,764.8265999996511
2,20260325_120617,D,J,False,MANUAL,2,71,371,fixed_delta,0.04010600706829564,0.013286393218712247,,,,,0.4219569706145811,1519,2081,0,,WHITE,,,0,,WHITE,True,CORRECT,0.6940776000010374,694.0776000010374
2,20260325_120617,D,J,False,MANUAL,2,72,372,fixed_delta,0.04010600706829564,0.013286393218712247,,,,,0.5386969759175187,1939,1661,0,,BLACK,,,0,,BLACK,True,CORRECT,0.7388343999991775,738.8343999991775
2,20260325_120617,D,J,False,MANUAL,2,73,373,fixed_delta,0.04010600706829564,0.013286393218712247,,,,,0.4871665409664881,1754,1846,0,,WHITE,,,0,,WHITE,True,CORRECT,1.0522843999988254,1052.2843999988254
2,20260325_120617,D,J,False,MANUAL,2,74,374,fixed_delta,0.04010600706829564,0.013286393218712247,,,,,0.5633578633457053,2028,1572,0,,BLACK,,,0,,BLACK,True,CORRECT,0.5530324999999721,553.0324999999721
2,20260325_120617,D,J,False,MANUAL,2,75,375,fixed_delta,0.04010600706829564,0.013286393218712247,,,,,0.44087682265473294,1587,2013,0,,WHITE,,,0,,WHITE,True,CORRECT,0.5677309999991849,567.7309999991849
2,20260325_120617,D,J,False,MANUAL,2,76,376,fixed_delta,0.04010600706829564,0.013286393218712247,,,,,0.45688050156465176,1645,1955,0,,WHITE,,,0,,BLACK,False,INCORRECT,0.40321440000116127,403.21440000116127
2,20260325_120617,D,J,False,MANUAL,2,77,377,fixed_delta,0.04010600706829564,0.013286393218712247,,,,,0.5235227657610467,1885,1715,0,,BLACK,,,0,,BLACK,True,CORRECT,0.6041924999990442,604.1924999990442
2,20260325_120617,D,J,False,MANUAL,2,78,378,fixed_delta,0.04010600706829564,0.013286393218712247,,,,,0.449229442608459,1617,1983,0,,WHITE,,,0,,WHITE,True,CORRECT,1.3995259000002989,1399.5259000002989
2,20260325_120617,D,J,False,MANUAL,2,79,379,fixed_delta,0.04010600706829564,0.013286393218712247,,,,,0.5343130046752345,1924,1676,0,,BLACK,,,0,,BLACK,True,CORRECT,0.9198906999990868,919.8906999990868
2,20260325_120617,D,J,False,MANUAL,2,80,380,fixed_delta,0.04010600706829564,0.013286393218712247,,,,,0.5507314854135892,1983,1617,0,,BLACK,,,0,,WHITE,False,INCORRECT,1.2342580999993515,1234.2580999993515
2,20260325_120617,D,J,False,MANUAL,2,81,381,fixed_delta,0.04010600706829564,0.013286393218712247,,,,,0.537811370240945,1936,1664,0,,BLACK,,,0,,BLACK,True,CORRECT,4.008987100000013,4008.987100000013
2,20260325_120617,D,J,False,MANUAL,2,82,382,fixed_delta,0.04010600706829564,0.013286393218712247,,,,,0.5358600412831558,1929,1671,0,,BLACK,,,0,,WHITE,False,INCORRECT,2.7166668999998365,2716.6668999998365
2,20260325_120617,D,J,False,MANUAL,2,83,383,fixed_delta,0.04010600706829564,0.013286393218712247,,,,,0.5451001708338968,1962,1638,0,,BLACK,,,0,,BLACK,True,CORRECT,0.582930500000657,582.930500000657
2,20260325_120617,D,J,False,MANUAL,2,84,384,fixed_delta,0.04010600706829564,0.013286393218712247,,,,,0.46795283107015406,1685,1915,0,,WHITE,,,0,,WHITE,True,CORRECT,2.4238108999998076,2423.8108999998076
2,20260325_120617,D,J,False,MANUAL,2,85,385,fixed_delta,0.04010600706829564,0.013286393218712247,,,,,0.5567013218215425,2004,1596,0,,BLACK,,,0,,BLACK,True,CORRECT,1.008954700000686,1008.954700000686
2,20260325_120617,D,J,False,MANUAL,2,86,386,fixed_delta,0.04010600706829564,0.013286393218712247,,,,,0.5293362722392965,1906,1694,0,,BLACK,,,0,,BLACK,True,CORRECT,2.4601952000011806,2460.1952000011806
2,20260325_120617,D,J,False,MANUAL,2,87,387,fixed_delta,0.04010600706829564,0.013286393218712247,,,,,0.5551935452215575,1999,1601,0,,BLACK,,,0,,BLACK,True,CORRECT,1.10499130000062,1104.99130000062
2,20260325_120617,D,J,False,MANUAL,2,88,388,fixed_delta,0.04010600706829564,0.013286393218712247,,,,,0.5509789966615609,1984,1616,0,,BLACK,,,0,,BLACK,True,CORRECT,0.7639278000006016,763.9278000006016
2,20260325_120617,D,J,False,MANUAL,2,89,389,fixed_delta,0.04010600706829564,0.013286393218712247,,,,,0.4686752526950453,1687,1913,0,,WHITE,,,0,,WHITE,True,CORRECT,0.4385180000008404,438.5180000008404
2,20260325_120617,D,J,False,MANUAL,2,90,390,fixed_delta,0.04010600706829564,0.013286393218712247,,,,,0.45860607290432465,1651,1949,0,,WHITE,,,0,,WHITE,True,CORRECT,0.5821295000005193,582.1295000005193
2,20260325_120617,D,J,False,MANUAL,2,91,391,fixed_delta,0.04010600706829564,0.013286393218712247,,,,,0.4634860076363095,1669,1931,0,,WHITE,,,0,,WHITE,True,CORRECT,0.6434292000012647,643.4292000012647
2,20260325_120617,D,J,False,MANUAL,2,92,392,fixed_delta,0.04010600706829564,0.013286393218712247,,,,,0.4402892880551024,1585,2015,0,,WHITE,,,0,,WHITE,True,CORRECT,0.6713620000009541,671.3620000009541
2,20260325_120617,D,J,False,MANUAL,2,93,393,fixed_delta,0.04010600706829564,0.013286393218712247,,,,,0.54353899258758,1957,1643,0,,BLACK,,,0,,BLACK,True,CORRECT,0.6499053999996249,649.9053999996249
2,20260325_120617,D,J,False,MANUAL,2,94,394,fixed_delta,0.04010600706829564,0.013286393218712247,,,,,0.5441515827984367,1959,1641,0,,BLACK,,,0,,BLACK,True,CORRECT,1.6437810999996145,1643.7810999996145
2,20260325_120617,D,J,False,MANUAL,2,95,395,fixed_delta,0.04010600706829564,0.013286393218712247,,,,,0.5430963531419183,1955,1645,0,,BLACK,,,0,,BLACK,True,CORRECT,0.64054810000016,640.54810000016
2,20260325_120617,D,J,False,MANUAL,2,96,396,fixed_delta,0.04010600706829564,0.013286393218712247,,,,,0.5377267869924136,1936,1664,0,,BLACK,,,0,,BLACK,True,CORRECT,0.9090543999991496,909.0543999991496
2,20260325_120617,D,J,False,MANUAL,2,97,397,fixed_delta,0.04010600706829564,0.013286393218712247,,,,,0.44241031862983654,1593,2007,0,,WHITE,,,0,,WHITE,True,CORRECT,0.6218621000007261,621.8621000007261
2,20260325_120617,D,J,False,MANUAL,2,98,398,fixed_delta,0.04010600706829564,0.013286393218712247,,,,,0.5365907304679074,1932,1668,0,,BLACK,,,0,,BLACK,True,CORRECT,0.7723540999995748,772.3540999995748
2,20260325_120617,D,J,False,MANUAL,2,99,399,fixed_delta,0.04010600706829564,0.013286393218712247,,,,,0.4513920749717856,1625,1975,0,,WHITE,,,0,,WHITE,True,CORRECT,0.6579756000010093,657.9756000010093
2,20260325_120617,D,J,False,MANUAL,2,100,400,fixed_delta,0.04010600706829564,0.013286393218712247,,,,,0.47062133068992684,1694,1906,0,,WHITE,,,0,,WHITE,True,CORRECT,0.7574421999997867,757.4421999997867
2,20260325_120617,D,J,False,MANUAL,2,101,401,fixed_delta,0.04010600706829564,0.013286393218712247,,,,,0.475847468379474,1713,1887,0,,WHITE,,,0,,BLACK,False,INCORRECT,0.6401430999994773,640.1430999994773
2,20260325_120617,D,J,False,MANUAL,2,102,402,fixed_delta,0.04010600706829564,0.013286393218712247,,,,,0.524883980183554,1890,1710,0,,BLACK,,,0,,BLACK,True,CORRECT,0.7731894999997166,773.1894999997166
2,20260325_120617,D,J,False,MANUAL,2,103,403,fixed_delta,0.04010600706829564,0.013286393218712247,,,,,0.5331466549937874,1919,1681,0,,BLACK,,,0,,BLACK,True,CORRECT,1.1637491000001319,1163.7491000001319
2,20260325_120617,D,J,False,MANUAL,2,104,404,fixed_delta,0.04010600706829564,0.013286393218712247,,,,,0.46990343422195013,1692,1908,0,,WHITE,,,0,,WHITE,True,CORRECT,0.8230898000001616,823.0898000001616
2,20260325_120617,D,J,False,MANUAL,2,105,405,fixed_delta,0.04010600706829564,0.013286393218712247,,,,,0.5273820609198479,1899,1701,0,,BLACK,,,0,,BLACK,True,CORRECT,0.9078387999998085,907.8387999998085
2,20260325_120617,D,J,False,MANUAL,2,106,406,fixed_delta,0.04010600706829564,0.013286393218712247,,,,,0.4434313429128016,1596,2004,0,,WHITE,,,0,,WHITE,True,CORRECT,0.868507099999988,868.507099999988
2,20260325_120617,D,J,False,MANUAL,2,107,407,fixed_delta,0.04010600706829564,0.013286393218712247,,,,,0.5653589727794738,2035,1565,0,,BLACK,,,0,,BLACK,True,CORRECT,1.6912110000012035,1691.2110000012035
2,20260325_120617,D,J,False,MANUAL,2,108,408,fixed_delta,0.04010600706829564,0.013286393218712247,,,,,0.4321372252906618,1556,2044,0,,WHITE,,,0,,WHITE,True,CORRECT,1.6215864999994665,1621.5864999994665
2,20260325_120617,D,J,False,MANUAL,2,109,409,fixed_delta,0.04010600706829564,0.013286393218712247,,,,,0.5472265839230119,1970,1630,0,,BLACK,,,0,,BLACK,True,CORRECT,2.1851365999991685,2185.1365999991685
2,20260325_120617,D,J,False,MANUAL,2,110,410,fixed_delta,0.04010600706829564,0.013286393218712247,,,,,0.4560534630524034,1642,1958,0,,WHITE,,,0,,WHITE,True,CORRECT,2.3394281000000774,2339.4281000000774
2,20260325_120617,D,J,False,MANUAL,2,111,411,fixed_delta,0.04010600706829564,0.013286393218712247,,,,,0.5349584218114573,1926,1674,0,,BLACK,,,0,,BLACK,True,CORRECT,0.7423397999991721,742.3397999991721
2,20260325_120617,D,J,False,MANUAL,2,112,412,fixed_delta,0.04010600706829564,0.013286393218712247,,,,,0.4602165685886627,1657,1943,0,,WHITE,,,0,,WHITE,True,CORRECT,0.8637777999992977,863.7777999992977
2,20260325_120617,D,J,False,MANUAL,2,113,413,fixed_delta,0.04010600706829564,0.013286393218712247,,,,,0.4654527966890473,1676,1924,0,,WHITE,,,0,,WHITE,True,CORRECT,0.8082683000011457,808.2683000011457
2,20260325_120617,D,J,False,MANUAL,2,114,414,fixed_delta,0.04010600706829564,0.013286393218712247,,,,,0.5367709932532297,1932,1668,0,,BLACK,,,0,,BLACK,True,CORRECT,0.7358898000002227,735.8898000002227
2,20260325_120617,D,J,False,MANUAL,2,115,415,fixed_delta,0.04010600706829564,0.013286393218712247,,,,,0.5353058009565853,1927,1673,0,,BLACK,,,0,,BLACK,True,CORRECT,1.1366264000007504,1136.6264000007504
2,20260325_120617,D,J,False,MANUAL,2,116,416,fixed_delta,0.04010600706829564,0.013286393218712247,,,,,0.5523467649613873,1988,1612,0,,BLACK,,,0,,BLACK,True,CORRECT,1.7335751999999047,1733.5751999999047
2,20260325_120617,D,J,False,MANUAL,2,117,417,fixed_delta,0.04010600706829564,0.013286393218712247,,,,,0.5145934722238389,1853,1747,0,,BLACK,,,0,,BLACK,True,CORRECT,1.825389700001324,1825.389700001324
2,20260325_120617,D,J,False,MANUAL,2,118,418,fixed_delta,0.04010600706829564,0.013286393218712247,,,,,0.4648146659174993,1673,1927,0,,WHITE,,,0,,WHITE,True,CORRECT,2.1214830999997503,2121.4830999997503
2,20260325_120617,D,J,False,MANUAL,2,119,419,fixed_delta,0.04010600706829564,0.013286393218712247,,,,,0.44531000558647316,1603,1997,0,,WHITE,,,0,,WHITE,True,CORRECT,2.2471395999982633,2247.1395999982633
2,20260325_120617,D,J,False,MANUAL,2,120,420,fixed_delta,0.04010600706829564,0.013286393218712247,,,,,0.4439489198443619,1598,2002,0,,WHITE,,,0,,WHITE,True,CORRECT,2.6434506999994483,2643.4506999994483
2,20260325_120617,D,J,False,MANUAL,2,121,421,fixed_delta,0.04010600706829564,0.013286393218712247,,,,,0.5575772848697965,2007,1593,0,,BLACK,,,0,,BLACK,True,CORRECT,0.8064082999990205,806.4082999990205
2,20260325_120617,D,J,False,MANUAL,2,122,422,fixed_delta,0.04010600706829564,0.013286393218712247,,,,,0.5264981129504825,1895,1705,0,,BLACK,,,0,,BLACK,True,CORRECT,0.5114373999986128,511.4373999986128
2,20260325_120617,D,J,False,MANUAL,2,123,423,fixed_delta,0.04010600706829564,0.013286393218712247,,,,,0.5336267177227094,1921,1679,0,,BLACK,,,0,,BLACK,True,CORRECT,0.5262975999994524,526.2975999994524
2,20260325_120617,D,J,False,MANUAL,2,124,424,fixed_delta,0.04010600706829564,0.013286393218712247,,,,,0.47997470653749486,1728,1872,0,,WHITE,,,0,,BLACK,False,INCORRECT,2.877793900001052,2877.793900001052
2,20260325_120617,D,J,False,MANUAL,2,125,425,fixed_delta,0.04010600706829564,0.013286393218712247,,,,,0.4641847697505844,1671,1929,0,,WHITE,,,0,,WHITE,True,CORRECT,1.3307740000000194,1330.7740000000194
2,20260325_120617,D,J,False,MANUAL,2,126,426,fixed_delta,0.04010600706829564,0.013286393218712247,,,,,0.44695170923274236,1609,1991,0,,WHITE,,,0,,WHITE,True,CORRECT,1.2012245999994775,1201.2245999994775
2,20260325_120617,D,J,False,MANUAL,2,127,427,fixed_delta,0.04010600706829564,0.013286393218712247,,,,,0.43434482462308155,1564,2036,0,,WHITE,,,0,,WHITE,True,CORRECT,1.0411942999999155,1041.1942999999155
2,20260325_120617,D,J,False,MANUAL,2,128,428,fixed_delta,0.04010600706829564,0.013286393218712247,,,,,0.5607602254672194,2019,1581,0,,BLACK,,,0,,BLACK,True,CORRECT,0.5158053999984986,515.8053999984986
2,20260325_120617,D,J,False,MANUAL,2,129,429,fixed_delta,0.04010600706829564,0.013286393218712247,,,,,0.5002777777777778,1801,1799,0,,BLACK,,,0,,BLACK,True,CORRECT,0.6406136999994487,640.6136999994487
2,20260325_120617,D,J,False,MANUAL,2,130,430,fixed_delta,0.04010600706829564,0.013286393218712247,,,,,0.44650026149041755,1607,1993,0,,WHITE,,,0,,WHITE,True,CORRECT,0.7036600999999791,703.6600999999791
2,20260325_120617,D,J,False,MANUAL,2,131,431,fixed_delta,0.04010600706829564,0.013286393218712247,,,,,0.45816070857825975,1649,1951,0,,WHITE,,,0,,WHITE,True,CORRECT,1.1658375000006345,1165.8375000006345
2,20260325_120617,D,J,False,MANUAL,2,132,432,fixed_delta,0.04010600706829564,0.013286393218712247,,,,,0.5390929148435953,1941,1659,0,,BLACK,,,0,,WHITE,False,INCORRECT,1.7593976999996812,1759.3976999996812
2,20260325_120617,D,J,False,MANUAL,2,133,433,fixed_delta,0.04010600706829564,0.013286393218712247,,,,,0.5367983384009503,1932,1668,0,,BLACK,,,0,,BLACK,True,CORRECT,0.8082653000001301,808.2653000001301
2,20260325_120617,D,J,False,MANUAL,2,134,434,fixed_delta,0.04010600706829564,0.013286393218712247,,,,,0.5409252271160427,1947,1653,0,,BLACK,,,0,,BLACK,True,CORRECT,1.179488699999638,1179.488699999638
2,20260325_120617,D,J,False,MANUAL,2,135,435,fixed_delta,0.04010600706829564,0.013286393218712247,,,,,0.46609971083906326,1678,1922,0,,WHITE,,,0,,WHITE,True,CORRECT,0.9252956000000268,925.2956000000268
2,20260325_120617,D,J,False,MANUAL,2,136,436,fixed_delta,0.04010600706829564,0.013286393218712247,,,,,0.5427431884411964,1954,1646,0,,BLACK,,,0,,BLACK,True,CORRECT,1.2461645000003045,1246.1645000003045
2,20260325_120617,D,J,False,MANUAL,2,137,437,fixed_delta,0.04010600706829564,0.013286393218712247,,,,,0.5434284928666991,1956,1644,0,,BLACK,,,0,,BLACK,True,CORRECT,1.511521399999765,1511.521399999765
2,20260325_120617,D,J,False,MANUAL,2,138,438,fixed_delta,0.04010600706829564,0.013286393218712247,,,,,0.4534395039369301,1632,1968,0,,WHITE,,,0,,BLACK,False,INCORRECT,2.5573176000016247,2557.3176000016247
2,20260325_120617,D,J,False,MANUAL,2,139,439,fixed_delta,0.04010600706829564,0.013286393218712247,,,,,0.5467554239309024,1968,1632,0,,BLACK,,,0,,BLACK,True,CORRECT,1.3823706000002858,1382.3706000002858
2,20260325_120617,D,J,False,MANUAL,2,140,440,fixed_delta,0.04010600706829564,0.013286393218712247,,,,,0.5473117506673908,1970,1630,0,,BLACK,,,0,,BLACK,True,CORRECT,0.9827018000014505,982.7018000014505
2,20260325_120617,D,J,False,MANUAL,2,141,441,fixed_delta,0.04010600706829564,0.013286393218712247,,,,,0.567602690052155,2043,1557,0,,BLACK,,,0,,BLACK,True,CORRECT,0.8947927000008349,894.7927000008349
2,20260325_120617,D,J,False,MANUAL,2,142,442,fixed_delta,0.04010600706829564,0.013286393218712247,,,,,0.5344570218899377,1924,1676,0,,BLACK,,,0,,WHITE,False,INCORRECT,1.1970608000010543,1197.0608000010543
2,20260325_120617,D,J,False,MANUAL,2,143,443,fixed_delta,0.04010600706829564,0.013286393218712247,,,,,0.5492130227109348,1977,1623,0,,BLACK,,,0,,WHITE,False,INCORRECT,0.8130013999998482,813.0013999998482
2,20260325_120617,D,J,False,MANUAL,2,144,444,fixed_delta,0.04010600706829564,0.013286393218712247,,,,,0.47423832290582124,1707,1893,0,,WHITE,,,0,,WHITE,True,CORRECT,4.070576500000243,4070.576500000243
2,20260325_120617,D,J,False,MANUAL,2,145,445,fixed_delta,0.04010600706829564,0.013286393218712247,,,,,0.4785952387301099,1723,1877,0,,WHITE,,,0,,BLACK,False,INCORRECT,2.0615295999996306,2061.5295999996306
2,20260325_120617,D,J,False,MANUAL,2,146,446,fixed_delta,0.04010600706829564,0.013286393218712247,,,,,0.47328401059041425,1704,1896,0,,WHITE,,,0,,WHITE,True,CORRECT,3.269417199999225,3269.417199999225
2,20260325_120617,D,J,False,MANUAL,2,147,447,fixed_delta,0.04010600706829564,0.013286393218712247,,,,,0.4715470835213059,1698,1902,0,,WHITE,,,0,,BLACK,False,INCORRECT,1.162991499999407,1162.991499999407
2,20260325_120617,D,J,False,MANUAL,2,148,448,fixed_delta,0.04010600706829564,0.013286393218712247,,,,,0.46844158058986773,1686,1914,0,,WHITE,,,0,,WHITE,True,CORRECT,2.1988860000001296,2198.8860000001296
2,20260325_120617,D,J,False,MANUAL,2,149,449,fixed_delta,0.04010600706829564,0.013286393218712247,,,,,0.46821177096961847,1686,1914,0,,WHITE,,,0,,WHITE,True,CORRECT,0.8462632000009762,846.2632000009762
