participant_id,run_timestamp,key_black,key_white,keymap_flip,block,block_idx,trial,global_trial,difficulty_mode,delta_fixed_mean,delta_fixed_sd,delta_stair_realised,delta_stair_mean,delta_step_down_used,delta_step_up_used,vblack_prop,n_vblack,n_vwhite,auto_on,aid_accuracy_setting,stimulus,aid_label,aid_correct,aid_onset_ms,aid_onset_ms_rel,response,correct,feedback,rt_s,rt_ms
4,20260325_121644,D,J,False,MANUAL,4,1,1301,fixed_delta,0.04274353132498164,0.014104974879815414,,,,,0.4468125922306132,1609,1991,0,,WHITE,,,0,,WHITE,True,CORRECT,3.4696055999993405,3469.6055999993405
4,20260325_121644,D,J,False,MANUAL,4,2,1302,fixed_delta,0.04274353132498164,0.014104974879815414,,,,,0.5108914858964839,1839,1761,0,,BLACK,,,0,,WHITE,False,INCORRECT,1.267767499999536,1267.767499999536
4,20260325_121644,D,J,False,MANUAL,4,3,1303,fixed_delta,0.04274353132498164,0.014104974879815414,,,,,0.55423768067626,1995,1605,0,,BLACK,,,0,,BLACK,True,CORRECT,1.0849440999991202,1084.9440999991202
4,20260325_121644,D,J,False,MANUAL,4,4,1304,fixed_delta,0.04274353132498164,0.014104974879815414,,,,,0.46293341141593913,1667,1933,0,,WHITE,,,0,,WHITE,True,CORRECT,0.8785929000005126,878.5929000005126
4,20260325_121644,D,J,False,MANUAL,4,5,1305,fixed_delta,0.04274353132498164,0.014104974879815414,,,,,0.5444467314600672,1960,1640,0,,BLACK,,,0,,BLACK,True,CORRECT,0.9200657000001229,920.0657000001229
4,20260325_121644,D,J,False,MANUAL,4,6,1306,fixed_delta,0.04274353132498164,0.014104974879815414,,,,,0.5179723777696749,1865,1735,0,,BLACK,,,0,,WHITE,False,INCORRECT,1.0587030999995477,1058.7030999995477
4,20260325_121644,D,J,False,MANUAL,4,7,1307,fixed_delta,0.04274353132498164,0.014104974879815414,,,,,0.552793460346721,1990,1610,0,,BLACK,,,0,,BLACK,True,CORRECT,0.667931399999361,667.931399999361
4,20260325_121644,D,J,False,MANUAL,4,8,1308,fixed_delta,0.04274353132498164,0.014104974879815414,,,,,0.45246518520288526,1629,1971,0,,WHITE,,,0,,WHITE,True,CORRECT,0.7627927999983513,762.7927999983513
4,20260325_121644,D,J,False,MANUAL,4,9,1309,fixed_delta,0.04274353132498164,0.014104974879815414,,,,,0.4439747567752436,1598,2002,0,,WHITE,,,0,,WHITE,True,CORRECT,2.4123309000005975,2412.3309000005975
4,20260325_121644,D,J,False,MANUAL,4,10,1310,fixed_delta,0.04274353132498164,0.014104974879815414,,,,,0.46325285822895346,1668,1932,0,,WHITE,,,0,,WHITE,True,CORRECT,1.121594100000948,1121.594100000948
4,20260325_121644,D,J,False,MANUAL,4,11,1311,fixed_delta,0.04274353132498164,0.014104974879815414,,,,,0.5427456539342949,1954,1646,0,,BLACK,,,0,,BLACK,True,CORRECT,0.9133609000000433,913.3609000000433
4,20260325_121644,D,J,False,MANUAL,4,12,1312,fixed_delta,0.04274353132498164,0.014104974879815414,,,,,0.5354226942242584,1928,1672,0,,BLACK,,,0,,BLACK,True,CORRECT,1.7869510000000446,1786.9510000000446
4,20260325_121644,D,J,False,MANUAL,4,13,1313,fixed_delta,0.04274353132498164,0.014104974879815414,,,,,0.5425734323981835,1953,1647,0,,BLACK,,,0,,BLACK,True,CORRECT,0.6141185000014957,614.1185000014957
4,20260325_121644,D,J,False,MANUAL,4,14,1314,fixed_delta,0.04274353132498164,0.014104974879815414,,,,,0.5153495707578236,1855,1745,0,,BLACK,,,0,,WHITE,False,INCORRECT,1.3564395000012155,1356.4395000012155
4,20260325_121644,D,J,False,MANUAL,4,15,1315,fixed_delta,0.04274353132498164,0.014104974879815414,,,,,0.5338523256573339,1922,1678,0,,BLACK,,,0,,BLACK,True,CORRECT,1.346046099999512,1346.046099999512
4,20260325_121644,D,J,False,MANUAL,4,16,1316,fixed_delta,0.04274353132498164,0.014104974879815414,,,,,0.4429015128454512,1594,2006,0,,WHITE,,,0,,WHITE,True,CORRECT,0.7662915000000794,766.2915000000794
4,20260325_121644,D,J,False,MANUAL,4,17,1317,fixed_delta,0.04274353132498164,0.014104974879815414,,,,,0.4706384835995266,1694,1906,0,,WHITE,,,0,,WHITE,True,CORRECT,0.6347262000017508,634.7262000017508
4,20260325_121644,D,J,False,MANUAL,4,18,1318,fixed_delta,0.04274353132498164,0.014104974879815414,,,,,0.46444949654379586,1672,1928,0,,WHITE,,,0,,WHITE,True,CORRECT,1.1628677999997308,1162.8677999997308
4,20260325_121644,D,J,False,MANUAL,4,19,1319,fixed_delta,0.04274353132498164,0.014104974879815414,,,,,0.5294490656991763,1906,1694,0,,BLACK,,,0,,BLACK,True,CORRECT,1.3164128999997047,1316.4128999997047
4,20260325_121644,D,J,False,MANUAL,4,20,1320,fixed_delta,0.04274353132498164,0.014104974879815414,,,,,0.5214252903401344,1877,1723,0,,BLACK,,,0,,BLACK,True,CORRECT,0.8413644000011118,841.3644000011118
4,20260325_121644,D,J,False,MANUAL,4,21,1321,fixed_delta,0.04274353132498164,0.014104974879815414,,,,,0.5529155729753338,1990,1610,0,,BLACK,,,0,,BLACK,True,CORRECT,0.6420155999985582,642.0155999985582
4,20260325_121644,D,J,False,MANUAL,4,22,1322,fixed_delta,0.04274353132498164,0.014104974879815414,,,,,0.5505590613522203,1982,1618,0,,BLACK,,,0,,BLACK,True,CORRECT,1.8795747000003757,1879.5747000003757
4,20260325_121644,D,J,False,MANUAL,4,23,1323,fixed_delta,0.04274353132498164,0.014104974879815414,,,,,0.43869054460049844,1579,2021,0,,WHITE,,,0,,WHITE,True,CORRECT,0.656309500000134,656.309500000134
4,20260325_121644,D,J,False,MANUAL,4,24,1324,fixed_delta,0.04274353132498164,0.014104974879815414,,,,,0.4599375204019808,1656,1944,0,,WHITE,,,0,,WHITE,True,CORRECT,0.7624778000008519,762.4778000008519
4,20260325_121644,D,J,False,MANUAL,4,25,1325,fixed_delta,0.04274353132498164,0.014104974879815414,,,,,0.44950857223823115,1618,1982,0,,WHITE,,,0,,WHITE,True,CORRECT,0.676182000001063,676.182000001063
4,20260325_121644,D,J,False,MANUAL,4,26,1326,fixed_delta,0.04274353132498164,0.014104974879815414,,,,,0.5579330012259137,2009,1591,0,,BLACK,,,0,,BLACK,True,CORRECT,1.5666810000002442,1566.6810000002442
4,20260325_121644,D,J,False,MANUAL,4,27,1327,fixed_delta,0.04274353132498164,0.014104974879815414,,,,,0.45191083422872097,1627,1973,0,,WHITE,,,0,,WHITE,True,CORRECT,0.5927656999992905,592.7656999992905
4,20260325_121644,D,J,False,MANUAL,4,28,1328,fixed_delta,0.04274353132498164,0.014104974879815414,,,,,0.5598954057721264,2016,1584,0,,BLACK,,,0,,BLACK,True,CORRECT,1.207492600000478,1207.492600000478
4,20260325_121644,D,J,False,MANUAL,4,29,1329,fixed_delta,0.04274353132498164,0.014104974879815414,,,,,0.45635369922332436,1643,1957,0,,WHITE,,,0,,WHITE,True,CORRECT,0.593825800000559,593.825800000559
4,20260325_121644,D,J,False,MANUAL,4,30,1330,fixed_delta,0.04274353132498164,0.014104974879815414,,,,,0.5394690910192989,1942,1658,0,,BLACK,,,0,,BLACK,True,CORRECT,0.5931953999988764,593.1953999988764
4,20260325_121644,D,J,False,MANUAL,4,31,1331,fixed_delta,0.04274353132498164,0.014104974879815414,,,,,0.4651625870763394,1675,1925,0,,WHITE,,,0,,WHITE,True,CORRECT,1.7402820999996038,1740.2820999996038
4,20260325_121644,D,J,False,MANUAL,4,32,1332,fixed_delta,0.04274353132498164,0.014104974879815414,,,,,0.44713411740555575,1610,1990,0,,WHITE,,,0,,WHITE,True,CORRECT,0.8819480000001931,881.9480000001931
4,20260325_121644,D,J,False,MANUAL,4,33,1333,fixed_delta,0.04274353132498164,0.014104974879815414,,,,,0.5316808813448529,1914,1686,0,,BLACK,,,0,,BLACK,True,CORRECT,0.771808699999383,771.808699999383
4,20260325_121644,D,J,False,MANUAL,4,34,1334,fixed_delta,0.04274353132498164,0.014104974879815414,,,,,0.44414120354454845,1599,2001,0,,WHITE,,,0,,WHITE,True,CORRECT,1.8888297999983479,1888.8297999983479
4,20260325_121644,D,J,False,MANUAL,4,35,1335,fixed_delta,0.04274353132498164,0.014104974879815414,,,,,0.5387977559970847,1940,1660,0,,BLACK,,,0,,BLACK,True,CORRECT,0.6261654000009003,626.1654000009003
4,20260325_121644,D,J,False,MANUAL,4,36,1336,fixed_delta,0.04274353132498164,0.014104974879815414,,,,,0.42484828251654494,1529,2071,0,,WHITE,,,0,,WHITE,True,CORRECT,0.8168590999994194,816.8590999994194
4,20260325_121644,D,J,False,MANUAL,4,37,1337,fixed_delta,0.04274353132498164,0.014104974879815414,,,,,0.4516947991059323,1626,1974,0,,WHITE,,,0,,WHITE,True,CORRECT,1.6289828999997553,1628.9828999997553
4,20260325_121644,D,J,False,MANUAL,4,38,1338,fixed_delta,0.04274353132498164,0.014104974879815414,,,,,0.5352499842146995,1927,1673,0,,BLACK,,,0,,BLACK,True,CORRECT,0.8444892999996227,844.4892999996227
4,20260325_121644,D,J,False,MANUAL,4,39,1339,fixed_delta,0.04274353132498164,0.014104974879815414,,,,,0.5635208983721312,2029,1571,0,,BLACK,,,0,,BLACK,True,CORRECT,1.0457423000007111,1045.742300000711
4,20260325_121644,D,J,False,MANUAL,4,40,1340,fixed_delta,0.04274353132498164,0.014104974879815414,,,,,0.4631975831778686,1668,1932,0,,WHITE,,,0,,WHITE,True,CORRECT,0.7917133999999351,791.7133999999351
4,20260325_121644,D,J,False,MANUAL,4,41,1341,fixed_delta,0.04274353132498164,0.014104974879815414,,,,,0.5670775768798932,2041,1559,0,,BLACK,,,0,,BLACK,True,CORRECT,1.007269699999597,1007.2696999995969
4,20260325_121644,D,J,False,MANUAL,4,42,1342,fixed_delta,0.04274353132498164,0.014104974879815414,,,,,0.4629104616383296,1666,1934,0,,WHITE,,,0,,WHITE,True,CORRECT,0.7392830000007962,739.2830000007962
4,20260325_121644,D,J,False,MANUAL,4,43,1343,fixed_delta,0.04274353132498164,0.014104974879815414,,,,,0.474267674894886,1707,1893,0,,WHITE,,,0,,WHITE,True,CORRECT,0.8433411000005435,843.3411000005435
4,20260325_121644,D,J,False,MANUAL,4,44,1344,fixed_delta,0.04274353132498164,0.014104974879815414,,,,,0.5666376310992608,2040,1560,0,,BLACK,,,0,,BLACK,True,CORRECT,0.8807409000000916,880.7409000000916
4,20260325_121644,D,J,False,MANUAL,4,45,1345,fixed_delta,0.04274353132498164,0.014104974879815414,,,,,0.5450956260407042,1962,1638,0,,BLACK,,,0,,BLACK,True,CORRECT,1.6179724000012357,1617.9724000012357
4,20260325_121644,D,J,False,MANUAL,4,46,1346,fixed_delta,0.04274353132498164,0.014104974879815414,,,,,0.4399957864720874,1584,2016,0,,WHITE,,,0,,WHITE,True,CORRECT,0.6359068000001571,635.9068000001571
4,20260325_121644,D,J,False,MANUAL,4,47,1347,fixed_delta,0.04274353132498164,0.014104974879815414,,,,,0.4614318605015008,1661,1939,0,,WHITE,,,0,,WHITE,True,CORRECT,0.7787086000007548,778.7086000007548
4,20260325_121644,D,J,False,MANUAL,4,48,1348,fixed_delta,0.04274353132498164,0.014104974879815414,,,,,0.5512666209619281,1985,1615,0,,BLACK,,,0,,BLACK,True,CORRECT,0.7416475000009086,741.6475000009086
4,20260325_121644,D,J,False,MANUAL,4,49,1349,fixed_delta,0.04274353132498164,0.014104974879815414,,,,,0.5276287577425249,1899,1701,0,,BLACK,,,0,,WHITE,False,INCORRECT,0.7337743000007322,733.7743000007322
4,20260325_121644,D,J,False,MANUAL,4,50,1350,fixed_delta,0.04274353132498164,0.014104974879815414,,,,,0.46295266503669313,1667,1933,0,,WHITE,,,0,,BLACK,False,INCORRECT,1.6300518999996711,1630.0518999996711
4,20260325_121644,D,J,False,MANUAL,4,51,1351,fixed_delta,0.04274353132498164,0.014104974879815414,,,,,0.5442960964853677,1959,1641,0,,BLACK,,,0,,BLACK,True,CORRECT,0.9014361999998073,901.4361999998073
4,20260325_121644,D,J,False,MANUAL,4,52,1352,fixed_delta,0.04274353132498164,0.014104974879815414,,,,,0.45947492340186624,1654,1946,0,,WHITE,,,0,,WHITE,True,CORRECT,3.2862968999997975,3286.2968999997975
4,20260325_121644,D,J,False,MANUAL,4,53,1353,fixed_delta,0.04274353132498164,0.014104974879815414,,,,,0.5810216515068273,2092,1508,0,,BLACK,,,0,,BLACK,True,CORRECT,0.7975798000006762,797.5798000006762
4,20260325_121644,D,J,False,MANUAL,4,54,1354,fixed_delta,0.04274353132498164,0.014104974879815414,,,,,0.44047171151011916,1586,2014,0,,WHITE,,,0,,WHITE,True,CORRECT,0.6063644999994722,606.3644999994722
4,20260325_121644,D,J,False,MANUAL,4,55,1355,fixed_delta,0.04274353132498164,0.014104974879815414,,,,,0.4425216812669268,1593,2007,0,,WHITE,,,0,,WHITE,True,CORRECT,0.6703692999999475,670.3692999999475
4,20260325_121644,D,J,False,MANUAL,4,56,1356,fixed_delta,0.04274353132498164,0.014104974879815414,,,,,0.5241263369485109,1887,1713,0,,BLACK,,,0,,WHITE,False,INCORRECT,1.0565625999988697,1056.5625999988697
4,20260325_121644,D,J,False,MANUAL,4,57,1357,fixed_delta,0.04274353132498164,0.014104974879815414,,,,,0.45594106482467517,1641,1959,0,,WHITE,,,0,,WHITE,True,CORRECT,0.5634512999986327,563.4512999986327
4,20260325_121644,D,J,False,MANUAL,4,58,1358,fixed_delta,0.04274353132498164,0.014104974879815414,,,,,0.5388672304459469,1940,1660,0,,BLACK,,,0,,BLACK,True,CORRECT,0.7353416999994806,735.3416999994806
4,20260325_121644,D,J,False,MANUAL,4,59,1359,fixed_delta,0.04274353132498164,0.014104974879815414,,,,,0.5623914042648319,2025,1575,0,,BLACK,,,0,,BLACK,True,CORRECT,0.7082411000010325,708.2411000010325
4,20260325_121644,D,J,False,MANUAL,4,60,1360,fixed_delta,0.04274353132498164,0.014104974879815414,,,,,0.5324726361193439,1917,1683,0,,BLACK,,,0,,BLACK,True,CORRECT,1.042874099999608,1042.874099999608
4,20260325_121644,D,J,False,MANUAL,4,61,1361,fixed_delta,0.04274353132498164,0.014104974879815414,,,,,0.5333066252764057,1920,1680,0,,BLACK,,,0,,BLACK,True,CORRECT,0.844566499999928,844.566499999928
4,20260325_121644,D,J,False,MANUAL,4,62,1362,fixed_delta,0.04274353132498164,0.014104974879815414,,,,,0.5609965729570241,2020,1580,0,,BLACK,,,0,,BLACK,True,CORRECT,0.5990907999985211,599.0907999985211
4,20260325_121644,D,J,False,MANUAL,4,63,1363,fixed_delta,0.04274353132498164,0.014104974879815414,,,,,0.4604601291893956,1658,1942,0,,WHITE,,,0,,WHITE,True,CORRECT,0.675761299999067,675.761299999067
4,20260325_121644,D,J,False,MANUAL,4,64,1364,fixed_delta,0.04274353132498164,0.014104974879815414,,,,,0.46865397274302917,1687,1913,0,,WHITE,,,0,,BLACK,False,INCORRECT,1.0143942999984574,1014.3942999984574
4,20260325_121644,D,J,False,MANUAL,4,65,1365,fixed_delta,0.04274353132498164,0.014104974879815414,,,,,0.47293940438596455,1703,1897,0,,WHITE,,,0,,BLACK,False,INCORRECT,1.2007938000006106,1200.7938000006106
4,20260325_121644,D,J,False,MANUAL,4,66,1366,fixed_delta,0.04274353132498164,0.014104974879815414,,,,,0.4473235100163573,1610,1990,0,,WHITE,,,0,,WHITE,True,CORRECT,1.0161903999996866,1016.1903999996866
4,20260325_121644,D,J,False,MANUAL,4,67,1367,fixed_delta,0.04274353132498164,0.014104974879815414,,,,,0.4484184108040453,1614,1986,0,,WHITE,,,0,,WHITE,True,CORRECT,0.8319283000000723,831.9283000000723
4,20260325_121644,D,J,False,MANUAL,4,68,1368,fixed_delta,0.04274353132498164,0.014104974879815414,,,,,0.5293988824112148,1906,1694,0,,BLACK,,,0,,BLACK,True,CORRECT,2.370450800000981,2370.450800000981
4,20260325_121644,D,J,False,MANUAL,4,69,1369,fixed_delta,0.04274353132498164,0.014104974879815414,,,,,0.47365724755955013,1705,1895,0,,WHITE,,,0,,WHITE,True,CORRECT,1.0154247999998915,1015.4247999998915
4,20260325_121644,D,J,False,MANUAL,4,70,1370,fixed_delta,0.04274353132498164,0.014104974879815414,,,,,0.5392085061711774,1941,1659,0,,BLACK,,,0,,BLACK,True,CORRECT,1.3207726999989973,1320.7726999989973
4,20260325_121644,D,J,False,MANUAL,4,71,1371,fixed_delta,0.04274353132498164,0.014104974879815414,,,,,0.4574917419324397,1647,1953,0,,WHITE,,,0,,WHITE,True,CORRECT,1.3879180999992968,1387.9180999992968
4,20260325_121644,D,J,False,MANUAL,4,72,1372,fixed_delta,0.04274353132498164,0.014104974879815414,,,,,0.5583809117095211,2010,1590,0,,BLACK,,,0,,BLACK,True,CORRECT,0.6852999000002455,685.2999000002455
4,20260325_121644,D,J,False,MANUAL,4,73,1373,fixed_delta,0.04274353132498164,0.014104974879815414,,,,,0.449979864273456,1620,1980,0,,WHITE,,,0,,WHITE,True,CORRECT,0.9775470000004134,977.5470000004134
4,20260325_121644,D,J,False,MANUAL,4,74,1374,fixed_delta,0.04274353132498164,0.014104974879815414,,,,,0.44415959523355714,1599,2001,0,,WHITE,,,0,,WHITE,True,CORRECT,0.6948527000004106,694.8527000004106
4,20260325_121644,D,J,False,MANUAL,4,75,1375,fixed_delta,0.04274353132498164,0.014104974879815414,,,,,0.46385755474697077,1670,1930,0,,WHITE,,,0,,WHITE,True,CORRECT,0.7859847999989142,785.9847999989142
4,20260325_121644,D,J,False,MANUAL,4,76,1376,fixed_delta,0.04274353132498164,0.014104974879815414,,,,,0.45280541222990645,1630,1970,0,,WHITE,,,0,,WHITE,True,CORRECT,1.122460200000205,1122.460200000205
4,20260325_121644,D,J,False,MANUAL,4,77,1377,fixed_delta,0.04274353132498164,0.014104974879815414,,,,,0.491908078563199,1771,1829,0,,WHITE,,,0,,WHITE,True,CORRECT,0.684495199999219,684.495199999219
4,20260325_121644,D,J,False,MANUAL,4,78,1378,fixed_delta,0.04274353132498164,0.014104974879815414,,,,,0.5578595590965612,2008,1592,0,,BLACK,,,0,,BLACK,True,CORRECT,0.8249113000001671,824.9113000001671
4,20260325_121644,D,J,False,MANUAL,4,79,1379,fixed_delta,0.04274353132498164,0.014104974879815414,,,,,0.43507442686157277,1566,2034,0,,WHITE,,,0,,WHITE,True,CORRECT,1.1295095000004949,1129.5095000004949
4,20260325_121644,D,J,False,MANUAL,4,80,1380,fixed_delta,0.04274353132498164,0.014104974879815414,,,,,0.4642335430377054,1671,1929,0,,WHITE,,,0,,WHITE,True,CORRECT,0.5925179000005301,592.5179000005301
4,20260325_121644,D,J,False,MANUAL,4,81,1381,fixed_delta,0.04274353132498164,0.014104974879815414,,,,,0.4652973940742728,1675,1925,0,,WHITE,,,0,,WHITE,True,CORRECT,0.9619096000005811,961.9096000005811
4,20260325_121644,D,J,False,MANUAL,4,82,1382,fixed_delta,0.04274353132498164,0.014104974879815414,,,,,0.47129589629821306,1697,1903,0,,WHITE,,,0,,WHITE,True,CORRECT,0.6239593000009336,623.9593000009336
4,20260325_121644,D,J,False,MANUAL,4,83,1383,fixed_delta,0.04274353132498164,0.014104974879815414,,,,,0.4537733527843,1634,1966,0,,WHITE,,,0,,WHITE,True,CORRECT,0.6120439999995142,612.0439999995142
4,20260325_121644,D,J,False,MANUAL,4,84,1384,fixed_delta,0.04274353132498164,0.014104974879815414,,,,,0.4525300331384612,1629,1971,0,,WHITE,,,0,,WHITE,True,CORRECT,0.5620246999988012,562.0246999988012
4,20260325_121644,D,J,False,MANUAL,4,85,1385,fixed_delta,0.04274353132498164,0.014104974879815414,,,,,0.5337267569320668,1921,1679,0,,BLACK,,,0,,BLACK,True,CORRECT,1.2111318999996001,1211.1318999996001
4,20260325_121644,D,J,False,MANUAL,4,86,1386,fixed_delta,0.04274353132498164,0.014104974879815414,,,,,0.4408940301423819,1587,2013,0,,WHITE,,,0,,WHITE,True,CORRECT,0.5260237000002235,526.0237000002235
4,20260325_121644,D,J,False,MANUAL,4,87,1387,fixed_delta,0.04274353132498164,0.014104974879815414,,,,,0.5513240480714998,1985,1615,0,,BLACK,,,0,,BLACK,True,CORRECT,0.6251533000013296,625.1533000013296
4,20260325_121644,D,J,False,MANUAL,4,88,1388,fixed_delta,0.04274353132498164,0.014104974879815414,,,,,0.5434982479778687,1957,1643,0,,BLACK,,,0,,WHITE,False,INCORRECT,0.7021490999995876,702.1490999995876
4,20260325_121644,D,J,False,MANUAL,4,89,1389,fixed_delta,0.04274353132498164,0.014104974879815414,,,,,0.5540648917921823,1995,1605,0,,BLACK,,,0,,BLACK,True,CORRECT,0.7650764999998501,765.0764999998501
4,20260325_121644,D,J,False,MANUAL,4,90,1390,fixed_delta,0.04274353132498164,0.014104974879815414,,,,,0.5630321945395963,2027,1573,0,,BLACK,,,0,,BLACK,True,CORRECT,1.0293849999998201,1029.3849999998201
4,20260325_121644,D,J,False,MANUAL,4,91,1391,fixed_delta,0.04274353132498164,0.014104974879815414,,,,,0.5171743549617256,1862,1738,0,,BLACK,,,0,,BLACK,True,CORRECT,0.5825509000005695,582.5509000005695
4,20260325_121644,D,J,False,MANUAL,4,92,1392,fixed_delta,0.04274353132498164,0.014104974879815414,,,,,0.46961801235257944,1691,1909,0,,WHITE,,,0,,WHITE,True,CORRECT,0.8628322999993543,862.8322999993543
4,20260325_121644,D,J,False,MANUAL,4,93,1393,fixed_delta,0.04274353132498164,0.014104974879815414,,,,,0.5495432829733516,1978,1622,0,,BLACK,,,0,,BLACK,True,CORRECT,1.2800750000005792,1280.0750000005792
4,20260325_121644,D,J,False,MANUAL,4,94,1394,fixed_delta,0.04274353132498164,0.014104974879815414,,,,,0.4510614204352987,1624,1976,0,,WHITE,,,0,,WHITE,True,CORRECT,0.7118291000006138,711.8291000006138
4,20260325_121644,D,J,False,MANUAL,4,95,1395,fixed_delta,0.04274353132498164,0.014104974879815414,,,,,0.4757168294217632,1713,1887,0,,WHITE,,,0,,BLACK,False,INCORRECT,1.8087569999988773,1808.7569999988773
4,20260325_121644,D,J,False,MANUAL,4,96,1396,fixed_delta,0.04274353132498164,0.014104974879815414,,,,,0.4643902190066894,1672,1928,0,,WHITE,,,0,,WHITE,True,CORRECT,0.565473299999212,565.473299999212
4,20260325_121644,D,J,False,MANUAL,4,97,1397,fixed_delta,0.04274353132498164,0.014104974879815414,,,,,0.5373571301629467,1934,1666,0,,BLACK,,,0,,BLACK,True,CORRECT,0.6576872000005096,657.6872000005096
4,20260325_121644,D,J,False,MANUAL,4,98,1398,fixed_delta,0.04274353132498164,0.014104974879815414,,,,,0.45381880252569784,1634,1966,0,,WHITE,,,0,,WHITE,True,CORRECT,1.5211094999995112,1521.1094999995112
4,20260325_121644,D,J,False,MANUAL,4,99,1399,fixed_delta,0.04274353132498164,0.014104974879815414,,,,,0.46028807635703495,1657,1943,0,,WHITE,,,0,,WHITE,True,CORRECT,1.4469680999991397,1446.9680999991397
4,20260325_121644,D,J,False,MANUAL,4,100,1400,fixed_delta,0.04274353132498164,0.014104974879815414,,,,,0.45626432618417556,1643,1957,0,,WHITE,,,0,,WHITE,True,CORRECT,0.7488666000008379,748.8666000008379
4,20260325_121644,D,J,False,MANUAL,4,101,1401,fixed_delta,0.04274353132498164,0.014104974879815414,,,,,0.563464807013276,2028,1572,0,,BLACK,,,0,,BLACK,True,CORRECT,0.7193091999997705,719.3091999997705
4,20260325_121644,D,J,False,MANUAL,4,102,1402,fixed_delta,0.04274353132498164,0.014104974879815414,,,,,0.4518916811289769,1627,1973,0,,WHITE,,,0,,WHITE,True,CORRECT,0.7173947999999655,717.3947999999655
4,20260325_121644,D,J,False,MANUAL,4,103,1403,fixed_delta,0.04274353132498164,0.014104974879815414,,,,,0.4448296911703148,1601,1999,0,,WHITE,,,0,,WHITE,True,CORRECT,0.6943771999995079,694.3771999995079
4,20260325_121644,D,J,False,MANUAL,4,104,1404,fixed_delta,0.04274353132498164,0.014104974879815414,,,,,0.47231174955153404,1700,1900,0,,WHITE,,,0,,WHITE,True,CORRECT,3.0987731000004715,3098.7731000004715
4,20260325_121644,D,J,False,MANUAL,4,105,1405,fixed_delta,0.04274353132498164,0.014104974879815414,,,,,0.5409958753109141,1948,1652,0,,BLACK,,,0,,BLACK,True,CORRECT,0.8393768999994791,839.3768999994791
4,20260325_121644,D,J,False,MANUAL,4,106,1406,fixed_delta,0.04274353132498164,0.014104974879815414,,,,,0.4418156600768459,1591,2009,0,,WHITE,,,0,,WHITE,True,CORRECT,0.8076040999985707,807.6040999985707
4,20260325_121644,D,J,False,MANUAL,4,107,1407,fixed_delta,0.04274353132498164,0.014104974879815414,,,,,0.4639933664377857,1670,1930,0,,WHITE,,,0,,WHITE,True,CORRECT,1.2976776999985304,1297.6776999985304
4,20260325_121644,D,J,False,MANUAL,4,108,1408,fixed_delta,0.04274353132498164,0.014104974879815414,,,,,0.5539312842429167,1994,1606,0,,BLACK,,,0,,BLACK,True,CORRECT,2.3745672999993985,2374.5672999993985
4,20260325_121644,D,J,False,MANUAL,4,109,1409,fixed_delta,0.04274353132498164,0.014104974879815414,,,,,0.4639650402809594,1670,1930,0,,WHITE,,,0,,WHITE,True,CORRECT,0.9184334999990824,918.4334999990824
4,20260325_121644,D,J,False,MANUAL,4,110,1410,fixed_delta,0.04274353132498164,0.014104974879815414,,,,,0.47835515435466824,1722,1878,0,,WHITE,,,0,,WHITE,True,CORRECT,1.9853567999998631,1985.3567999998631
4,20260325_121644,D,J,False,MANUAL,4,111,1411,fixed_delta,0.04274353132498164,0.014104974879815414,,,,,0.4695314004283276,1690,1910,0,,WHITE,,,0,,WHITE,True,CORRECT,1.0428678999996919,1042.8678999996919
4,20260325_121644,D,J,False,MANUAL,4,112,1412,fixed_delta,0.04274353132498164,0.014104974879815414,,,,,0.4487531458694104,1616,1984,0,,WHITE,,,0,,WHITE,True,CORRECT,0.6123745999993844,612.3745999993844
4,20260325_121644,D,J,False,MANUAL,4,113,1413,fixed_delta,0.04274353132498164,0.014104974879815414,,,,,0.4626814541358548,1666,1934,0,,WHITE,,,0,,BLACK,False,INCORRECT,2.698745899999267,2698.745899999267
4,20260325_121644,D,J,False,MANUAL,4,114,1414,fixed_delta,0.04274353132498164,0.014104974879815414,,,,,0.47264457435119944,1702,1898,0,,WHITE,,,0,,WHITE,True,CORRECT,0.9555168000006233,955.5168000006233
4,20260325_121644,D,J,False,MANUAL,4,115,1415,fixed_delta,0.04274353132498164,0.014104974879815414,,,,,0.45728305755220244,1646,1954,0,,WHITE,,,0,,WHITE,True,CORRECT,0.6376596999998583,637.6596999998583
4,20260325_121644,D,J,False,MANUAL,4,116,1416,fixed_delta,0.04274353132498164,0.014104974879815414,,,,,0.46462247600119044,1673,1927,0,,WHITE,,,0,,BLACK,False,INCORRECT,2.494994399999996,2494.994399999996
4,20260325_121644,D,J,False,MANUAL,4,117,1417,fixed_delta,0.04274353132498164,0.014104974879815414,,,,,0.4729643722321404,1703,1897,0,,WHITE,,,0,,WHITE,True,CORRECT,0.7951634999990347,795.1634999990347
4,20260325_121644,D,J,False,MANUAL,4,118,1418,fixed_delta,0.04274353132498164,0.014104974879815414,,,,,0.44112577968953015,1588,2012,0,,WHITE,,,0,,WHITE,True,CORRECT,0.7190217999996094,719.0217999996094
4,20260325_121644,D,J,False,MANUAL,4,119,1419,fixed_delta,0.04274353132498164,0.014104974879815414,,,,,0.44763347227261696,1611,1989,0,,WHITE,,,0,,WHITE,True,CORRECT,0.7545822000010958,754.5822000010958
4,20260325_121644,D,J,False,MANUAL,4,120,1420,fixed_delta,0.04274353132498164,0.014104974879815414,,,,,0.4609385676142288,1659,1941,0,,WHITE,,,0,,WHITE,True,CORRECT,0.5958375000009255,595.8375000009255
4,20260325_121644,D,J,False,MANUAL,4,121,1421,fixed_delta,0.04274353132498164,0.014104974879815414,,,,,0.47062976037093024,1694,1906,0,,WHITE,,,0,,WHITE,True,CORRECT,0.72674410000036,726.74410000036
4,20260325_121644,D,J,False,MANUAL,4,122,1422,fixed_delta,0.04274353132498164,0.014104974879815414,,,,,0.5185744522062082,1867,1733,0,,BLACK,,,0,,WHITE,False,INCORRECT,0.65817959999913,658.17959999913
4,20260325_121644,D,J,False,MANUAL,4,123,1423,fixed_delta,0.04274353132498164,0.014104974879815414,,,,,0.4454477337021911,1604,1996,0,,WHITE,,,0,,WHITE,True,CORRECT,1.3171093999990262,1317.1093999990262
4,20260325_121644,D,J,False,MANUAL,4,124,1424,fixed_delta,0.04274353132498164,0.014104974879815414,,,,,0.44025017704760094,1585,2015,0,,WHITE,,,0,,WHITE,True,CORRECT,0.7518866000009439,751.8866000009439
4,20260325_121644,D,J,False,MANUAL,4,125,1425,fixed_delta,0.04274353132498164,0.014104974879815414,,,,,0.5589062620532154,2012,1588,0,,BLACK,,,0,,BLACK,True,CORRECT,0.9473479000007501,947.3479000007501
4,20260325_121644,D,J,False,MANUAL,4,126,1426,fixed_delta,0.04274353132498164,0.014104974879815414,,,,,0.5502290217792605,1981,1619,0,,BLACK,,,0,,BLACK,True,CORRECT,0.6017393000001903,601.7393000001903
4,20260325_121644,D,J,False,MANUAL,4,127,1427,fixed_delta,0.04274353132498164,0.014104974879815414,,,,,0.46002618532573086,1656,1944,0,,WHITE,,,0,,WHITE,True,CORRECT,0.7625103000009403,762.5103000009403
4,20260325_121644,D,J,False,MANUAL,4,128,1428,fixed_delta,0.04274353132498164,0.014104974879815414,,,,,0.4255848981588287,1532,2068,0,,WHITE,,,0,,WHITE,True,CORRECT,0.6114230999992287,611.4230999992287
4,20260325_121644,D,J,False,MANUAL,4,129,1429,fixed_delta,0.04274353132498164,0.014104974879815414,,,,,0.5189196991768882,1868,1732,0,,BLACK,,,0,,BLACK,True,CORRECT,1.0145924999997078,1014.5924999997078
4,20260325_121644,D,J,False,MANUAL,4,130,1430,fixed_delta,0.04274353132498164,0.014104974879815414,,,,,0.5015286426614802,1806,1794,0,,BLACK,,,0,,BLACK,True,CORRECT,2.7612136999996437,2761.2136999996437
4,20260325_121644,D,J,False,MANUAL,4,131,1431,fixed_delta,0.04274353132498164,0.014104974879815414,,,,,0.5283990412890668,1902,1698,0,,BLACK,,,0,,BLACK,True,CORRECT,0.6855298999998922,685.5298999998922
4,20260325_121644,D,J,False,MANUAL,4,132,1432,fixed_delta,0.04274353132498164,0.014104974879815414,,,,,0.5274711899171455,1899,1701,0,,BLACK,,,0,,BLACK,True,CORRECT,0.7800289999995584,780.0289999995584
4,20260325_121644,D,J,False,MANUAL,4,133,1433,fixed_delta,0.04274353132498164,0.014104974879815414,,,,,0.5434929208148312,1957,1643,0,,BLACK,,,0,,BLACK,True,CORRECT,0.6896641999992426,689.6641999992426
4,20260325_121644,D,J,False,MANUAL,4,134,1434,fixed_delta,0.04274353132498164,0.014104974879815414,,,,,0.5542551242811813,1995,1605,0,,BLACK,,,0,,BLACK,True,CORRECT,0.5379032000000734,537.9032000000734
4,20260325_121644,D,J,False,MANUAL,4,135,1435,fixed_delta,0.04274353132498164,0.014104974879815414,,,,,0.5414992862275125,1949,1651,0,,BLACK,,,0,,BLACK,True,CORRECT,0.5273980999991181,527.3980999991181
4,20260325_121644,D,J,False,MANUAL,4,136,1436,fixed_delta,0.04274353132498164,0.014104974879815414,,,,,0.4480691669934481,1613,1987,0,,WHITE,,,0,,WHITE,True,CORRECT,0.8001813000009861,800.1813000009861
4,20260325_121644,D,J,False,MANUAL,4,137,1437,fixed_delta,0.04274353132498164,0.014104974879815414,,,,,0.436621585465119,1572,2028,0,,WHITE,,,0,,WHITE,True,CORRECT,0.7061736000014207,706.1736000014207
4,20260325_121644,D,J,False,MANUAL,4,138,1438,fixed_delta,0.04274353132498164,0.014104974879815414,,,,,0.46261751584631994,1665,1935,0,,WHITE,,,0,,BLACK,False,INCORRECT,1.0847959999991872,1084.7959999991872
4,20260325_121644,D,J,False,MANUAL,4,139,1439,fixed_delta,0.04274353132498164,0.014104974879815414,,,,,0.5386812465586662,1939,1661,0,,BLACK,,,0,,BLACK,True,CORRECT,0.6889886999997543,688.9886999997543
4,20260325_121644,D,J,False,MANUAL,4,140,1440,fixed_delta,0.04274353132498164,0.014104974879815414,,,,,0.46894926042705776,1688,1912,0,,WHITE,,,0,,WHITE,True,CORRECT,1.270789899999727,1270.789899999727
4,20260325_121644,D,J,False,MANUAL,4,141,1441,fixed_delta,0.04274353132498164,0.014104974879815414,,,,,0.5428542264234446,1954,1646,0,,BLACK,,,0,,BLACK,True,CORRECT,0.9786132000008365,978.6132000008365
4,20260325_121644,D,J,False,MANUAL,4,142,1442,fixed_delta,0.04274353132498164,0.014104974879815414,,,,,0.45657957564528595,1644,1956,0,,WHITE,,,0,,WHITE,True,CORRECT,0.5522880999997142,552.2880999997142
4,20260325_121644,D,J,False,MANUAL,4,143,1443,fixed_delta,0.04274353132498164,0.014104974879815414,,,,,0.4743740402299327,1708,1892,0,,WHITE,,,0,,WHITE,True,CORRECT,1.5181190999992396,1518.1190999992396
4,20260325_121644,D,J,False,MANUAL,4,144,1444,fixed_delta,0.04274353132498164,0.014104974879815414,,,,,0.5468304839822042,1969,1631,0,,BLACK,,,0,,BLACK,True,CORRECT,0.641491299998961,641.491299998961
4,20260325_121644,D,J,False,MANUAL,4,145,1445,fixed_delta,0.04274353132498164,0.014104974879815414,,,,,0.46154907152772445,1662,1938,0,,WHITE,,,0,,WHITE,True,CORRECT,1.0123244000005798,1012.3244000005798
4,20260325_121644,D,J,False,MANUAL,4,146,1446,fixed_delta,0.04274353132498164,0.014104974879815414,,,,,0.44194620904201803,1591,2009,0,,WHITE,,,0,,WHITE,True,CORRECT,0.5649658999991516,564.9658999991516
4,20260325_121644,D,J,False,MANUAL,4,147,1447,fixed_delta,0.04274353132498164,0.014104974879815414,,,,,0.4591060166040508,1653,1947,0,,WHITE,,,0,,WHITE,True,CORRECT,0.8341405000010127,834.1405000010127
4,20260325_121644,D,J,False,MANUAL,4,148,1448,fixed_delta,0.04274353132498164,0.014104974879815414,,,,,0.551381622171016,1985,1615,0,,BLACK,,,0,,BLACK,True,CORRECT,0.6416410999991058,641.6410999991058
4,20260325_121644,D,J,False,MANUAL,4,149,1449,fixed_delta,0.04274353132498164,0.014104974879815414,,,,,0.5372980917181168,1934,1666,0,,BLACK,,,0,,WHITE,False,INCORRECT,0.8760023000013462,876.0023000013462
4,20260325_121644,D,J,False,MANUAL,4,150,1450,fixed_delta,0.04274353132498164,0.014104974879815414,,,,,0.4391851584447949,1581,2019,0,,WHITE,,,0,,WHITE,True,CORRECT,0.5613082000018039,561.3082000018039
4,20260325_121644,D,J,False,MANUAL,4,151,1451,fixed_delta,0.04274353132498164,0.014104974879815414,,,,,0.5778532764287164,2080,1520,0,,BLACK,,,0,,BLACK,True,CORRECT,0.5753640999992058,575.3640999992058
4,20260325_121644,D,J,False,MANUAL,4,152,1452,fixed_delta,0.04274353132498164,0.014104974879815414,,,,,0.48286352530913634,1738,1862,0,,WHITE,,,0,,WHITE,True,CORRECT,0.6512942000008479,651.2942000008479
4,20260325_121644,D,J,False,MANUAL,4,153,1453,fixed_delta,0.04274353132498164,0.014104974879815414,,,,,0.5309376765461497,1911,1689,0,,BLACK,,,0,,BLACK,True,CORRECT,4.967151400000148,4967.151400000148
4,20260325_121644,D,J,False,MANUAL,4,154,1454,fixed_delta,0.04274353132498164,0.014104974879815414,,,,,0.46840694168113317,1686,1914,0,,WHITE,,,0,,WHITE,True,CORRECT,1.4121596000004502,1412.1596000004502
4,20260325_121644,D,J,False,MANUAL,4,155,1455,fixed_delta,0.04274353132498164,0.014104974879815414,,,,,0.5477908475702299,1972,1628,0,,BLACK,,,0,,BLACK,True,CORRECT,0.7853825999991386,785.3825999991386
4,20260325_121644,D,J,False,MANUAL,4,156,1456,fixed_delta,0.04274353132498164,0.014104974879815414,,,,,0.5549184215347115,1998,1602,0,,BLACK,,,0,,BLACK,True,CORRECT,0.6579722000005859,657.9722000005859
4,20260325_121644,D,J,False,MANUAL,4,157,1457,fixed_delta,0.04274353132498164,0.014104974879815414,,,,,0.4625560826645521,1665,1935,0,,WHITE,,,0,,WHITE,True,CORRECT,0.6591382999995403,659.1382999995403
4,20260325_121644,D,J,False,MANUAL,4,158,1458,fixed_delta,0.04274353132498164,0.014104974879815414,,,,,0.44427935131679797,1599,2001,0,,WHITE,,,0,,WHITE,True,CORRECT,0.6090850000000501,609.0850000000501
4,20260325_121644,D,J,False,MANUAL,4,159,1459,fixed_delta,0.04274353132498164,0.014104974879815414,,,,,0.5002777777777778,1801,1799,0,,BLACK,,,0,,BLACK,True,CORRECT,1.0859043000000383,1085.9043000000383
4,20260325_121644,D,J,False,MANUAL,4,160,1460,fixed_delta,0.04274353132498164,0.014104974879815414,,,,,0.4470619781782243,1609,1991,0,,WHITE,,,0,,WHITE,True,CORRECT,0.5630849999997736,563.0849999997736
4,20260325_121644,D,J,False,MANUAL,4,161,1461,fixed_delta,0.04274353132498164,0.014104974879815414,,,,,0.5409543217370989,1947,1653,0,,BLACK,,,0,,BLACK,True,CORRECT,2.4636444999996456,2463.6444999996456
4,20260325_121644,D,J,False,MANUAL,4,162,1462,fixed_delta,0.04274353132498164,0.014104974879815414,,,,,0.49972222222222223,1799,1801,0,,WHITE,,,0,,BLACK,False,INCORRECT,1.755111600001328,1755.111600001328
4,20260325_121644,D,J,False,MANUAL,4,163,1463,fixed_delta,0.04274353132498164,0.014104974879815414,,,,,0.4621470870328428,1664,1936,0,,WHITE,,,0,,WHITE,True,CORRECT,0.6930700000011711,693.0700000011711
4,20260325_121644,D,J,False,MANUAL,4,164,1464,fixed_delta,0.04274353132498164,0.014104974879815414,,,,,0.5362649781441364,1931,1669,0,,BLACK,,,0,,BLACK,True,CORRECT,2.209228100000473,2209.228100000473
4,20260325_121644,D,J,False,MANUAL,4,165,1465,fixed_delta,0.04274353132498164,0.014104974879815414,,,,,0.5430280313522227,1955,1645,0,,BLACK,,,0,,BLACK,True,CORRECT,0.6099236000009114,609.9236000009114
4,20260325_121644,D,J,False,MANUAL,4,166,1466,fixed_delta,0.04274353132498164,0.014104974879815414,,,,,0.5499058383250823,1980,1620,0,,BLACK,,,0,,BLACK,True,CORRECT,0.6457231000003958,645.7231000003958
4,20260325_121644,D,J,False,MANUAL,4,167,1467,fixed_delta,0.04274353132498164,0.014104974879815414,,,,,0.5654775122440623,2036,1564,0,,BLACK,,,0,,BLACK,True,CORRECT,0.5246108999999706,524.6108999999706
4,20260325_121644,D,J,False,MANUAL,4,168,1468,fixed_delta,0.04274353132498164,0.014104974879815414,,,,,0.4551502780817567,1639,1961,0,,WHITE,,,0,,WHITE,True,CORRECT,0.7675622000006115,767.5622000006115
4,20260325_121644,D,J,False,MANUAL,4,169,1469,fixed_delta,0.04274353132498164,0.014104974879815414,,,,,0.4701648259035864,1693,1907,0,,WHITE,,,0,,WHITE,True,CORRECT,0.6586341999991419,658.6341999991419
4,20260325_121644,D,J,False,MANUAL,4,170,1470,fixed_delta,0.04274353132498164,0.014104974879815414,,,,,0.5446140920902699,1961,1639,0,,BLACK,,,0,,BLACK,True,CORRECT,0.9549091000008048,954.9091000008048
4,20260325_121644,D,J,False,MANUAL,4,171,1471,fixed_delta,0.04274353132498164,0.014104974879815414,,,,,0.5540168562740063,1994,1606,0,,BLACK,,,0,,BLACK,True,CORRECT,0.5243278999987524,524.3278999987524
4,20260325_121644,D,J,False,MANUAL,4,172,1472,fixed_delta,0.04274353132498164,0.014104974879815414,,,,,0.5447195948315747,1961,1639,0,,BLACK,,,0,,BLACK,True,CORRECT,0.4748478999990766,474.8478999990766
4,20260325_121644,D,J,False,MANUAL,4,173,1473,fixed_delta,0.04274353132498164,0.014104974879815414,,,,,0.44583690553023275,1605,1995,0,,WHITE,,,0,,WHITE,True,CORRECT,0.6922868000001472,692.2868000001472
4,20260325_121644,D,J,False,MANUAL,4,174,1474,fixed_delta,0.04274353132498164,0.014104974879815414,,,,,0.5491591307159829,1977,1623,0,,BLACK,,,0,,BLACK,True,CORRECT,1.6949770000010176,1694.9770000010176
4,20260325_121644,D,J,False,MANUAL,4,175,1475,fixed_delta,0.04274353132498164,0.014104974879815414,,,,,0.5311960573145961,1912,1688,0,,BLACK,,,0,,BLACK,True,CORRECT,0.5814537000005657,581.4537000005657
4,20260325_121644,D,J,False,MANUAL,4,176,1476,fixed_delta,0.04274353132498164,0.014104974879815414,,,,,0.5315514385730533,1914,1686,0,,BLACK,,,0,,BLACK,True,CORRECT,0.506452999999965,506.45299999996496
4,20260325_121644,D,J,False,MANUAL,4,177,1477,fixed_delta,0.04274353132498164,0.014104974879815414,,,,,0.458263683862876,1650,1950,0,,WHITE,,,0,,WHITE,True,CORRECT,0.7177245000002586,717.7245000002586
4,20260325_121644,D,J,False,MANUAL,4,178,1478,fixed_delta,0.04274353132498164,0.014104974879815414,,,,,0.5677585522294213,2044,1556,0,,BLACK,,,0,,BLACK,True,CORRECT,0.5767156000001705,576.7156000001705
4,20260325_121644,D,J,False,MANUAL,4,179,1479,fixed_delta,0.04274353132498164,0.014104974879815414,,,,,0.472839123873532,1702,1898,0,,WHITE,,,0,,WHITE,True,CORRECT,0.6404956999995193,640.4956999995193
4,20260325_121644,D,J,False,MANUAL,4,180,1480,fixed_delta,0.04274353132498164,0.014104974879815414,,,,,0.5435936071108726,1957,1643,0,,BLACK,,,0,,BLACK,True,CORRECT,0.5142563999997947,514.2563999997947
4,20260325_121644,D,J,False,MANUAL,4,181,1481,fixed_delta,0.04274353132498164,0.014104974879815414,,,,,0.5571976652918427,2006,1594,0,,BLACK,,,0,,BLACK,True,CORRECT,0.5973197000002983,597.3197000002983
4,20260325_121644,D,J,False,MANUAL,4,182,1482,fixed_delta,0.04274353132498164,0.014104974879815414,,,,,0.5461342824902747,1966,1634,0,,BLACK,,,0,,BLACK,True,CORRECT,0.42679210000096646,426.79210000096646
4,20260325_121644,D,J,False,MANUAL,4,183,1483,fixed_delta,0.04274353132498164,0.014104974879815414,,,,,0.554756858354497,1997,1603,0,,BLACK,,,0,,BLACK,True,CORRECT,0.4864978000005067,486.4978000005067
4,20260325_121644,D,J,False,MANUAL,4,184,1484,fixed_delta,0.04274353132498164,0.014104974879815414,,,,,0.47400685413022503,1706,1894,0,,WHITE,,,0,,WHITE,True,CORRECT,0.6850880999991205,685.0880999991205
4,20260325_121644,D,J,False,MANUAL,4,185,1485,fixed_delta,0.04274353132498164,0.014104974879815414,,,,,0.4561035217343092,1642,1958,0,,WHITE,,,0,,WHITE,True,CORRECT,0.7358767999994598,735.8767999994598
4,20260325_121644,D,J,False,MANUAL,4,186,1486,fixed_delta,0.04274353132498164,0.014104974879815414,,,,,0.5407597090229658,1947,1653,0,,BLACK,,,0,,BLACK,True,CORRECT,0.7703776999987895,770.3776999987895
4,20260325_121644,D,J,False,MANUAL,4,187,1487,fixed_delta,0.04274353132498164,0.014104974879815414,,,,,0.5259890146573498,1894,1706,0,,BLACK,,,0,,BLACK,True,CORRECT,1.5175991999985854,1517.5991999985854
4,20260325_121644,D,J,False,MANUAL,4,188,1488,fixed_delta,0.04274353132498164,0.014104974879815414,,,,,0.4690742122357649,1689,1911,0,,WHITE,,,0,,WHITE,True,CORRECT,1.7453186999991885,1745.3186999991885
4,20260325_121644,D,J,False,MANUAL,4,189,1489,fixed_delta,0.04274353132498164,0.014104974879815414,,,,,0.5426353253583043,1953,1647,0,,BLACK,,,0,,BLACK,True,CORRECT,1.4590788000004977,1459.0788000004977
4,20260325_121644,D,J,False,MANUAL,4,190,1490,fixed_delta,0.04274353132498164,0.014104974879815414,,,,,0.5671742665297612,2042,1558,0,,BLACK,,,0,,BLACK,True,CORRECT,0.5755902000000788,575.5902000000788
4,20260325_121644,D,J,False,MANUAL,4,191,1491,fixed_delta,0.04274353132498164,0.014104974879815414,,,,,0.5558496850509431,2001,1599,0,,BLACK,,,0,,BLACK,True,CORRECT,0.49131130000023404,491.31130000023404
4,20260325_121644,D,J,False,MANUAL,4,192,1492,fixed_delta,0.04274353132498164,0.014104974879815414,,,,,0.5566774596105457,2004,1596,0,,BLACK,,,0,,BLACK,True,CORRECT,0.5255355000008421,525.5355000008421
4,20260325_121644,D,J,False,MANUAL,4,193,1493,fixed_delta,0.04274353132498164,0.014104974879815414,,,,,0.5347540462982221,1925,1675,0,,BLACK,,,0,,BLACK,True,CORRECT,0.5299771000009059,529.9771000009059
4,20260325_121644,D,J,False,MANUAL,4,194,1494,fixed_delta,0.04274353132498164,0.014104974879815414,,,,,0.4621687726117506,1664,1936,0,,WHITE,,,0,,WHITE,True,CORRECT,0.7667887000006886,766.7887000006886
4,20260325_121644,D,J,False,MANUAL,4,195,1495,fixed_delta,0.04274353132498164,0.014104974879815414,,,,,0.5788883152427767,2084,1516,0,,BLACK,,,0,,BLACK,True,CORRECT,0.6683508000005531,668.3508000005531
4,20260325_121644,D,J,False,MANUAL,4,196,1496,fixed_delta,0.04274353132498164,0.014104974879815414,,,,,0.5319341791394916,1915,1685,0,,BLACK,,,0,,WHITE,False,INCORRECT,1.450054099999761,1450.054099999761
4,20260325_121644,D,J,False,MANUAL,4,197,1497,fixed_delta,0.04274353132498164,0.014104974879815414,,,,,0.5365774242168936,1932,1668,0,,BLACK,,,0,,BLACK,True,CORRECT,0.7014428999991651,701.4428999991651
4,20260325_121644,D,J,False,MANUAL,4,198,1498,fixed_delta,0.04274353132498164,0.014104974879815414,,,,,0.5552261536888606,1999,1601,0,,BLACK,,,0,,BLACK,True,CORRECT,2.57084070000019,2570.84070000019
4,20260325_121644,D,J,False,MANUAL,4,199,1499,fixed_delta,0.04274353132498164,0.014104974879815414,,,,,0.5432924912461613,1956,1644,0,,BLACK,,,0,,BLACK,True,CORRECT,0.5461179000012635,546.1179000012635
4,20260325_121644,D,J,False,MANUAL,4,200,1500,fixed_delta,0.04274353132498164,0.014104974879815414,,,,,0.5586624885526082,2011,1589,0,,BLACK,,,0,,BLACK,True,CORRECT,0.7379235999997036,737.9235999997036
4,20260325_121644,D,J,False,MANUAL,4,201,1501,fixed_delta,0.04274353132498164,0.014104974879815414,,,,,0.550314431813474,1981,1619,0,,BLACK,,,0,,BLACK,True,CORRECT,0.4613697000004322,461.3697000004322
4,20260325_121644,D,J,False,MANUAL,4,202,1502,fixed_delta,0.04274353132498164,0.014104974879815414,,,,,0.5626078265686432,2025,1575,0,,BLACK,,,0,,BLACK,True,CORRECT,0.47290410000096017,472.90410000096017
4,20260325_121644,D,J,False,MANUAL,4,203,1503,fixed_delta,0.04274353132498164,0.014104974879815414,,,,,0.4577962117885779,1648,1952,0,,WHITE,,,0,,WHITE,True,CORRECT,0.7560307999992801,756.0307999992801
4,20260325_121644,D,J,False,MANUAL,4,204,1504,fixed_delta,0.04274353132498164,0.014104974879815414,,,,,0.5352737444551504,1927,1673,0,,BLACK,,,0,,BLACK,True,CORRECT,0.6400823999993008,640.0823999993008
4,20260325_121644,D,J,False,MANUAL,4,205,1505,fixed_delta,0.04274353132498164,0.014104974879815414,,,,,0.550655306279498,1982,1618,0,,BLACK,,,0,,BLACK,True,CORRECT,0.4740798000002542,474.0798000002542
4,20260325_121644,D,J,False,MANUAL,4,206,1506,fixed_delta,0.04274353132498164,0.014104974879815414,,,,,0.5374632062985848,1935,1665,0,,BLACK,,,0,,WHITE,False,INCORRECT,1.58597539999937,1585.97539999937
4,20260325_121644,D,J,False,MANUAL,4,207,1507,fixed_delta,0.04274353132498164,0.014104974879815414,,,,,0.43730197594507314,1574,2026,0,,WHITE,,,0,,WHITE,True,CORRECT,0.7418624999991152,741.8624999991152
4,20260325_121644,D,J,False,MANUAL,4,208,1508,fixed_delta,0.04274353132498164,0.014104974879815414,,,,,0.47040114955903983,1693,1907,0,,WHITE,,,0,,WHITE,True,CORRECT,1.596684299998742,1596.684299998742
4,20260325_121644,D,J,False,MANUAL,4,209,1509,fixed_delta,0.04274353132498164,0.014104974879815414,,,,,0.4422237811788837,1592,2008,0,,WHITE,,,0,,WHITE,True,CORRECT,1.4069626000000426,1406.9626000000426
4,20260325_121644,D,J,False,MANUAL,4,210,1510,fixed_delta,0.04274353132498164,0.014104974879815414,,,,,0.5479561315680094,1973,1627,0,,BLACK,,,0,,BLACK,True,CORRECT,1.2772297999999864,1277.2297999999864
4,20260325_121644,D,J,False,MANUAL,4,211,1511,fixed_delta,0.04274353132498164,0.014104974879815414,,,,,0.43866294584870785,1579,2021,0,,WHITE,,,0,,WHITE,True,CORRECT,0.6216182999996818,621.6182999996818
4,20260325_121644,D,J,False,MANUAL,4,212,1512,fixed_delta,0.04274353132498164,0.014104974879815414,,,,,0.5708949381700906,2055,1545,0,,BLACK,,,0,,BLACK,True,CORRECT,0.9295144000006985,929.5144000006985
4,20260325_121644,D,J,False,MANUAL,4,213,1513,fixed_delta,0.04274353132498164,0.014104974879815414,,,,,0.46551573797681844,1676,1924,0,,WHITE,,,0,,WHITE,True,CORRECT,0.652794300000096,652.794300000096
4,20260325_121644,D,J,False,MANUAL,4,214,1514,fixed_delta,0.04274353132498164,0.014104974879815414,,,,,0.5406777357266054,1946,1654,0,,BLACK,,,0,,BLACK,True,CORRECT,1.8023001000001386,1802.3001000001386
4,20260325_121644,D,J,False,MANUAL,4,215,1515,fixed_delta,0.04274353132498164,0.014104974879815414,,,,,0.4610665361650943,1660,1940,0,,WHITE,,,0,,WHITE,True,CORRECT,1.9479348000004393,1947.9348000004393
4,20260325_121644,D,J,False,MANUAL,4,216,1516,fixed_delta,0.04274353132498164,0.014104974879815414,,,,,0.5572655947761697,2006,1594,0,,BLACK,,,0,,BLACK,True,CORRECT,0.5487477999995463,548.7477999995463
4,20260325_121644,D,J,False,MANUAL,4,217,1517,fixed_delta,0.04274353132498164,0.014104974879815414,,,,,0.4717515270731107,1698,1902,0,,WHITE,,,0,,WHITE,True,CORRECT,0.6721440000001166,672.1440000001166
4,20260325_121644,D,J,False,MANUAL,4,218,1518,fixed_delta,0.04274353132498164,0.014104974879815414,,,,,0.5847007968922411,2105,1495,0,,BLACK,,,0,,BLACK,True,CORRECT,0.6276705999989645,627.6705999989645
4,20260325_121644,D,J,False,MANUAL,4,219,1519,fixed_delta,0.04274353132498164,0.014104974879815414,,,,,0.46477226904008073,1673,1927,0,,WHITE,,,0,,WHITE,True,CORRECT,0.8937587000000349,893.7587000000349
4,20260325_121644,D,J,False,MANUAL,4,220,1520,fixed_delta,0.04274353132498164,0.014104974879815414,,,,,0.5552618110079546,1999,1601,0,,BLACK,,,0,,BLACK,True,CORRECT,1.4140176000000793,1414.0176000000793
4,20260325_121644,D,J,False,MANUAL,4,221,1521,fixed_delta,0.04274353132498164,0.014104974879815414,,,,,0.5199402164839811,1872,1728,0,,BLACK,,,0,,BLACK,True,CORRECT,1.4380821000013384,1438.0821000013384
4,20260325_121644,D,J,False,MANUAL,4,222,1522,fixed_delta,0.04274353132498164,0.014104974879815414,,,,,0.43479204333435095,1565,2035,0,,WHITE,,,0,,WHITE,True,CORRECT,0.5832728000004863,583.2728000004863
4,20260325_121644,D,J,False,MANUAL,4,223,1523,fixed_delta,0.04274353132498164,0.014104974879815414,,,,,0.45393657723935843,1634,1966,0,,WHITE,,,0,,WHITE,True,CORRECT,1.4928411000000779,1492.8411000000779
4,20260325_121644,D,J,False,MANUAL,4,224,1524,fixed_delta,0.04274353132498164,0.014104974879815414,,,,,0.5420359994035163,1951,1649,0,,BLACK,,,0,,WHITE,False,INCORRECT,1.1493376000016724,1149.3376000016724
4,20260325_121644,D,J,False,MANUAL,4,225,1525,fixed_delta,0.04274353132498164,0.014104974879815414,,,,,0.44867308735175826,1615,1985,0,,WHITE,,,0,,WHITE,True,CORRECT,0.6080905999988317,608.0905999988317
4,20260325_121644,D,J,False,MANUAL,4,226,1526,fixed_delta,0.04274353132498164,0.014104974879815414,,,,,0.4869535558485052,1753,1847,0,,WHITE,,,0,,BLACK,False,INCORRECT,1.5343605000016396,1534.3605000016396
4,20260325_121644,D,J,False,MANUAL,4,227,1527,fixed_delta,0.04274353132498164,0.014104974879815414,,,,,0.5543909423446934,1996,1604,0,,BLACK,,,0,,WHITE,False,INCORRECT,1.498664299999291,1498.664299999291
4,20260325_121644,D,J,False,MANUAL,4,228,1528,fixed_delta,0.04274353132498164,0.014104974879815414,,,,,0.5381363339735726,1937,1663,0,,BLACK,,,0,,BLACK,True,CORRECT,1.3866710000002058,1386.6710000002058
4,20260325_121644,D,J,False,MANUAL,4,229,1529,fixed_delta,0.04274353132498164,0.014104974879815414,,,,,0.5464997089372935,1967,1633,0,,BLACK,,,0,,BLACK,True,CORRECT,1.4136214999998629,1413.6214999998629
4,20260325_121644,D,J,False,MANUAL,4,230,1530,fixed_delta,0.04274353132498164,0.014104974879815414,,,,,0.5692825926216266,2049,1551,0,,BLACK,,,0,,BLACK,True,CORRECT,0.4816980000014155,481.6980000014155
4,20260325_121644,D,J,False,MANUAL,4,231,1531,fixed_delta,0.04274353132498164,0.014104974879815414,,,,,0.46737294686874037,1683,1917,0,,WHITE,,,0,,WHITE,True,CORRECT,0.7167616999995516,716.7616999995516
4,20260325_121644,D,J,False,MANUAL,4,232,1532,fixed_delta,0.04274353132498164,0.014104974879815414,,,,,0.4662264676899937,1678,1922,0,,WHITE,,,0,,WHITE,True,CORRECT,1.4654251000010845,1465.4251000010845
4,20260325_121644,D,J,False,MANUAL,4,233,1533,fixed_delta,0.04274353132498164,0.014104974879815414,,,,,0.5526831392746779,1990,1610,0,,BLACK,,,0,,BLACK,True,CORRECT,0.6446455000004789,644.6455000004789
4,20260325_121644,D,J,False,MANUAL,4,234,1534,fixed_delta,0.04274353132498164,0.014104974879815414,,,,,0.4701378863481763,1692,1908,0,,WHITE,,,0,,WHITE,True,CORRECT,0.6389892999995936,638.9892999995936
4,20260325_121644,D,J,False,MANUAL,4,235,1535,fixed_delta,0.04274353132498164,0.014104974879815414,,,,,0.5581510589984421,2009,1591,0,,BLACK,,,0,,BLACK,True,CORRECT,0.853485700001329,853.485700001329
4,20260325_121644,D,J,False,MANUAL,4,236,1536,fixed_delta,0.04274353132498164,0.014104974879815414,,,,,0.5428845777284212,1954,1646,0,,BLACK,,,0,,BLACK,True,CORRECT,0.7213276000002224,721.3276000002224
4,20260325_121644,D,J,False,MANUAL,4,237,1537,fixed_delta,0.04274353132498164,0.014104974879815414,,,,,0.5553436969252448,1999,1601,0,,BLACK,,,0,,BLACK,True,CORRECT,0.5054549999986193,505.4549999986193
4,20260325_121644,D,J,False,MANUAL,4,238,1538,fixed_delta,0.04274353132498164,0.014104974879815414,,,,,0.5278696925417048,1900,1700,0,,BLACK,,,0,,BLACK,True,CORRECT,1.4422730000005686,1442.2730000005686
4,20260325_121644,D,J,False,MANUAL,4,239,1539,fixed_delta,0.04274353132498164,0.014104974879815414,,,,,0.46412536129209436,1671,1929,0,,WHITE,,,0,,BLACK,False,INCORRECT,1.3945960999990348,1394.5960999990348
4,20260325_121644,D,J,False,MANUAL,4,240,1540,fixed_delta,0.04274353132498164,0.014104974879815414,,,,,0.443207017163272,1596,2004,0,,WHITE,,,0,,BLACK,False,INCORRECT,0.97768619999988,977.68619999988
4,20260325_121644,D,J,False,MANUAL,4,241,1541,fixed_delta,0.04274353132498164,0.014104974879815414,,,,,0.5264097008118486,1895,1705,0,,BLACK,,,0,,BLACK,True,CORRECT,0.7858067999986815,785.8067999986815
4,20260325_121644,D,J,False,MANUAL,4,242,1542,fixed_delta,0.04274353132498164,0.014104974879815414,,,,,0.47454203337238954,1708,1892,0,,WHITE,,,0,,WHITE,True,CORRECT,0.7442924000006315,744.2924000006315
4,20260325_121644,D,J,False,MANUAL,4,243,1543,fixed_delta,0.04274353132498164,0.014104974879815414,,,,,0.4756892714811757,1712,1888,0,,WHITE,,,0,,BLACK,False,INCORRECT,0.7637693000015133,763.7693000015133
4,20260325_121644,D,J,False,MANUAL,4,244,1544,fixed_delta,0.04274353132498164,0.014104974879815414,,,,,0.5381599512707911,1937,1663,0,,BLACK,,,0,,WHITE,False,INCORRECT,0.9505965000007564,950.5965000007564
4,20260325_121644,D,J,False,MANUAL,4,245,1545,fixed_delta,0.04274353132498164,0.014104974879815414,,,,,0.5645401094600639,2032,1568,0,,BLACK,,,0,,BLACK,True,CORRECT,0.8508761000011873,850.8761000011873
4,20260325_121644,D,J,False,MANUAL,4,246,1546,fixed_delta,0.04274353132498164,0.014104974879815414,,,,,0.570898793009634,2055,1545,0,,BLACK,,,0,,BLACK,True,CORRECT,0.6380059999992227,638.0059999992227
4,20260325_121644,D,J,False,MANUAL,4,247,1547,fixed_delta,0.04274353132498164,0.014104974879815414,,,,,0.4595592584418935,1654,1946,0,,WHITE,,,0,,WHITE,True,CORRECT,0.7099524000004749,709.9524000004749
4,20260325_121644,D,J,False,MANUAL,4,248,1548,fixed_delta,0.04274353132498164,0.014104974879815414,,,,,0.535746245598127,1929,1671,0,,BLACK,,,0,,BLACK,True,CORRECT,0.7339121999993949,733.9121999993949
4,20260325_121644,D,J,False,MANUAL,4,249,1549,fixed_delta,0.04274353132498164,0.014104974879815414,,,,,0.477024774108894,1717,1883,0,,WHITE,,,0,,WHITE,True,CORRECT,0.8983246999996481,898.3246999996481
4,20260325_121644,D,J,False,MANUAL,4,250,1550,fixed_delta,0.04274353132498164,0.014104974879815414,,,,,0.4479832800528153,1613,1987,0,,WHITE,,,0,,WHITE,True,CORRECT,0.8932989000004454,893.2989000004454
4,20260325_121644,D,J,False,MANUAL,4,251,1551,fixed_delta,0.04274353132498164,0.014104974879815414,,,,,0.4497587913729122,1619,1981,0,,WHITE,,,0,,BLACK,False,INCORRECT,0.6856772999999521,685.6772999999521
4,20260325_121644,D,J,False,MANUAL,4,252,1552,fixed_delta,0.04274353132498164,0.014104974879815414,,,,,0.5411638221561319,1948,1652,0,,BLACK,,,0,,WHITE,False,INCORRECT,0.5603544000005058,560.3544000005058
4,20260325_121644,D,J,False,MANUAL,4,253,1553,fixed_delta,0.04274353132498164,0.014104974879815414,,,,,0.5499643627431512,1980,1620,0,,BLACK,,,0,,BLACK,True,CORRECT,1.3982305999998061,1398.2305999998061
4,20260325_121644,D,J,False,MANUAL,4,254,1554,fixed_delta,0.04274353132498164,0.014104974879815414,,,,,0.5323384890158591,1916,1684,0,,BLACK,,,0,,WHITE,False,INCORRECT,1.0885278999994625,1088.5278999994625
4,20260325_121644,D,J,False,MANUAL,4,255,1555,fixed_delta,0.04274353132498164,0.014104974879815414,,,,,0.5540119347323593,1994,1606,0,,BLACK,,,0,,BLACK,True,CORRECT,1.7128976000003604,1712.8976000003604
4,20260325_121644,D,J,False,MANUAL,4,256,1556,fixed_delta,0.04274353132498164,0.014104974879815414,,,,,0.5424336819931889,1953,1647,0,,BLACK,,,0,,BLACK,True,CORRECT,0.5722440999998071,572.2440999998071
4,20260325_121644,D,J,False,MANUAL,4,257,1557,fixed_delta,0.04274353132498164,0.014104974879815414,,,,,0.4508842830383438,1623,1977,0,,WHITE,,,0,,WHITE,True,CORRECT,0.6259483999983786,625.9483999983786
4,20260325_121644,D,J,False,MANUAL,4,258,1558,fixed_delta,0.04274353132498164,0.014104974879815414,,,,,0.48238866169376426,1737,1863,0,,WHITE,,,0,,BLACK,False,INCORRECT,1.0629159000000072,1062.9159000000072
4,20260325_121644,D,J,False,MANUAL,4,259,1559,fixed_delta,0.04274353132498164,0.014104974879815414,,,,,0.44848003884253773,1615,1985,0,,WHITE,,,0,,WHITE,True,CORRECT,0.7365011000001687,736.5011000001687
4,20260325_121644,D,J,False,MANUAL,4,260,1560,fixed_delta,0.04274353132498164,0.014104974879815414,,,,,0.4460319399809435,1606,1994,0,,WHITE,,,0,,WHITE,True,CORRECT,1.8498798000000534,1849.8798000000534
4,20260325_121644,D,J,False,MANUAL,4,261,1561,fixed_delta,0.04274353132498164,0.014104974879815414,,,,,0.469195532639944,1689,1911,0,,WHITE,,,0,,BLACK,False,INCORRECT,1.785713700000997,1785.713700000997
4,20260325_121644,D,J,False,MANUAL,4,262,1562,fixed_delta,0.04274353132498164,0.014104974879815414,,,,,0.5539861040507973,1994,1606,0,,BLACK,,,0,,BLACK,True,CORRECT,0.6863360999996075,686.3360999996075
4,20260325_121644,D,J,False,MANUAL,4,263,1563,fixed_delta,0.04274353132498164,0.014104974879815414,,,,,0.4417784895141286,1590,2010,0,,WHITE,,,0,,BLACK,False,INCORRECT,1.092834999999468,1092.834999999468
4,20260325_121644,D,J,False,MANUAL,4,264,1564,fixed_delta,0.04274353132498164,0.014104974879815414,,,,,0.46084004303944637,1659,1941,0,,WHITE,,,0,,WHITE,True,CORRECT,0.6055223000003025,605.5223000003025
4,20260325_121644,D,J,False,MANUAL,4,265,1565,fixed_delta,0.04274353132498164,0.014104974879815414,,,,,0.4700078284208634,1692,1908,0,,WHITE,,,0,,BLACK,False,INCORRECT,0.8869981999996526,886.9981999996526
4,20260325_121644,D,J,False,MANUAL,4,266,1566,fixed_delta,0.04274353132498164,0.014104974879815414,,,,,0.5355530942507711,1928,1672,0,,BLACK,,,0,,BLACK,True,CORRECT,0.6259353999994346,625.9353999994346
4,20260325_121644,D,J,False,MANUAL,4,267,1567,fixed_delta,0.04274353132498164,0.014104974879815414,,,,,0.47012815727759977,1692,1908,0,,WHITE,,,0,,WHITE,True,CORRECT,0.626760799999829,626.760799999829
4,20260325_121644,D,J,False,MANUAL,4,268,1568,fixed_delta,0.04274353132498164,0.014104974879815414,,,,,0.4600083429296148,1656,1944,0,,WHITE,,,0,,WHITE,True,CORRECT,0.6399972999988677,639.9972999988677
4,20260325_121644,D,J,False,MANUAL,4,269,1569,fixed_delta,0.04274353132498164,0.014104974879815414,,,,,0.44318712736275717,1595,2005,0,,WHITE,,,0,,BLACK,False,INCORRECT,2.5344131000001653,2534.4131000001653
4,20260325_121644,D,J,False,MANUAL,4,270,1570,fixed_delta,0.04274353132498164,0.014104974879815414,,,,,0.42857023293937524,1543,2057,0,,WHITE,,,0,,WHITE,True,CORRECT,0.7040921000007074,704.0921000007074
4,20260325_121644,D,J,False,MANUAL,4,271,1571,fixed_delta,0.04274353132498164,0.014104974879815414,,,,,0.4638228840310553,1670,1930,0,,WHITE,,,0,,BLACK,False,INCORRECT,0.9688086999994994,968.8086999994994
4,20260325_121644,D,J,False,MANUAL,4,272,1572,fixed_delta,0.04274353132498164,0.014104974879815414,,,,,0.5572779215101847,2006,1594,0,,BLACK,,,0,,BLACK,True,CORRECT,0.653979700000491,653.979700000491
4,20260325_121644,D,J,False,MANUAL,4,273,1573,fixed_delta,0.04274353132498164,0.014104974879815414,,,,,0.47962302515103955,1727,1873,0,,WHITE,,,0,,WHITE,True,CORRECT,1.2686974000007467,1268.6974000007467
4,20260325_121644,D,J,False,MANUAL,4,274,1574,fixed_delta,0.04274353132498164,0.014104974879815414,,,,,0.5449602410637163,1962,1638,0,,BLACK,,,0,,BLACK,True,CORRECT,1.1325901000000158,1132.5901000000158
4,20260325_121644,D,J,False,MANUAL,4,275,1575,fixed_delta,0.04274353132498164,0.014104974879815414,,,,,0.44223914454945623,1592,2008,0,,WHITE,,,0,,WHITE,True,CORRECT,1.567545500000051,1567.545500000051
4,20260325_121644,D,J,False,MANUAL,4,276,1576,fixed_delta,0.04274353132498164,0.014104974879815414,,,,,0.5436678820069843,1957,1643,0,,BLACK,,,0,,BLACK,True,CORRECT,0.7312011000012717,731.2011000012717
4,20260325_121644,D,J,False,MANUAL,4,277,1577,fixed_delta,0.04274353132498164,0.014104974879815414,,,,,0.4559150856686383,1641,1959,0,,WHITE,,,0,,WHITE,True,CORRECT,1.7780386000013095,1778.0386000013095
4,20260325_121644,D,J,False,MANUAL,4,278,1578,fixed_delta,0.04274353132498164,0.014104974879815414,,,,,0.4396939809429955,1583,2017,0,,WHITE,,,0,,WHITE,True,CORRECT,1.8212920999994822,1821.2920999994822
4,20260325_121644,D,J,False,MANUAL,4,279,1579,fixed_delta,0.04274353132498164,0.014104974879815414,,,,,0.5429668704825116,1955,1645,0,,BLACK,,,0,,BLACK,True,CORRECT,0.6699054000000615,669.9054000000615
4,20260325_121644,D,J,False,MANUAL,4,280,1580,fixed_delta,0.04274353132498164,0.014104974879815414,,,,,0.44754252612947854,1611,1989,0,,WHITE,,,0,,WHITE,True,CORRECT,0.7413524000003235,741.3524000003235
4,20260325_121644,D,J,False,MANUAL,4,281,1581,fixed_delta,0.04274353132498164,0.014104974879815414,,,,,0.45491500854704153,1638,1962,0,,WHITE,,,0,,WHITE,True,CORRECT,1.3135241999989375,1313.5241999989375
4,20260325_121644,D,J,False,MANUAL,4,282,1582,fixed_delta,0.04274353132498164,0.014104974879815414,,,,,0.5575276215077719,2007,1593,0,,BLACK,,,0,,BLACK,True,CORRECT,0.7337616000004346,733.7616000004346
4,20260325_121644,D,J,False,MANUAL,4,283,1583,fixed_delta,0.04274353132498164,0.014104974879815414,,,,,0.5479204771952324,1973,1627,0,,BLACK,,,0,,BLACK,True,CORRECT,1.955650500000047,1955.650500000047
4,20260325_121644,D,J,False,MANUAL,4,284,1584,fixed_delta,0.04274353132498164,0.014104974879815414,,,,,0.5436454715141983,1957,1643,0,,BLACK,,,0,,BLACK,True,CORRECT,0.8608684999999241,860.8684999999241
4,20260325_121644,D,J,False,MANUAL,4,285,1585,fixed_delta,0.04274353132498164,0.014104974879815414,,,,,0.5382083901075997,1938,1662,0,,BLACK,,,0,,BLACK,True,CORRECT,1.2164200999995955,1216.4200999995955
4,20260325_121644,D,J,False,MANUAL,4,286,1586,fixed_delta,0.04274353132498164,0.014104974879815414,,,,,0.5138221061165789,1850,1750,0,,BLACK,,,0,,BLACK,True,CORRECT,0.731388700000025,731.388700000025
4,20260325_121644,D,J,False,MANUAL,4,287,1587,fixed_delta,0.04274353132498164,0.014104974879815414,,,,,0.5555362674730615,2000,1600,0,,BLACK,,,0,,BLACK,True,CORRECT,0.5486808000005112,548.6808000005112
4,20260325_121644,D,J,False,MANUAL,4,288,1588,fixed_delta,0.04274353132498164,0.014104974879815414,,,,,0.5258587871584924,1893,1707,0,,BLACK,,,0,,BLACK,True,CORRECT,0.5487452999986999,548.7452999986999
4,20260325_121644,D,J,False,MANUAL,4,289,1589,fixed_delta,0.04274353132498164,0.014104974879815414,,,,,0.46678358679329734,1680,1920,0,,WHITE,,,0,,WHITE,True,CORRECT,1.0265464999993128,1026.5464999993128
4,20260325_121644,D,J,False,MANUAL,4,290,1590,fixed_delta,0.04274353132498164,0.014104974879815414,,,,,0.5513943685101895,1985,1615,0,,BLACK,,,0,,BLACK,True,CORRECT,0.7547143999981927,754.7143999981927
4,20260325_121644,D,J,False,MANUAL,4,291,1591,fixed_delta,0.04274353132498164,0.014104974879815414,,,,,0.5524523722656237,1989,1611,0,,BLACK,,,0,,BLACK,True,CORRECT,0.5351011999991897,535.1011999991897
4,20260325_121644,D,J,False,MANUAL,4,292,1592,fixed_delta,0.04274353132498164,0.014104974879815414,,,,,0.560660201801884,2018,1582,0,,BLACK,,,0,,BLACK,True,CORRECT,0.4635608999997203,463.5608999997203
4,20260325_121644,D,J,False,MANUAL,4,293,1593,fixed_delta,0.04274353132498164,0.014104974879815414,,,,,0.5650982076784654,2034,1566,0,,BLACK,,,0,,BLACK,True,CORRECT,0.4277641999997286,427.7641999997286
4,20260325_121644,D,J,False,MANUAL,4,294,1594,fixed_delta,0.04274353132498164,0.014104974879815414,,,,,0.5315588698481425,1914,1686,0,,BLACK,,,0,,BLACK,True,CORRECT,0.4263788999996905,426.3788999996905
4,20260325_121644,D,J,False,MANUAL,4,295,1595,fixed_delta,0.04274353132498164,0.014104974879815414,,,,,0.52951528613566,1906,1694,0,,BLACK,,,0,,BLACK,True,CORRECT,0.45114380000086385,451.14380000086385
4,20260325_121644,D,J,False,MANUAL,4,296,1596,fixed_delta,0.04274353132498164,0.014104974879815414,,,,,0.5635485167735502,2029,1571,0,,BLACK,,,0,,BLACK,True,CORRECT,0.49406529999941995,494.06529999941995
4,20260325_121644,D,J,False,MANUAL,4,297,1597,fixed_delta,0.04274353132498164,0.014104974879815414,,,,,0.5350952780934557,1926,1674,0,,BLACK,,,0,,BLACK,True,CORRECT,0.45390889999907813,453.90889999907813
4,20260325_121644,D,J,False,MANUAL,4,298,1598,fixed_delta,0.04274353132498164,0.014104974879815414,,,,,0.5414168274814342,1949,1651,0,,BLACK,,,0,,BLACK,True,CORRECT,0.47715810000045167,477.15810000045167
4,20260325_121644,D,J,False,MANUAL,4,299,1599,fixed_delta,0.04274353132498164,0.014104974879815414,,,,,0.43618404833369534,1570,2030,0,,WHITE,,,0,,WHITE,True,CORRECT,0.7150583999991795,715.0583999991795
4,20260325_121644,D,J,False,MANUAL,4,300,1600,fixed_delta,0.04274353132498164,0.014104974879815414,,,,,0.5581673320687365,2009,1591,0,,BLACK,,,0,,BLACK,True,CORRECT,0.7522403999992093,752.2403999992093
4,20260325_121644,D,J,False,MANUAL,4,301,1601,fixed_delta,0.04274353132498164,0.014104974879815414,,,,,0.4268264865762254,1537,2063,0,,WHITE,,,0,,WHITE,True,CORRECT,0.8121573000007629,812.1573000007629
4,20260325_121644,D,J,False,MANUAL,4,302,1602,fixed_delta,0.04274353132498164,0.014104974879815414,,,,,0.5235778021844926,1885,1715,0,,BLACK,,,0,,BLACK,True,CORRECT,1.7848088999999163,1784.8088999999163
4,20260325_121644,D,J,False,MANUAL,4,303,1603,fixed_delta,0.04274353132498164,0.014104974879815414,,,,,0.5447174028176214,1961,1639,0,,BLACK,,,0,,BLACK,True,CORRECT,0.8796538999995391,879.6538999995391
4,20260325_121644,D,J,False,MANUAL,4,304,1604,fixed_delta,0.04274353132498164,0.014104974879815414,,,,,0.5255239654970673,1892,1708,0,,BLACK,,,0,,BLACK,True,CORRECT,0.8673211999994237,867.3211999994237
4,20260325_121644,D,J,False,MANUAL,4,305,1605,fixed_delta,0.04274353132498164,0.014104974879815414,,,,,0.5460886104927343,1966,1634,0,,BLACK,,,0,,BLACK,True,CORRECT,0.6632736999999906,663.2736999999906
4,20260325_121644,D,J,False,MANUAL,4,306,1606,fixed_delta,0.04274353132498164,0.014104974879815414,,,,,0.45424511748553464,1635,1965,0,,WHITE,,,0,,WHITE,True,CORRECT,0.785502799999449,785.502799999449
4,20260325_121644,D,J,False,MANUAL,4,307,1607,fixed_delta,0.04274353132498164,0.014104974879815414,,,,,0.5367789401116668,1932,1668,0,,BLACK,,,0,,BLACK,True,CORRECT,0.6551796999992803,655.1796999992803
4,20260325_121644,D,J,False,MANUAL,4,308,1608,fixed_delta,0.04274353132498164,0.014104974879815414,,,,,0.46190602959178656,1663,1937,0,,WHITE,,,0,,WHITE,True,CORRECT,0.6720421999998507,672.0421999998507
4,20260325_121644,D,J,False,MANUAL,4,309,1609,fixed_delta,0.04274353132498164,0.014104974879815414,,,,,0.5239539505827264,1886,1714,0,,BLACK,,,0,,BLACK,True,CORRECT,0.7531248000013875,753.1248000013875
4,20260325_121644,D,J,False,MANUAL,4,310,1610,fixed_delta,0.04274353132498164,0.014104974879815414,,,,,0.4695304186424336,1690,1910,0,,WHITE,,,0,,WHITE,True,CORRECT,0.6706684000000678,670.6684000000678
4,20260325_121644,D,J,False,MANUAL,4,311,1611,fixed_delta,0.04274353132498164,0.014104974879815414,,,,,0.43005559255044523,1548,2052,0,,WHITE,,,0,,WHITE,True,CORRECT,1.2496417999991536,1249.6417999991536
4,20260325_121644,D,J,False,MANUAL,4,312,1612,fixed_delta,0.04274353132498164,0.014104974879815414,,,,,0.4433045320012236,1596,2004,0,,WHITE,,,0,,WHITE,True,CORRECT,0.745783800000936,745.783800000936
4,20260325_121644,D,J,False,MANUAL,4,313,1613,fixed_delta,0.04274353132498164,0.014104974879815414,,,,,0.45008269425507175,1620,1980,0,,WHITE,,,0,,WHITE,True,CORRECT,0.5952092999996239,595.2092999996239
4,20260325_121644,D,J,False,MANUAL,4,314,1614,fixed_delta,0.04274353132498164,0.014104974879815414,,,,,0.47156203440740685,1698,1902,0,,WHITE,,,0,,BLACK,False,INCORRECT,0.9197715999998763,919.7715999998763
4,20260325_121644,D,J,False,MANUAL,4,315,1615,fixed_delta,0.04274353132498164,0.014104974879815414,,,,,0.4203503191015586,1513,2087,0,,WHITE,,,0,,WHITE,True,CORRECT,0.571804000001066,571.804000001066
4,20260325_121644,D,J,False,MANUAL,4,316,1616,fixed_delta,0.04274353132498164,0.014104974879815414,,,,,0.440844462063199,1587,2013,0,,WHITE,,,0,,WHITE,True,CORRECT,0.5585614000010537,558.5614000010537
4,20260325_121644,D,J,False,MANUAL,4,317,1617,fixed_delta,0.04274353132498164,0.014104974879815414,,,,,0.45247891224177,1629,1971,0,,WHITE,,,0,,WHITE,True,CORRECT,0.757325700000365,757.325700000365
4,20260325_121644,D,J,False,MANUAL,4,318,1618,fixed_delta,0.04274353132498164,0.014104974879815414,,,,,0.4669196611594673,1681,1919,0,,WHITE,,,0,,WHITE,True,CORRECT,1.1077076000001398,1107.7076000001398
4,20260325_121644,D,J,False,MANUAL,4,319,1619,fixed_delta,0.04274353132498164,0.014104974879815414,,,,,0.4685323295279583,1687,1913,0,,WHITE,,,0,,WHITE,True,CORRECT,3.507802800000718,3507.802800000718
4,20260325_121644,D,J,False,MANUAL,4,320,1620,fixed_delta,0.04274353132498164,0.014104974879815414,,,,,0.5507941084524544,1983,1617,0,,BLACK,,,0,,BLACK,True,CORRECT,0.7509208999999828,750.9208999999828
4,20260325_121644,D,J,False,MANUAL,4,321,1621,fixed_delta,0.04274353132498164,0.014104974879815414,,,,,0.44485829391867737,1601,1999,0,,WHITE,,,0,,WHITE,True,CORRECT,1.1039461000000301,1103.9461000000301
4,20260325_121644,D,J,False,MANUAL,4,322,1622,fixed_delta,0.04274353132498164,0.014104974879815414,,,,,0.5481191739623287,1973,1627,0,,BLACK,,,0,,BLACK,True,CORRECT,1.2351104999997915,1235.1104999997915
4,20260325_121644,D,J,False,MANUAL,4,323,1623,fixed_delta,0.04274353132498164,0.014104974879815414,,,,,0.5427745589582245,1954,1646,0,,BLACK,,,0,,BLACK,True,CORRECT,0.6134468000000197,613.4468000000197
4,20260325_121644,D,J,False,MANUAL,4,324,1624,fixed_delta,0.04274353132498164,0.014104974879815414,,,,,0.45016352302630014,1621,1979,0,,WHITE,,,0,,BLACK,False,INCORRECT,0.5331366000009439,533.1366000009439
4,20260325_121644,D,J,False,MANUAL,4,325,1625,fixed_delta,0.04274353132498164,0.014104974879815414,,,,,0.5670442827914706,2041,1559,0,,BLACK,,,0,,BLACK,True,CORRECT,0.6902042000001529,690.2042000001529
4,20260325_121644,D,J,False,MANUAL,4,326,1626,fixed_delta,0.04274353132498164,0.014104974879815414,,,,,0.45425470340219465,1635,1965,0,,WHITE,,,0,,WHITE,True,CORRECT,1.2242804000015894,1224.2804000015894
4,20260325_121644,D,J,False,MANUAL,4,327,1627,fixed_delta,0.04274353132498164,0.014104974879815414,,,,,0.4672596918160582,1682,1918,0,,WHITE,,,0,,WHITE,True,CORRECT,1.6454692000006617,1645.4692000006617
4,20260325_121644,D,J,False,MANUAL,4,328,1628,fixed_delta,0.04274353132498164,0.014104974879815414,,,,,0.5556584334429934,2000,1600,0,,BLACK,,,0,,BLACK,True,CORRECT,0.5855517999989388,585.5517999989388
4,20260325_121644,D,J,False,MANUAL,4,329,1629,fixed_delta,0.04274353132498164,0.014104974879815414,,,,,0.47570995459839316,1713,1887,0,,WHITE,,,0,,WHITE,True,CORRECT,1.1309080999999424,1130.9080999999424
4,20260325_121644,D,J,False,MANUAL,4,330,1630,fixed_delta,0.04274353132498164,0.014104974879815414,,,,,0.4738114750215382,1706,1894,0,,WHITE,,,0,,WHITE,True,CORRECT,0.8277576000000408,827.7576000000408
4,20260325_121644,D,J,False,MANUAL,4,331,1631,fixed_delta,0.04274353132498164,0.014104974879815414,,,,,0.47365891531568916,1705,1895,0,,WHITE,,,0,,WHITE,True,CORRECT,0.7469780999999784,746.9780999999784
4,20260325_121644,D,J,False,MANUAL,4,332,1632,fixed_delta,0.04274353132498164,0.014104974879815414,,,,,0.4496873117692235,1619,1981,0,,WHITE,,,0,,WHITE,True,CORRECT,0.7863340000003518,786.3340000003518
4,20260325_121644,D,J,False,MANUAL,4,333,1633,fixed_delta,0.04274353132498164,0.014104974879815414,,,,,0.5435372087982012,1957,1643,0,,BLACK,,,0,,WHITE,False,INCORRECT,1.7907933999995294,1790.7933999995294
4,20260325_121644,D,J,False,MANUAL,4,334,1634,fixed_delta,0.04274353132498164,0.014104974879815414,,,,,0.45228100756101314,1628,1972,0,,WHITE,,,0,,WHITE,True,CORRECT,0.5148136999996495,514.8136999996495
4,20260325_121644,D,J,False,MANUAL,4,335,1635,fixed_delta,0.04274353132498164,0.014104974879815414,,,,,0.44533898355964546,1603,1997,0,,WHITE,,,0,,WHITE,True,CORRECT,0.8616916000009951,861.6916000009951
4,20260325_121644,D,J,False,MANUAL,4,336,1636,fixed_delta,0.04274353132498164,0.014104974879815414,,,,,0.5121023093918192,1844,1756,0,,BLACK,,,0,,WHITE,False,INCORRECT,1.2170232999997097,1217.0232999997097
4,20260325_121644,D,J,False,MANUAL,4,337,1637,fixed_delta,0.04274353132498164,0.014104974879815414,,,,,0.45837966040277767,1650,1950,0,,WHITE,,,0,,WHITE,True,CORRECT,2.0664866999995866,2066.4866999995866
4,20260325_121644,D,J,False,MANUAL,4,338,1638,fixed_delta,0.04274353132498164,0.014104974879815414,,,,,0.441038899217658,1588,2012,0,,WHITE,,,0,,WHITE,True,CORRECT,0.5321168999998918,532.1168999998918
4,20260325_121644,D,J,False,MANUAL,4,339,1639,fixed_delta,0.04274353132498164,0.014104974879815414,,,,,0.5365826409698818,1932,1668,0,,BLACK,,,0,,BLACK,True,CORRECT,0.8184041999993497,818.4041999993497
4,20260325_121644,D,J,False,MANUAL,4,340,1640,fixed_delta,0.04274353132498164,0.014104974879815414,,,,,0.4373725459613912,1575,2025,0,,WHITE,,,0,,WHITE,True,CORRECT,0.8206862999995792,820.6862999995792
4,20260325_121644,D,J,False,MANUAL,4,341,1641,fixed_delta,0.04274353132498164,0.014104974879815414,,,,,0.541951566202014,1951,1649,0,,BLACK,,,0,,BLACK,True,CORRECT,1.853811200000564,1853.811200000564
4,20260325_121644,D,J,False,MANUAL,4,342,1642,fixed_delta,0.04274353132498164,0.014104974879815414,,,,,0.4290761604559291,1545,2055,0,,WHITE,,,0,,WHITE,True,CORRECT,0.5762955999998667,576.2955999998667
4,20260325_121644,D,J,False,MANUAL,4,343,1643,fixed_delta,0.04274353132498164,0.014104974879815414,,,,,0.47997528304618003,1728,1872,0,,WHITE,,,0,,WHITE,True,CORRECT,4.0316641999997955,4031.6641999997955
4,20260325_121644,D,J,False,MANUAL,4,344,1644,fixed_delta,0.04274353132498164,0.014104974879815414,,,,,0.4493760735471916,1618,1982,0,,WHITE,,,0,,WHITE,True,CORRECT,0.5705462999994779,570.5462999994779
4,20260325_121644,D,J,False,MANUAL,4,345,1645,fixed_delta,0.04274353132498164,0.014104974879815414,,,,,0.4652334940097031,1675,1925,0,,WHITE,,,0,,BLACK,False,INCORRECT,2.106561900000088,2106.561900000088
4,20260325_121644,D,J,False,MANUAL,4,346,1646,fixed_delta,0.04274353132498164,0.014104974879815414,,,,,0.46609083936726253,1678,1922,0,,WHITE,,,0,,WHITE,True,CORRECT,0.7857997999999498,785.7997999999498
4,20260325_121644,D,J,False,MANUAL,4,347,1647,fixed_delta,0.04274353132498164,0.014104974879815414,,,,,0.46983946912551944,1691,1909,0,,WHITE,,,0,,WHITE,True,CORRECT,0.6753755999998248,675.3755999998248
4,20260325_121644,D,J,False,MANUAL,4,348,1648,fixed_delta,0.04274353132498164,0.014104974879815414,,,,,0.4650021815951395,1674,1926,0,,WHITE,,,0,,WHITE,True,CORRECT,0.5323287999999593,532.3287999999593
4,20260325_121644,D,J,False,MANUAL,4,349,1649,fixed_delta,0.04274353132498164,0.014104974879815414,,,,,0.453353157137378,1632,1968,0,,WHITE,,,0,,WHITE,True,CORRECT,0.5143625000000611,514.3625000000611
4,20260325_121644,D,J,False,MANUAL,4,350,1650,fixed_delta,0.04274353132498164,0.014104974879815414,,,,,0.47517227132209455,1711,1889,0,,WHITE,,,0,,WHITE,True,CORRECT,0.5679870000003575,567.9870000003575
4,20260325_121644,D,J,False,MANUAL,4,351,1651,fixed_delta,0.04274353132498164,0.014104974879815414,,,,,0.45007157337421466,1620,1980,0,,WHITE,,,0,,WHITE,True,CORRECT,0.5323761999989074,532.3761999989074
4,20260325_121644,D,J,False,MANUAL,4,352,1652,fixed_delta,0.04274353132498164,0.014104974879815414,,,,,0.4625082682303428,1665,1935,0,,WHITE,,,0,,WHITE,True,CORRECT,0.5434887999999773,543.4887999999773
4,20260325_121644,D,J,False,MANUAL,4,353,1653,fixed_delta,0.04274353132498164,0.014104974879815414,,,,,0.5547614829534503,1997,1603,0,,BLACK,,,0,,BLACK,True,CORRECT,0.7027548000005481,702.7548000005481
4,20260325_121644,D,J,False,MANUAL,4,354,1654,fixed_delta,0.04274353132498164,0.014104974879815414,,,,,0.5421196773887414,1952,1648,0,,BLACK,,,0,,BLACK,True,CORRECT,0.5659662999987631,565.9662999987631
4,20260325_121644,D,J,False,MANUAL,4,355,1655,fixed_delta,0.04274353132498164,0.014104974879815414,,,,,0.4598525052489228,1655,1945,0,,WHITE,,,0,,WHITE,True,CORRECT,0.8181421999997838,818.1421999997838
4,20260325_121644,D,J,False,MANUAL,4,356,1656,fixed_delta,0.04274353132498164,0.014104974879815414,,,,,0.47331689169339675,1704,1896,0,,WHITE,,,0,,BLACK,False,INCORRECT,1.130013099998905,1130.013099998905
4,20260325_121644,D,J,False,MANUAL,4,357,1657,fixed_delta,0.04274353132498164,0.014104974879815414,,,,,0.44846203564147585,1614,1986,0,,WHITE,,,0,,WHITE,True,CORRECT,0.7498808000000281,749.8808000000281
4,20260325_121644,D,J,False,MANUAL,4,358,1658,fixed_delta,0.04274353132498164,0.014104974879815414,,,,,0.5588347552476227,2012,1588,0,,BLACK,,,0,,BLACK,True,CORRECT,1.0274814999993396,1027.4814999993396
4,20260325_121644,D,J,False,MANUAL,4,359,1659,fixed_delta,0.04274353132498164,0.014104974879815414,,,,,0.4574878127242733,1647,1953,0,,WHITE,,,0,,WHITE,True,CORRECT,0.7202572999995027,720.2572999995027
4,20260325_121644,D,J,False,MANUAL,4,360,1660,fixed_delta,0.04274353132498164,0.014104974879815414,,,,,0.5548827065069708,1998,1602,0,,BLACK,,,0,,BLACK,True,CORRECT,0.5368009000012535,536.8009000012535
4,20260325_121644,D,J,False,MANUAL,4,361,1661,fixed_delta,0.04274353132498164,0.014104974879815414,,,,,0.44298781952109084,1595,2005,0,,WHITE,,,0,,WHITE,True,CORRECT,0.6718436000010115,671.8436000010115
4,20260325_121644,D,J,False,MANUAL,4,362,1662,fixed_delta,0.04274353132498164,0.014104974879815414,,,,,0.5761201638702824,2074,1526,0,,BLACK,,,0,,BLACK,True,CORRECT,0.5484709000011208,548.4709000011208
4,20260325_121644,D,J,False,MANUAL,4,363,1663,fixed_delta,0.04274353132498164,0.014104974879815414,,,,,0.4465776284547896,1608,1992,0,,WHITE,,,0,,WHITE,True,CORRECT,0.6743633000005502,674.3633000005502
4,20260325_121644,D,J,False,MANUAL,4,364,1664,fixed_delta,0.04274353132498164,0.014104974879815414,,,,,0.552875657996631,1990,1610,0,,BLACK,,,0,,BLACK,True,CORRECT,0.49406590000035067,494.06590000035067
4,20260325_121644,D,J,False,MANUAL,4,365,1665,fixed_delta,0.04274353132498164,0.014104974879815414,,,,,0.4479676960714945,1613,1987,0,,WHITE,,,0,,WHITE,True,CORRECT,2.3344595999988087,2334.4595999988087
4,20260325_121644,D,J,False,MANUAL,4,366,1666,fixed_delta,0.04274353132498164,0.014104974879815414,,,,,0.4723131971769794,1700,1900,0,,WHITE,,,0,,WHITE,True,CORRECT,0.6475033000006079,647.5033000006079
4,20260325_121644,D,J,False,MANUAL,4,367,1667,fixed_delta,0.04274353132498164,0.014104974879815414,,,,,0.4514391220975402,1625,1975,0,,WHITE,,,0,,WHITE,True,CORRECT,0.6528206999992108,652.8206999992108
4,20260325_121644,D,J,False,MANUAL,4,368,1668,fixed_delta,0.04274353132498164,0.014104974879815414,,,,,0.5321976090954754,1916,1684,0,,BLACK,,,0,,BLACK,True,CORRECT,0.8466198000005534,846.6198000005534
4,20260325_121644,D,J,False,MANUAL,4,369,1669,fixed_delta,0.04274353132498164,0.014104974879815414,,,,,0.5344001705850856,1924,1676,0,,BLACK,,,0,,BLACK,True,CORRECT,1.8060440999997809,1806.0440999997809
4,20260325_121644,D,J,False,MANUAL,4,370,1670,fixed_delta,0.04274353132498164,0.014104974879815414,,,,,0.5420155518755928,1951,1649,0,,BLACK,,,0,,BLACK,True,CORRECT,0.6376399000000674,637.6399000000674
4,20260325_121644,D,J,False,MANUAL,4,371,1671,fixed_delta,0.04274353132498164,0.014104974879815414,,,,,0.46129346920388403,1661,1939,0,,WHITE,,,0,,WHITE,True,CORRECT,0.7445850000003702,744.5850000003702
4,20260325_121644,D,J,False,MANUAL,4,372,1672,fixed_delta,0.04274353132498164,0.014104974879815414,,,,,0.5380344621639189,1937,1663,0,,BLACK,,,0,,BLACK,True,CORRECT,0.9634890999986965,963.4890999986965
4,20260325_121644,D,J,False,MANUAL,4,373,1673,fixed_delta,0.04274353132498164,0.014104974879815414,,,,,0.5711372877118981,2056,1544,0,,BLACK,,,0,,BLACK,True,CORRECT,0.5815705999993952,581.5705999993952
4,20260325_121644,D,J,False,MANUAL,4,374,1674,fixed_delta,0.04274353132498164,0.014104974879815414,,,,,0.5507712825694306,1983,1617,0,,BLACK,,,0,,BLACK,True,CORRECT,0.5336103999998159,533.6103999998159
4,20260325_121644,D,J,False,MANUAL,4,375,1675,fixed_delta,0.04274353132498164,0.014104974879815414,,,,,0.5351713726002152,1927,1673,0,,BLACK,,,0,,BLACK,True,CORRECT,1.8122794999999314,1812.2794999999314
4,20260325_121644,D,J,False,MANUAL,4,376,1676,fixed_delta,0.04274353132498164,0.014104974879815414,,,,,0.5497800837655593,1979,1621,0,,BLACK,,,0,,BLACK,True,CORRECT,0.5082756000010704,508.2756000010704
4,20260325_121644,D,J,False,MANUAL,4,377,1677,fixed_delta,0.04274353132498164,0.014104974879815414,,,,,0.5183275489703618,1866,1734,0,,BLACK,,,0,,BLACK,True,CORRECT,0.429120699998748,429.120699998748
4,20260325_121644,D,J,False,MANUAL,4,378,1678,fixed_delta,0.04274353132498164,0.014104974879815414,,,,,0.4717968669232988,1698,1902,0,,WHITE,,,0,,WHITE,True,CORRECT,0.7154149999987567,715.4149999987567
4,20260325_121644,D,J,False,MANUAL,4,379,1679,fixed_delta,0.04274353132498164,0.014104974879815414,,,,,0.4689177737696472,1688,1912,0,,WHITE,,,0,,BLACK,False,INCORRECT,1.726893700000801,1726.893700000801
4,20260325_121644,D,J,False,MANUAL,4,380,1680,fixed_delta,0.04274353132498164,0.014104974879815414,,,,,0.45923516383460056,1653,1947,0,,WHITE,,,0,,WHITE,True,CORRECT,0.8431624999993801,843.1624999993801
4,20260325_121644,D,J,False,MANUAL,4,381,1681,fixed_delta,0.04274353132498164,0.014104974879815414,,,,,0.5522548839402188,1988,1612,0,,BLACK,,,0,,BLACK,True,CORRECT,0.5434536000011576,543.4536000011576
4,20260325_121644,D,J,False,MANUAL,4,382,1682,fixed_delta,0.04274353132498164,0.014104974879815414,,,,,0.5306853877418891,1910,1690,0,,BLACK,,,0,,BLACK,True,CORRECT,0.6038134999998874,603.8134999998874
4,20260325_121644,D,J,False,MANUAL,4,383,1683,fixed_delta,0.04274353132498164,0.014104974879815414,,,,,0.4543056478447658,1636,1964,0,,WHITE,,,0,,WHITE,True,CORRECT,0.7862831000002188,786.2831000002188
4,20260325_121644,D,J,False,MANUAL,4,384,1684,fixed_delta,0.04274353132498164,0.014104974879815414,,,,,0.4657025210391801,1677,1923,0,,WHITE,,,0,,WHITE,True,CORRECT,0.578141300000425,578.141300000425
4,20260325_121644,D,J,False,MANUAL,4,385,1685,fixed_delta,0.04274353132498164,0.014104974879815414,,,,,0.4609269413644015,1659,1941,0,,WHITE,,,0,,WHITE,True,CORRECT,0.6102561999996396,610.2561999996396
4,20260325_121644,D,J,False,MANUAL,4,386,1686,fixed_delta,0.04274353132498164,0.014104974879815414,,,,,0.46392935212587016,1670,1930,0,,WHITE,,,0,,WHITE,True,CORRECT,0.689754000000903,689.754000000903
4,20260325_121644,D,J,False,MANUAL,4,387,1687,fixed_delta,0.04274353132498164,0.014104974879815414,,,,,0.5571610400943813,2006,1594,0,,BLACK,,,0,,BLACK,True,CORRECT,0.7679645999996865,767.9645999996865
4,20260325_121644,D,J,False,MANUAL,4,388,1688,fixed_delta,0.04274353132498164,0.014104974879815414,,,,,0.5380073836795219,1937,1663,0,,BLACK,,,0,,BLACK,True,CORRECT,0.8419462000001658,841.9462000001658
4,20260325_121644,D,J,False,MANUAL,4,389,1689,fixed_delta,0.04274353132498164,0.014104974879815414,,,,,0.4673929826373803,1683,1917,0,,WHITE,,,0,,WHITE,True,CORRECT,0.8046966999991128,804.6966999991128
4,20260325_121644,D,J,False,MANUAL,4,390,1690,fixed_delta,0.04274353132498164,0.014104974879815414,,,,,0.46133130438162795,1661,1939,0,,WHITE,,,0,,WHITE,True,CORRECT,0.9125648000008368,912.5648000008368
4,20260325_121644,D,J,False,MANUAL,4,391,1691,fixed_delta,0.04274353132498164,0.014104974879815414,,,,,0.45573840089991263,1641,1959,0,,WHITE,,,0,,WHITE,True,CORRECT,0.939646900000298,939.646900000298
4,20260325_121644,D,J,False,MANUAL,4,392,1692,fixed_delta,0.04274353132498164,0.014104974879815414,,,,,0.498071214809206,1793,1807,0,,WHITE,,,0,,WHITE,True,CORRECT,0.7529016999997111,752.9016999997111
4,20260325_121644,D,J,False,MANUAL,4,393,1693,fixed_delta,0.04274353132498164,0.014104974879815414,,,,,0.5511536339250327,1984,1616,0,,BLACK,,,0,,WHITE,False,INCORRECT,0.6345034999994823,634.5034999994823
4,20260325_121644,D,J,False,MANUAL,4,394,1694,fixed_delta,0.04274353132498164,0.014104974879815414,,,,,0.4545699311553246,1636,1964,0,,WHITE,,,0,,BLACK,False,INCORRECT,0.9921390999988944,992.1390999988944
4,20260325_121644,D,J,False,MANUAL,4,395,1695,fixed_delta,0.04274353132498164,0.014104974879815414,,,,,0.5394673251479436,1942,1658,0,,BLACK,,,0,,WHITE,False,INCORRECT,1.7738707999997132,1773.8707999997132
4,20260325_121644,D,J,False,MANUAL,4,396,1696,fixed_delta,0.04274353132498164,0.014104974879815414,,,,,0.5315645426631553,1914,1686,0,,BLACK,,,0,,BLACK,True,CORRECT,0.6210936999996193,621.0936999996193
4,20260325_121644,D,J,False,MANUAL,4,397,1697,fixed_delta,0.04274353132498164,0.014104974879815414,,,,,0.4568887263940641,1645,1955,0,,WHITE,,,0,,WHITE,True,CORRECT,1.5021949000001769,1502.1949000001769
4,20260325_121644,D,J,False,MANUAL,4,398,1698,fixed_delta,0.04274353132498164,0.014104974879815414,,,,,0.5422798162475209,1952,1648,0,,BLACK,,,0,,BLACK,True,CORRECT,1.6098710000005667,1609.8710000005667
4,20260325_121644,D,J,False,MANUAL,4,399,1699,fixed_delta,0.04274353132498164,0.014104974879815414,,,,,0.45416771943246836,1635,1965,0,,WHITE,,,0,,WHITE,True,CORRECT,1.2965782999999647,1296.5782999999647
4,20260325_121644,D,J,False,MANUAL,4,400,1700,fixed_delta,0.04274353132498164,0.014104974879815414,,,,,0.4472646307716866,1610,1990,0,,WHITE,,,0,,WHITE,True,CORRECT,1.135605100000248,1135.605100000248
4,20260325_121644,D,J,False,MANUAL,4,401,1701,fixed_delta,0.04274353132498164,0.014104974879815414,,,,,0.5596834665894445,2015,1585,0,,BLACK,,,0,,BLACK,True,CORRECT,1.4842016000002332,1484.2016000002332
4,20260325_121644,D,J,False,MANUAL,4,402,1702,fixed_delta,0.04274353132498164,0.014104974879815414,,,,,0.5471495714184981,1970,1630,0,,BLACK,,,0,,BLACK,True,CORRECT,1.3438337999996293,1343.8337999996293
4,20260325_121644,D,J,False,MANUAL,4,403,1703,fixed_delta,0.04274353132498164,0.014104974879815414,,,,,0.5332475512611716,1920,1680,0,,BLACK,,,0,,BLACK,True,CORRECT,1.671069099998931,1671.069099998931
4,20260325_121644,D,J,False,MANUAL,4,404,1704,fixed_delta,0.04274353132498164,0.014104974879815414,,,,,0.44791751126928436,1613,1987,0,,WHITE,,,0,,WHITE,True,CORRECT,0.8596315000013419,859.6315000013419
4,20260325_121644,D,J,False,MANUAL,4,405,1705,fixed_delta,0.04274353132498164,0.014104974879815414,,,,,0.563943350848605,2030,1570,0,,BLACK,,,0,,BLACK,True,CORRECT,0.6042281999998522,604.2281999998522
4,20260325_121644,D,J,False,MANUAL,4,406,1706,fixed_delta,0.04274353132498164,0.014104974879815414,,,,,0.5447242896339437,1961,1639,0,,BLACK,,,0,,BLACK,True,CORRECT,0.7591290000000299,759.1290000000299
4,20260325_121644,D,J,False,MANUAL,4,407,1707,fixed_delta,0.04274353132498164,0.014104974879815414,,,,,0.44988142481177595,1620,1980,0,,WHITE,,,0,,WHITE,True,CORRECT,0.7970829999994749,797.0829999994749
4,20260325_121644,D,J,False,MANUAL,4,408,1708,fixed_delta,0.04274353132498164,0.014104974879815414,,,,,0.5617656977088031,2022,1578,0,,BLACK,,,0,,BLACK,True,CORRECT,0.6518940999994811,651.8940999994811
4,20260325_121644,D,J,False,MANUAL,4,409,1709,fixed_delta,0.04274353132498164,0.014104974879815414,,,,,0.4404284460163016,1586,2014,0,,WHITE,,,0,,WHITE,True,CORRECT,0.9172080999996979,917.2080999996979
4,20260325_121644,D,J,False,MANUAL,4,410,1710,fixed_delta,0.04274353132498164,0.014104974879815414,,,,,0.45071461261293155,1623,1977,0,,WHITE,,,0,,WHITE,True,CORRECT,1.4263728999994782,1426.3728999994782
4,20260325_121644,D,J,False,MANUAL,4,411,1711,fixed_delta,0.04274353132498164,0.014104974879815414,,,,,0.550550118106844,1982,1618,0,,BLACK,,,0,,BLACK,True,CORRECT,0.9604448999998567,960.4448999998567
4,20260325_121644,D,J,False,MANUAL,4,412,1712,fixed_delta,0.04274353132498164,0.014104974879815414,,,,,0.5768759194882027,2077,1523,0,,BLACK,,,0,,BLACK,True,CORRECT,2.532741099999839,2532.741099999839
4,20260325_121644,D,J,False,MANUAL,4,413,1713,fixed_delta,0.04274353132498164,0.014104974879815414,,,,,0.46616818609036265,1678,1922,0,,WHITE,,,0,,WHITE,True,CORRECT,1.1034901999992144,1103.4901999992144
4,20260325_121644,D,J,False,MANUAL,4,414,1714,fixed_delta,0.04274353132498164,0.014104974879815414,,,,,0.5384434711569063,1938,1662,0,,BLACK,,,0,,BLACK,True,CORRECT,0.8114423000006354,811.4423000006354
4,20260325_121644,D,J,False,MANUAL,4,415,1715,fixed_delta,0.04274353132498164,0.014104974879815414,,,,,0.5335853383300445,1921,1679,0,,BLACK,,,0,,BLACK,True,CORRECT,0.8931966000000102,893.1966000000102
4,20260325_121644,D,J,False,MANUAL,4,416,1716,fixed_delta,0.04274353132498164,0.014104974879815414,,,,,0.46446418010827834,1672,1928,0,,WHITE,,,0,,WHITE,True,CORRECT,0.7128837000000203,712.8837000000203
4,20260325_121644,D,J,False,MANUAL,4,417,1717,fixed_delta,0.04274353132498164,0.014104974879815414,,,,,0.5395679544753864,1942,1658,0,,BLACK,,,0,,BLACK,True,CORRECT,0.7416848000011669,741.6848000011669
4,20260325_121644,D,J,False,MANUAL,4,418,1718,fixed_delta,0.04274353132498164,0.014104974879815414,,,,,0.5281927798800022,1901,1699,0,,BLACK,,,0,,BLACK,True,CORRECT,1.5830550999999105,1583.0550999999105
4,20260325_121644,D,J,False,MANUAL,4,419,1719,fixed_delta,0.04274353132498164,0.014104974879815414,,,,,0.5504148015826917,1981,1619,0,,BLACK,,,0,,BLACK,True,CORRECT,0.9838517999996839,983.8517999996839
4,20260325_121644,D,J,False,MANUAL,4,420,1720,fixed_delta,0.04274353132498164,0.014104974879815414,,,,,0.5355989985775597,1928,1672,0,,BLACK,,,0,,BLACK,True,CORRECT,0.5927492000009806,592.7492000009806
4,20260325_121644,D,J,False,MANUAL,4,421,1721,fixed_delta,0.04274353132498164,0.014104974879815414,,,,,0.5239618005332582,1886,1714,0,,BLACK,,,0,,BLACK,True,CORRECT,1.3556368999998085,1355.6368999998085
4,20260325_121644,D,J,False,MANUAL,4,422,1722,fixed_delta,0.04274353132498164,0.014104974879815414,,,,,0.4679569408173144,1685,1915,0,,WHITE,,,0,,BLACK,False,INCORRECT,0.8332252999989578,833.2252999989578
4,20260325_121644,D,J,False,MANUAL,4,423,1723,fixed_delta,0.04274353132498164,0.014104974879815414,,,,,0.4603832333591108,1657,1943,0,,WHITE,,,0,,BLACK,False,INCORRECT,2.973168700000315,2973.168700000315
4,20260325_121644,D,J,False,MANUAL,4,424,1724,fixed_delta,0.04274353132498164,0.014104974879815414,,,,,0.5629668252847694,2027,1573,0,,BLACK,,,0,,BLACK,True,CORRECT,1.281042399999933,1281.042399999933
4,20260325_121644,D,J,False,MANUAL,4,425,1725,fixed_delta,0.04274353132498164,0.014104974879815414,,,,,0.5281091274491372,1901,1699,0,,BLACK,,,0,,BLACK,True,CORRECT,2.0812181000001146,2081.2181000001146
4,20260325_121644,D,J,False,MANUAL,4,426,1726,fixed_delta,0.04274353132498164,0.014104974879815414,,,,,0.48291779949084546,1739,1861,0,,WHITE,,,0,,WHITE,True,CORRECT,1.5485059000002366,1548.5059000002366
4,20260325_121644,D,J,False,MANUAL,4,427,1727,fixed_delta,0.04274353132498164,0.014104974879815414,,,,,0.4639814483476494,1670,1930,0,,WHITE,,,0,,WHITE,True,CORRECT,0.9110406999989209,911.0406999989209
4,20260325_121644,D,J,False,MANUAL,4,428,1728,fixed_delta,0.04274353132498164,0.014104974879815414,,,,,0.4533301893670721,1632,1968,0,,WHITE,,,0,,WHITE,True,CORRECT,0.6673193000005995,667.3193000005995
4,20260325_121644,D,J,False,MANUAL,4,429,1729,fixed_delta,0.04274353132498164,0.014104974879815414,,,,,0.5273034788947701,1898,1702,0,,BLACK,,,0,,BLACK,True,CORRECT,1.0363278999993781,1036.3278999993781
4,20260325_121644,D,J,False,MANUAL,4,430,1730,fixed_delta,0.04274353132498164,0.014104974879815414,,,,,0.5311747208149747,1912,1688,0,,BLACK,,,0,,BLACK,True,CORRECT,1.0062522000007448,1006.2522000007448
4,20260325_121644,D,J,False,MANUAL,4,431,1731,fixed_delta,0.04274353132498164,0.014104974879815414,,,,,0.5606181047656787,2018,1582,0,,BLACK,,,0,,BLACK,True,CORRECT,0.6603742000006605,660.3742000006605
4,20260325_121644,D,J,False,MANUAL,4,432,1732,fixed_delta,0.04274353132498164,0.014104974879815414,,,,,0.4600963279583644,1656,1944,0,,WHITE,,,0,,WHITE,True,CORRECT,0.667738999998619,667.738999998619
4,20260325_121644,D,J,False,MANUAL,4,433,1733,fixed_delta,0.04274353132498164,0.014104974879815414,,,,,0.4273301723651419,1538,2062,0,,WHITE,,,0,,WHITE,True,CORRECT,1.1005595999995421,1100.5595999995421
4,20260325_121644,D,J,False,MANUAL,4,434,1734,fixed_delta,0.04274353132498164,0.014104974879815414,,,,,0.5598485943238015,2015,1585,0,,BLACK,,,0,,BLACK,True,CORRECT,0.8176978999999847,817.6978999999847
4,20260325_121644,D,J,False,MANUAL,4,435,1735,fixed_delta,0.04274353132498164,0.014104974879815414,,,,,0.5301463281134079,1909,1691,0,,BLACK,,,0,,BLACK,True,CORRECT,1.1367544000004273,1136.7544000004273
4,20260325_121644,D,J,False,MANUAL,4,436,1736,fixed_delta,0.04274353132498164,0.014104974879815414,,,,,0.5499427205191446,1980,1620,0,,BLACK,,,0,,BLACK,True,CORRECT,2.029644800000824,2029.644800000824
4,20260325_121644,D,J,False,MANUAL,4,437,1737,fixed_delta,0.04274353132498164,0.014104974879815414,,,,,0.45953116396564936,1654,1946,0,,WHITE,,,0,,WHITE,True,CORRECT,0.8779881999998906,877.9881999998906
4,20260325_121644,D,J,False,MANUAL,4,438,1738,fixed_delta,0.04274353132498164,0.014104974879815414,,,,,0.5647619149956352,2033,1567,0,,BLACK,,,0,,BLACK,True,CORRECT,0.7523414000006596,752.3414000006596
4,20260325_121644,D,J,False,MANUAL,4,439,1739,fixed_delta,0.04274353132498164,0.014104974879815414,,,,,0.4388497453151277,1580,2020,0,,WHITE,,,0,,WHITE,True,CORRECT,0.6989567000000534,698.9567000000534
4,20260325_121644,D,J,False,MANUAL,4,440,1740,fixed_delta,0.04274353132498164,0.014104974879815414,,,,,0.46784197026027907,1684,1916,0,,WHITE,,,0,,WHITE,True,CORRECT,2.64085840000007,2640.85840000007
4,20260325_121644,D,J,False,MANUAL,4,441,1741,fixed_delta,0.04274353132498164,0.014104974879815414,,,,,0.4479609273400377,1613,1987,0,,WHITE,,,0,,WHITE,True,CORRECT,1.3254692000009527,1325.4692000009527
4,20260325_121644,D,J,False,MANUAL,4,442,1742,fixed_delta,0.04274353132498164,0.014104974879815414,,,,,0.5735605949784478,2065,1535,0,,BLACK,,,0,,BLACK,True,CORRECT,0.6894112000009045,689.4112000009045
4,20260325_121644,D,J,False,MANUAL,4,443,1743,fixed_delta,0.04274353132498164,0.014104974879815414,,,,,0.461578720056565,1662,1938,0,,WHITE,,,0,,WHITE,True,CORRECT,0.72689790000004,726.89790000004
4,20260325_121644,D,J,False,MANUAL,4,444,1744,fixed_delta,0.04274353132498164,0.014104974879815414,,,,,0.5392958004586155,1941,1659,0,,BLACK,,,0,,WHITE,False,INCORRECT,0.8785972999994556,878.5972999994556
4,20260325_121644,D,J,False,MANUAL,4,445,1745,fixed_delta,0.04274353132498164,0.014104974879815414,,,,,0.4487360801054376,1615,1985,0,,WHITE,,,0,,WHITE,True,CORRECT,0.6958532000007835,695.8532000007835
4,20260325_121644,D,J,False,MANUAL,4,446,1746,fixed_delta,0.04274353132498164,0.014104974879815414,,,,,0.5601293794028351,2016,1584,0,,BLACK,,,0,,BLACK,True,CORRECT,0.5633854999996402,563.3854999996402
4,20260325_121644,D,J,False,MANUAL,4,447,1747,fixed_delta,0.04274353132498164,0.014104974879815414,,,,,0.43955370871749533,1582,2018,0,,WHITE,,,0,,WHITE,True,CORRECT,0.6507209000010334,650.7209000010334
4,20260325_121644,D,J,False,MANUAL,4,448,1748,fixed_delta,0.04274353132498164,0.014104974879815414,,,,,0.4580026679564438,1649,1951,0,,WHITE,,,0,,WHITE,True,CORRECT,2.6598993000006885,2659.8993000006885
4,20260325_121644,D,J,False,MANUAL,4,449,1749,fixed_delta,0.04274353132498164,0.014104974879815414,,,,,0.5145177186172244,1852,1748,0,,BLACK,,,0,,WHITE,False,INCORRECT,4.985371499999019,4985.371499999019
4,20260325_121644,D,J,False,MANUAL,4,450,1750,fixed_delta,0.04274353132498164,0.014104974879815414,,,,,0.45116046521359887,1624,1976,0,,WHITE,,,0,,WHITE,True,CORRECT,0.6384139999991021,638.4139999991021
4,20260325_121644,D,J,False,MANUAL,4,451,1751,fixed_delta,0.04274353132498164,0.014104974879815414,,,,,0.5442068270913485,1959,1641,0,,BLACK,,,0,,BLACK,True,CORRECT,0.7743338000000222,774.3338000000222
4,20260325_121644,D,J,False,MANUAL,4,452,1752,fixed_delta,0.04274353132498164,0.014104974879815414,,,,,0.47649286009934144,1715,1885,0,,WHITE,,,0,,WHITE,True,CORRECT,3.0768143000004784,3076.8143000004784
4,20260325_121644,D,J,False,MANUAL,4,453,1753,fixed_delta,0.04274353132498164,0.014104974879815414,,,,,0.45732639246377926,1646,1954,0,,WHITE,,,0,,WHITE,True,CORRECT,0.722419899999295,722.419899999295
4,20260325_121644,D,J,False,MANUAL,4,454,1754,fixed_delta,0.04274353132498164,0.014104974879815414,,,,,0.5431446074103138,1955,1645,0,,BLACK,,,0,,BLACK,True,CORRECT,0.6413966000000073,641.3966000000073
4,20260325_121644,D,J,False,MANUAL,4,455,1755,fixed_delta,0.04274353132498164,0.014104974879815414,,,,,0.5371064999912996,1934,1666,0,,BLACK,,,0,,WHITE,False,INCORRECT,1.080963199998223,1080.963199998223
4,20260325_121644,D,J,False,MANUAL,4,456,1756,fixed_delta,0.04274353132498164,0.014104974879815414,,,,,0.48141712624805877,1733,1867,0,,WHITE,,,0,,WHITE,True,CORRECT,0.596944999999323,596.944999999323
4,20260325_121644,D,J,False,MANUAL,4,457,1757,fixed_delta,0.04274353132498164,0.014104974879815414,,,,,0.5557368522186399,2001,1599,0,,BLACK,,,0,,BLACK,True,CORRECT,2.670429100000547,2670.429100000547
4,20260325_121644,D,J,False,MANUAL,4,458,1758,fixed_delta,0.04274353132498164,0.014104974879815414,,,,,0.45372329718808835,1633,1967,0,,WHITE,,,0,,WHITE,True,CORRECT,3.832195299999512,3832.195299999512
4,20260325_121644,D,J,False,MANUAL,4,459,1759,fixed_delta,0.04274353132498164,0.014104974879815414,,,,,0.5539299161020858,1994,1606,0,,BLACK,,,0,,BLACK,True,CORRECT,2.0978749000005337,2097.8749000005337
4,20260325_121644,D,J,False,MANUAL,4,460,1760,fixed_delta,0.04274353132498164,0.014104974879815414,,,,,0.43321982470352494,1560,2040,0,,WHITE,,,0,,WHITE,True,CORRECT,0.8473367999995389,847.3367999995389
4,20260325_121644,D,J,False,MANUAL,4,461,1761,fixed_delta,0.04274353132498164,0.014104974879815414,,,,,0.47168154697558407,1698,1902,0,,WHITE,,,0,,BLACK,False,INCORRECT,2.396568699999989,2396.568699999989
4,20260325_121644,D,J,False,MANUAL,4,462,1762,fixed_delta,0.04274353132498164,0.014104974879815414,,,,,0.541177098020121,1948,1652,0,,BLACK,,,0,,WHITE,False,INCORRECT,1.115292500000578,1115.292500000578
4,20260325_121644,D,J,False,MANUAL,4,463,1763,fixed_delta,0.04274353132498164,0.014104974879815414,,,,,0.475831010244978,1713,1887,0,,WHITE,,,0,,WHITE,True,CORRECT,1.2518700000000536,1251.8700000000536
4,20260325_121644,D,J,False,MANUAL,4,464,1764,fixed_delta,0.04274353132498164,0.014104974879815414,,,,,0.5317776299362151,1914,1686,0,,BLACK,,,0,,WHITE,False,INCORRECT,1.5824931999995897,1582.4931999995897
4,20260325_121644,D,J,False,MANUAL,4,465,1765,fixed_delta,0.04274353132498164,0.014104974879815414,,,,,0.4541876542095302,1635,1965,0,,WHITE,,,0,,WHITE,True,CORRECT,0.7538447999995697,753.8447999995697
4,20260325_121644,D,J,False,MANUAL,4,466,1766,fixed_delta,0.04274353132498164,0.014104974879815414,,,,,0.44710101326621343,1610,1990,0,,WHITE,,,0,,WHITE,True,CORRECT,0.6697187000008853,669.7187000008853
4,20260325_121644,D,J,False,MANUAL,4,467,1767,fixed_delta,0.04274353132498164,0.014104974879815414,,,,,0.5523216341926274,1988,1612,0,,BLACK,,,0,,BLACK,True,CORRECT,1.151829299999008,1151.829299999008
4,20260325_121644,D,J,False,MANUAL,4,468,1768,fixed_delta,0.04274353132498164,0.014104974879815414,,,,,0.46526282113462436,1675,1925,0,,WHITE,,,0,,WHITE,True,CORRECT,0.7338690000015049,733.8690000015049
4,20260325_121644,D,J,False,MANUAL,4,469,1769,fixed_delta,0.04274353132498164,0.014104974879815414,,,,,0.43970274063771336,1583,2017,0,,WHITE,,,0,,WHITE,True,CORRECT,0.7831194999998843,783.1194999998843
4,20260325_121644,D,J,False,MANUAL,4,470,1770,fixed_delta,0.04274353132498164,0.014104974879815414,,,,,0.539153703096024,1941,1659,0,,BLACK,,,0,,BLACK,True,CORRECT,0.9536612000010791,953.6612000010791
4,20260325_121644,D,J,False,MANUAL,4,471,1771,fixed_delta,0.04274353132498164,0.014104974879815414,,,,,0.5292262790023229,1905,1695,0,,BLACK,,,0,,BLACK,True,CORRECT,0.6700779999991937,670.0779999991937
4,20260325_121644,D,J,False,MANUAL,4,472,1772,fixed_delta,0.04274353132498164,0.014104974879815414,,,,,0.5413701852759929,1949,1651,0,,BLACK,,,0,,BLACK,True,CORRECT,2.986007299999983,2986.007299999983
4,20260325_121644,D,J,False,MANUAL,4,473,1773,fixed_delta,0.04274353132498164,0.014104974879815414,,,,,0.5306756794408212,1910,1690,0,,BLACK,,,0,,BLACK,True,CORRECT,0.5826849000004586,582.6849000004586
4,20260325_121644,D,J,False,MANUAL,4,474,1774,fixed_delta,0.04274353132498164,0.014104974879815414,,,,,0.5614623486857914,2021,1579,0,,BLACK,,,0,,BLACK,True,CORRECT,0.5740227999995113,574.0227999995113
4,20260325_121644,D,J,False,MANUAL,4,475,1775,fixed_delta,0.04274353132498164,0.014104974879815414,,,,,0.5527979044466903,1990,1610,0,,BLACK,,,0,,BLACK,True,CORRECT,0.5930614999997488,593.0614999997488
4,20260325_121644,D,J,False,MANUAL,4,476,1776,fixed_delta,0.04274353132498164,0.014104974879815414,,,,,0.4510646358665058,1624,1976,0,,WHITE,,,0,,WHITE,True,CORRECT,0.7323164999997971,732.3164999997971
4,20260325_121644,D,J,False,MANUAL,4,477,1777,fixed_delta,0.04274353132498164,0.014104974879815414,,,,,0.5298898111684419,1908,1692,0,,BLACK,,,0,,BLACK,True,CORRECT,0.5964944000006653,596.4944000006653
4,20260325_121644,D,J,False,MANUAL,4,478,1778,fixed_delta,0.04274353132498164,0.014104974879815414,,,,,0.47593879513319526,1713,1887,0,,WHITE,,,0,,WHITE,True,CORRECT,1.5541884000012942,1554.1884000012942
4,20260325_121644,D,J,False,MANUAL,4,479,1779,fixed_delta,0.04274353132498164,0.014104974879815414,,,,,0.546046624689639,1966,1634,0,,BLACK,,,0,,BLACK,True,CORRECT,1.2494845000001078,1249.4845000001078
4,20260325_121644,D,J,False,MANUAL,4,480,1780,fixed_delta,0.04274353132498164,0.014104974879815414,,,,,0.44696446308315013,1609,1991,0,,WHITE,,,0,,WHITE,True,CORRECT,1.1195189999998547,1119.5189999998547
4,20260325_121644,D,J,False,MANUAL,4,481,1781,fixed_delta,0.04274353132498164,0.014104974879815414,,,,,0.4573248481078871,1646,1954,0,,WHITE,,,0,,WHITE,True,CORRECT,0.7686087999991287,768.6087999991287
4,20260325_121644,D,J,False,MANUAL,4,482,1782,fixed_delta,0.04274353132498164,0.014104974879815414,,,,,0.5774896251773773,2079,1521,0,,BLACK,,,0,,BLACK,True,CORRECT,0.9259567000008246,925.9567000008246
4,20260325_121644,D,J,False,MANUAL,4,483,1783,fixed_delta,0.04274353132498164,0.014104974879815414,,,,,0.4466865655954832,1608,1992,0,,WHITE,,,0,,WHITE,True,CORRECT,0.623696700000437,623.696700000437
4,20260325_121644,D,J,False,MANUAL,4,484,1784,fixed_delta,0.04274353132498164,0.014104974879815414,,,,,0.5607655790461092,2019,1581,0,,BLACK,,,0,,BLACK,True,CORRECT,1.4768139000007068,1476.8139000007068
4,20260325_121644,D,J,False,MANUAL,4,485,1785,fixed_delta,0.04274353132498164,0.014104974879815414,,,,,0.4724698721115854,1701,1899,0,,WHITE,,,0,,BLACK,False,INCORRECT,1.150589000000764,1150.589000000764
4,20260325_121644,D,J,False,MANUAL,4,486,1786,fixed_delta,0.04274353132498164,0.014104974879815414,,,,,0.4427747938235043,1594,2006,0,,WHITE,,,0,,WHITE,True,CORRECT,0.601379800000359,601.379800000359
4,20260325_121644,D,J,False,MANUAL,4,487,1787,fixed_delta,0.04274353132498164,0.014104974879815414,,,,,0.5466931502037524,1968,1632,0,,BLACK,,,0,,BLACK,True,CORRECT,0.6439975000012055,643.9975000012055
4,20260325_121644,D,J,False,MANUAL,4,488,1788,fixed_delta,0.04274353132498164,0.014104974879815414,,,,,0.44529302409475807,1603,1997,0,,WHITE,,,0,,WHITE,True,CORRECT,0.8203890000004321,820.3890000004321
4,20260325_121644,D,J,False,MANUAL,4,489,1789,fixed_delta,0.04274353132498164,0.014104974879815414,,,,,0.5485019437531555,1975,1625,0,,BLACK,,,0,,BLACK,True,CORRECT,1.245199599999978,1245.199599999978
4,20260325_121644,D,J,False,MANUAL,4,490,1790,fixed_delta,0.04274353132498164,0.014104974879815414,,,,,0.548709004862475,1975,1625,0,,BLACK,,,0,,BLACK,True,CORRECT,0.5606798999997409,560.6798999997409
