participant_id,run_timestamp,key_black,key_white,keymap_flip,block,block_idx,trial,global_trial,difficulty_mode,delta_fixed_mean,delta_fixed_sd,delta_stair_realised,delta_stair_mean,delta_step_down_used,delta_step_up_used,vblack_prop,n_vblack,n_vwhite,auto_on,aid_accuracy_setting,stimulus,aid_label,aid_correct,aid_onset_ms,aid_onset_ms_rel,response,correct,feedback,rt_s,rt_ms
1,20260325_120141,D,J,False,AUTOMATION1,3,1,801,fixed_delta,0.04926863410845236,0.011780794413821632,,,,,0.5648264279400229,2033,1567,1,0.95,BLACK,BLACK,True,0,0.0027040005079470575,BLACK,True,CORRECT,2.740996661999816,2740.996661999816
1,20260325_120141,D,J,False,AUTOMATION1,3,2,802,fixed_delta,0.04926863410845236,0.011780794413821632,,,,,0.5421391802598208,1952,1648,1,0.95,BLACK,BLACK,True,0,0.0018030004866886884,WHITE,False,INCORRECT,6.1581090510007925,6158.1090510007925
1,20260325_120141,D,J,False,AUTOMATION1,3,3,803,fixed_delta,0.04926863410845236,0.011780794413821632,,,,,0.5637531425597174,2030,1570,1,0.95,BLACK,BLACK,True,0,0.0012010004866169766,BLACK,True,CORRECT,2.07025392900141,2070.25392900141
1,20260325_120141,D,J,False,AUTOMATION1,3,4,804,fixed_delta,0.04926863410845236,0.011780794413821632,,,,,0.5659809471678681,2038,1562,1,0.95,BLACK,BLACK,True,0,0.0018030004866886884,BLACK,True,CORRECT,1.8904813429999194,1890.4813429999194
1,20260325_120141,D,J,False,AUTOMATION1,3,5,805,fixed_delta,0.04926863410845236,0.011780794413821632,,,,,0.5345867007938252,1925,1675,1,0.95,BLACK,BLACK,True,0,0.0021029991330578923,BLACK,True,CORRECT,3.7596681260001787,3759.6681260001787
1,20260325_120141,D,J,False,AUTOMATION1,3,6,806,fixed_delta,0.04926863410845236,0.011780794413821632,,,,,0.4583873227393568,1650,1950,1,0.95,WHITE,WHITE,True,0,0.0018030004866886884,WHITE,True,CORRECT,3.756588615999135,3756.588615999135
1,20260325_120141,D,J,False,AUTOMATION1,3,7,807,fixed_delta,0.04926863410845236,0.011780794413821632,,,,,0.4448723875174341,1602,1998,1,0.95,WHITE,WHITE,True,0,0.0015019995771581307,WHITE,True,CORRECT,2.8549854020002385,2854.9854020002385
1,20260325_120141,D,J,False,AUTOMATION1,3,8,808,fixed_delta,0.04926863410845236,0.011780794413821632,,,,,0.5642416410580209,2031,1569,1,0.95,BLACK,BLACK,True,0,0.0015019995771581307,BLACK,True,CORRECT,6.744855889999599,6744.855889999599
1,20260325_120141,D,J,False,AUTOMATION1,3,9,809,fixed_delta,0.04926863410845236,0.011780794413821632,,,,,0.4620378844269175,1663,1937,1,0.95,WHITE,WHITE,True,0,0.0015019995771581307,WHITE,True,CORRECT,1.5379395069994644,1537.9395069994644
1,20260325_120141,D,J,False,AUTOMATION1,3,10,810,fixed_delta,0.04926863410845236,0.011780794413821632,,,,,0.5370401640557273,1933,1667,1,0.95,BLACK,BLACK,True,0,0.0015020013961475343,BLACK,True,CORRECT,1.1918304200007697,1191.8304200007697
1,20260325_120141,D,J,False,AUTOMATION1,3,11,811,fixed_delta,0.04926863410845236,0.011780794413821632,,,,,0.5363424279679356,1931,1669,1,0.95,BLACK,BLACK,True,0,0.001503000021330081,BLACK,True,CORRECT,1.076921043000766,1076.921043000766
1,20260325_120141,D,J,False,AUTOMATION1,3,12,812,fixed_delta,0.04926863410845236,0.011780794413821632,,,,,0.4627682871836652,1666,1934,1,0.95,WHITE,WHITE,True,0,0.0018020000425167382,WHITE,True,CORRECT,3.8409282449993043,3840.9282449993043
1,20260325_120141,D,J,False,AUTOMATION1,3,13,813,fixed_delta,0.04926863410845236,0.011780794413821632,,,,,0.55434001952872,1996,1604,1,0.95,BLACK,BLACK,True,0,0.0015019995771581307,BLACK,True,CORRECT,1.0967754539997259,1096.7754539997259
1,20260325_120141,D,J,False,AUTOMATION1,3,14,814,fixed_delta,0.04926863410845236,0.011780794413821632,,,,,0.4574812543947788,1647,1953,1,0.95,WHITE,WHITE,True,0,0.001503000021330081,WHITE,True,CORRECT,2.6949257050000597,2694.9257050000597
1,20260325_120141,D,J,False,AUTOMATION1,3,15,815,fixed_delta,0.04926863410845236,0.011780794413821632,,,,,0.5494399526775513,1978,1622,1,0.95,BLACK,BLACK,True,0,0.0021039995772298425,BLACK,True,CORRECT,2.8439810140007467,2843.9810140007467
1,20260325_120141,D,J,False,AUTOMATION1,3,16,816,fixed_delta,0.04926863410845236,0.011780794413821632,,,,,0.44351088589275645,1597,2003,1,0.95,WHITE,BLACK,False,0,0.001503000021330081,WHITE,True,CORRECT,3.5494105249999848,3549.410524999985
1,20260325_120141,D,J,False,AUTOMATION1,3,17,817,fixed_delta,0.04926863410845236,0.011780794413821632,,,,,0.5713650838615872,2057,1543,1,0.95,BLACK,WHITE,False,0,0.0015019995771581307,BLACK,True,CORRECT,5.749082891999933,5749.082891999933
1,20260325_120141,D,J,False,AUTOMATION1,3,18,818,fixed_delta,0.04926863410845236,0.011780794413821632,,,,,0.45037107574519175,1621,1979,1,0.95,WHITE,WHITE,True,0,0.0018030004866886884,WHITE,True,CORRECT,1.9153896469997562,1915.3896469997562
1,20260325_120141,D,J,False,AUTOMATION1,3,19,819,fixed_delta,0.04926863410845236,0.011780794413821632,,,,,0.45879217236444697,1652,1948,1,0.95,WHITE,WHITE,True,0,0.0015019995771581307,WHITE,True,CORRECT,1.5964754350006842,1596.4754350006842
1,20260325_120141,D,J,False,AUTOMATION1,3,20,820,fixed_delta,0.04926863410845236,0.011780794413821632,,,,,0.45971933172377966,1655,1945,1,0.95,WHITE,WHITE,True,0,0.0018030004866886884,WHITE,True,CORRECT,1.5042373689993838,1504.2373689993838
1,20260325_120141,D,J,False,AUTOMATION1,3,21,821,fixed_delta,0.04926863410845236,0.011780794413821632,,,,,0.5508643348259421,1983,1617,1,0.95,BLACK,BLACK,True,0,0.0015019995771581307,BLACK,True,CORRECT,1.9730433959994116,1973.0433959994116
1,20260325_120141,D,J,False,AUTOMATION1,3,22,822,fixed_delta,0.04926863410845236,0.011780794413821632,,,,,0.4308791951286966,1551,2049,1,0.95,WHITE,WHITE,True,0,0.0015019995771581307,WHITE,True,CORRECT,1.172649961999923,1172.649961999923
1,20260325_120141,D,J,False,AUTOMATION1,3,23,823,fixed_delta,0.04926863410845236,0.011780794413821632,,,,,0.559553725826117,2014,1586,1,0.95,BLACK,BLACK,True,0,0.0015019995771581307,BLACK,True,CORRECT,5.366340586999286,5366.340586999286
1,20260325_120141,D,J,False,AUTOMATION1,3,24,824,fixed_delta,0.04926863410845236,0.011780794413821632,,,,,0.5224415979221805,1881,1719,1,0.95,BLACK,BLACK,True,0,0.0018029986676992849,WHITE,False,INCORRECT,1.8435077750000346,1843.5077750000346
1,20260325_120141,D,J,False,AUTOMATION1,3,25,825,fixed_delta,0.04926863410845236,0.011780794413821632,,,,,0.4638281224539288,1670,1930,1,0.95,WHITE,WHITE,True,0,0.0015020013961475343,WHITE,True,CORRECT,3.020146767001279,3020.146767001279
1,20260325_120141,D,J,False,AUTOMATION1,3,26,826,fixed_delta,0.04926863410845236,0.011780794413821632,,,,,0.43051844590906385,1550,2050,1,0.95,WHITE,WHITE,True,0,0.0015019995771581307,WHITE,True,CORRECT,3.478247373999693,3478.247373999693
1,20260325_120141,D,J,False,AUTOMATION1,3,27,827,fixed_delta,0.04926863410845236,0.011780794413821632,,,,,0.5415564819055957,1950,1650,1,0.95,BLACK,BLACK,True,0,0.0021029991330578923,BLACK,True,CORRECT,1.8075659369987989,1807.5659369987989
1,20260325_120141,D,J,False,AUTOMATION1,3,28,828,fixed_delta,0.04926863410845236,0.011780794413821632,,,,,0.5289555461342427,1904,1696,1,0.95,BLACK,BLACK,True,0,0.0015019995771581307,BLACK,True,CORRECT,2.014048441998966,2014.0484419989662
1,20260325_120141,D,J,False,AUTOMATION1,3,29,829,fixed_delta,0.04926863410845236,0.011780794413821632,,,,,0.42811607834250154,1541,2059,1,0.95,WHITE,WHITE,True,0,0.0015019995771581307,WHITE,True,CORRECT,0.9798228849995212,979.8228849995212
1,20260325_120141,D,J,False,AUTOMATION1,3,30,830,fixed_delta,0.04926863410845236,0.011780794413821632,,,,,0.5490579555854911,1977,1623,1,0.95,BLACK,BLACK,True,0,0.001503000021330081,BLACK,True,CORRECT,0.9617887179992977,961.7887179992977
1,20260325_120141,D,J,False,AUTOMATION1,3,31,831,fixed_delta,0.04926863410845236,0.011780794413821632,,,,,0.5416570254496451,1950,1650,1,0.95,BLACK,WHITE,False,0,0.0015019995771581307,WHITE,False,INCORRECT,2.363731611998446,2363.731611998446
1,20260325_120141,D,J,False,AUTOMATION1,3,32,832,fixed_delta,0.04926863410845236,0.011780794413821632,,,,,0.4467102854809726,1608,1992,1,0.95,WHITE,WHITE,True,0,0.0015019995771581307,WHITE,True,CORRECT,1.0015741589995741,1001.5741589995741
1,20260325_120141,D,J,False,AUTOMATION1,3,33,833,fixed_delta,0.04926863410845236,0.011780794413821632,,,,,0.46301186169114483,1667,1933,1,0.95,WHITE,WHITE,True,0,0.0015020013961475343,WHITE,True,CORRECT,4.495476885000244,4495.476885000244
1,20260325_120141,D,J,False,AUTOMATION1,3,34,834,fixed_delta,0.04926863410845236,0.011780794413821632,,,,,0.4477116269103415,1612,1988,1,0.95,WHITE,WHITE,True,0,0.001503000021330081,WHITE,True,CORRECT,1.2605119939998986,1260.5119939998986
1,20260325_120141,D,J,False,AUTOMATION1,3,35,835,fixed_delta,0.04926863410845236,0.011780794413821632,,,,,0.44223528756854874,1592,2008,1,0.95,WHITE,WHITE,True,0,0.0018030004866886884,WHITE,True,CORRECT,1.5716470549996302,1571.6470549996302
1,20260325_120141,D,J,False,AUTOMATION1,3,36,836,fixed_delta,0.04926863410845236,0.011780794413821632,,,,,0.5458315541624004,1965,1635,1,0.95,BLACK,BLACK,True,0,0.001503000021330081,WHITE,False,INCORRECT,8.82572990799963,8825.72990799963
1,20260325_120141,D,J,False,AUTOMATION1,3,37,837,fixed_delta,0.04926863410845236,0.011780794413821632,,,,,0.5517132094758588,1986,1614,1,0.95,BLACK,BLACK,True,0,0.0018029986676992849,WHITE,False,INCORRECT,1.1260997549998137,1126.0997549998137
1,20260325_120141,D,J,False,AUTOMATION1,3,38,838,fixed_delta,0.04926863410845236,0.011780794413821632,,,,,0.5550331839579937,1998,1602,1,0.95,BLACK,BLACK,True,0,0.001503000021330081,BLACK,True,CORRECT,1.3658108599993284,1365.8108599993284
1,20260325_120141,D,J,False,AUTOMATION1,3,39,839,fixed_delta,0.04926863410845236,0.011780794413821632,,,,,0.4446185042576552,1601,1999,1,0.95,WHITE,WHITE,True,0,0.0018030004866886884,WHITE,True,CORRECT,1.1070650250003382,1107.0650250003382
1,20260325_120141,D,J,False,AUTOMATION1,3,40,840,fixed_delta,0.04926863410845236,0.011780794413821632,,,,,0.5673528229420683,2042,1558,1,0.95,BLACK,WHITE,False,0,0.0021039995772298425,WHITE,False,INCORRECT,5.571774153999286,5571.774153999286
1,20260325_120141,D,J,False,AUTOMATION1,3,41,841,fixed_delta,0.04926863410845236,0.011780794413821632,,,,,0.563120555959979,2027,1573,1,0.95,BLACK,BLACK,True,0,0.0021029991330578923,BLACK,True,CORRECT,1.2847499509989575,1284.7499509989575
1,20260325_120141,D,J,False,AUTOMATION1,3,42,842,fixed_delta,0.04926863410845236,0.011780794413821632,,,,,0.5350624719882687,1926,1674,1,0.95,BLACK,BLACK,True,0,0.0015019995771581307,BLACK,True,CORRECT,3.6987795229997573,3698.7795229997573
1,20260325_120141,D,J,False,AUTOMATION1,3,43,843,fixed_delta,0.04926863410845236,0.011780794413821632,,,,,0.45128089027399765,1625,1975,1,0.95,WHITE,WHITE,True,0,0.001503000021330081,WHITE,True,CORRECT,1.7290172519988118,1729.0172519988118
1,20260325_120141,D,J,False,AUTOMATION1,3,44,844,fixed_delta,0.04926863410845236,0.011780794413821632,,,,,0.5655512035428014,2036,1564,1,0.95,BLACK,WHITE,False,0,0.0018020000425167382,BLACK,True,CORRECT,7.959414107999692,7959.414107999692
1,20260325_120141,D,J,False,AUTOMATION1,3,45,845,fixed_delta,0.04926863410845236,0.011780794413821632,,,,,0.5341614847197105,1923,1677,1,0.95,BLACK,BLACK,True,0,0.0018020000425167382,WHITE,False,INCORRECT,7.6890028529996925,7689.002852999693
1,20260325_120141,D,J,False,AUTOMATION1,3,46,846,fixed_delta,0.04926863410845236,0.011780794413821632,,,,,0.5479274931630689,1973,1627,1,0.95,BLACK,BLACK,True,0,0.0015019995771581307,WHITE,False,INCORRECT,8.60999054399872,8609.99054399872
1,20260325_120141,D,J,False,AUTOMATION1,3,47,847,fixed_delta,0.04926863410845236,0.011780794413821632,,,,,0.4271365576569164,1538,2062,1,0.95,WHITE,WHITE,True,0,0.0018030004866886884,WHITE,True,CORRECT,0.999364807999882,999.364807999882
1,20260325_120141,D,J,False,AUTOMATION1,3,48,848,fixed_delta,0.04926863410845236,0.011780794413821632,,,,,0.5593917379535106,2014,1586,1,0.95,BLACK,BLACK,True,0,0.0015019995771581307,BLACK,True,CORRECT,2.057837936999931,2057.837936999931
1,20260325_120141,D,J,False,AUTOMATION1,3,49,849,fixed_delta,0.04926863410845236,0.011780794413821632,,,,,0.5662275394832306,2038,1562,1,0.95,BLACK,BLACK,True,0,0.0015019995771581307,WHITE,False,INCORRECT,9.271610427998894,9271.610427998894
1,20260325_120141,D,J,False,AUTOMATION1,3,50,850,fixed_delta,0.04926863410845236,0.011780794413821632,,,,,0.5497834839693232,1979,1621,1,0.95,BLACK,BLACK,True,0,0.002104001396219246,BLACK,True,CORRECT,2.0831783169996925,2083.1783169996925
1,20260325_120141,D,J,False,AUTOMATION1,3,51,851,fixed_delta,0.04926863410845236,0.011780794413821632,,,,,0.5529826533474816,1991,1609,1,0.95,BLACK,BLACK,True,0,0.0012020009307889268,BLACK,True,CORRECT,1.9319085480001377,1931.9085480001377
1,20260325_120141,D,J,False,AUTOMATION1,3,52,852,fixed_delta,0.04926863410845236,0.011780794413821632,,,,,0.4482717189774656,1614,1986,1,0.95,WHITE,WHITE,True,0,0.001503000021330081,WHITE,True,CORRECT,0.8065623700003925,806.5623700003925
1,20260325_120141,D,J,False,AUTOMATION1,3,53,853,fixed_delta,0.04926863410845236,0.011780794413821632,,,,,0.5376773128567478,1936,1664,1,0.95,BLACK,BLACK,True,0,0.001503000021330081,BLACK,True,CORRECT,1.3489037530016503,1348.9037530016503
1,20260325_120141,D,J,False,AUTOMATION1,3,54,854,fixed_delta,0.04926863410845236,0.011780794413821632,,,,,0.5272241545879495,1898,1702,1,0.95,BLACK,BLACK,True,0,0.0018030004866886884,BLACK,True,CORRECT,1.0483358959991165,1048.3358959991165
1,20260325_120141,D,J,False,AUTOMATION1,3,55,855,fixed_delta,0.04926863410845236,0.011780794413821632,,,,,0.43198725668693344,1555,2045,1,0.95,WHITE,WHITE,True,0,0.0012020009307889268,WHITE,True,CORRECT,0.8974215830003232,897.4215830003232
1,20260325_120141,D,J,False,AUTOMATION1,3,56,856,fixed_delta,0.04926863410845236,0.011780794413821632,,,,,0.560447509391305,2018,1582,1,0.95,BLACK,BLACK,True,0,0.0012020009307889268,BLACK,True,CORRECT,2.974270513001102,2974.270513001102
1,20260325_120141,D,J,False,AUTOMATION1,3,57,857,fixed_delta,0.04926863410845236,0.011780794413821632,,,,,0.5416137195731715,1950,1650,1,0.95,BLACK,BLACK,True,0,0.0012010004866169766,BLACK,True,CORRECT,0.8223129699999845,822.3129699999845
1,20260325_120141,D,J,False,AUTOMATION1,3,58,858,fixed_delta,0.04926863410845236,0.011780794413821632,,,,,0.43494215719650525,1566,2034,1,0.95,WHITE,WHITE,True,0,0.00240400004258845,WHITE,True,CORRECT,0.8622513509999408,862.2513509999408
1,20260325_120141,D,J,False,AUTOMATION1,3,59,859,fixed_delta,0.04926863410845236,0.011780794413821632,,,,,0.5516409893166732,1986,1614,1,0.95,BLACK,BLACK,True,0,0.0015019995771581307,BLACK,True,CORRECT,3.3014016590004758,3301.401659000476
1,20260325_120141,D,J,False,AUTOMATION1,3,60,860,fixed_delta,0.04926863410845236,0.011780794413821632,,,,,0.5513032463525603,1985,1615,1,0.95,BLACK,BLACK,True,0,0.0018029986676992849,BLACK,True,CORRECT,2.0984151149987156,2098.4151149987156
1,20260325_120141,D,J,False,AUTOMATION1,3,61,861,fixed_delta,0.04926863410845236,0.011780794413821632,,,,,0.42725903690254896,1538,2062,1,0.95,WHITE,WHITE,True,0,0.0015019995771581307,WHITE,True,CORRECT,0.9061580279994814,906.1580279994814
1,20260325_120141,D,J,False,AUTOMATION1,3,62,862,fixed_delta,0.04926863410845236,0.011780794413821632,,,,,0.5691753465859877,2049,1551,1,0.95,BLACK,WHITE,False,0,0.0015019995771581307,BLACK,True,CORRECT,2.006629253999563,2006.629253999563
1,20260325_120141,D,J,False,AUTOMATION1,3,63,863,fixed_delta,0.04926863410845236,0.011780794413821632,,,,,0.5368590670895287,1933,1667,1,0.95,BLACK,BLACK,True,0,0.001503000021330081,BLACK,True,CORRECT,1.8183819309997489,1818.3819309997489
1,20260325_120141,D,J,False,AUTOMATION1,3,64,864,fixed_delta,0.04926863410845236,0.011780794413821632,,,,,0.5290445822950693,1905,1695,1,0.95,BLACK,BLACK,True,0,0.002103000952047296,BLACK,True,CORRECT,1.6175593660009326,1617.5593660009326
1,20260325_120141,D,J,False,AUTOMATION1,3,65,865,fixed_delta,0.04926863410845236,0.011780794413821632,,,,,0.5566764855997143,2004,1596,1,0.95,BLACK,BLACK,True,0,0.001503000021330081,BLACK,True,CORRECT,1.7568620429992734,1756.8620429992734
1,20260325_120141,D,J,False,AUTOMATION1,3,66,866,fixed_delta,0.04926863410845236,0.011780794413821632,,,,,0.4464404521758204,1607,1993,1,0.95,WHITE,WHITE,True,0,0.001503000021330081,WHITE,True,CORRECT,1.0303891650000878,1030.3891650000878
1,20260325_120141,D,J,False,AUTOMATION1,3,67,867,fixed_delta,0.04926863410845236,0.011780794413821632,,,,,0.45655752748199085,1644,1956,1,0.95,WHITE,WHITE,True,0,0.001503000021330081,WHITE,True,CORRECT,1.1385175509985856,1138.5175509985856
1,20260325_120141,D,J,False,AUTOMATION1,3,68,868,fixed_delta,0.04926863410845236,0.011780794413821632,,,,,0.5634038022744151,2028,1572,1,0.95,BLACK,BLACK,True,0,0.0015019995771581307,BLACK,True,CORRECT,3.816634400998737,3816.634400998737
1,20260325_120141,D,J,False,AUTOMATION1,3,69,869,fixed_delta,0.04926863410845236,0.011780794413821632,,,,,0.442833713633345,1594,2006,1,0.95,WHITE,WHITE,True,0,0.014723000276717357,WHITE,True,CORRECT,0.8617669939994812,861.7669939994812
1,20260325_120141,D,J,False,AUTOMATION1,3,70,870,fixed_delta,0.04926863410845236,0.011780794413821632,,,,,0.540418283541848,1946,1654,1,0.95,BLACK,WHITE,False,0,0.001503000021330081,WHITE,False,INCORRECT,3.412227659000564,3412.227659000564
1,20260325_120141,D,J,False,AUTOMATION1,3,71,871,fixed_delta,0.04926863410845236,0.011780794413821632,,,,,0.5201217167984131,1872,1728,1,0.95,BLACK,BLACK,True,0,0.001503000021330081,WHITE,False,INCORRECT,6.440566420998948,6440.566420998948
1,20260325_120141,D,J,False,AUTOMATION1,3,72,872,fixed_delta,0.04926863410845236,0.011780794413821632,,,,,0.4566274159978172,1644,1956,1,0.95,WHITE,WHITE,True,0,0.0015020013961475343,WHITE,True,CORRECT,0.8424864790013089,842.4864790013089
1,20260325_120141,D,J,False,AUTOMATION1,3,73,873,fixed_delta,0.04926863410845236,0.011780794413821632,,,,,0.5540906123201099,1995,1605,1,0.95,BLACK,BLACK,True,0,0.0012019991117995232,BLACK,True,CORRECT,0.9513756540000031,951.3756540000031
1,20260325_120141,D,J,False,AUTOMATION1,3,74,874,fixed_delta,0.04926863410845236,0.011780794413821632,,,,,0.43492351150879205,1566,2034,1,0.95,WHITE,WHITE,True,0,0.002103000952047296,WHITE,True,CORRECT,0.8463511160007329,846.3511160007329
1,20260325_120141,D,J,False,AUTOMATION1,3,75,875,fixed_delta,0.04926863410845236,0.011780794413821632,,,,,0.45359938405280187,1633,1967,1,0.95,WHITE,WHITE,True,0,0.0015019995771581307,WHITE,True,CORRECT,1.2343747699997039,1234.3747699997039
1,20260325_120141,D,J,False,AUTOMATION1,3,76,876,fixed_delta,0.04926863410845236,0.011780794413821632,,,,,0.46289424948027436,1666,1934,1,0.95,WHITE,WHITE,True,0,0.0018029986676992849,WHITE,True,CORRECT,2.189624675000232,2189.624675000232
1,20260325_120141,D,J,False,AUTOMATION1,3,77,877,fixed_delta,0.04926863410845236,0.011780794413821632,,,,,0.532693090285351,1918,1682,1,0.95,BLACK,BLACK,True,0,0.0015020013961475343,BLACK,True,CORRECT,2.023974445000931,2023.9744450009312
1,20260325_120141,D,J,False,AUTOMATION1,3,78,878,fixed_delta,0.04926863410845236,0.011780794413821632,,,,,0.5306115827777995,1910,1690,1,0.95,BLACK,BLACK,True,0,0.0018030004866886884,BLACK,True,CORRECT,7.220983454000816,7220.983454000816
1,20260325_120141,D,J,False,AUTOMATION1,3,79,879,fixed_delta,0.04926863410845236,0.011780794413821632,,,,,0.4539850686185752,1634,1966,1,0.95,WHITE,WHITE,True,0,0.0015020013961475343,WHITE,True,CORRECT,0.8608096990010381,860.8096990010381
1,20260325_120141,D,J,False,AUTOMATION1,3,80,880,fixed_delta,0.04926863410845236,0.011780794413821632,,,,,0.5426239999284943,1953,1647,1,0.95,BLACK,WHITE,False,0,0.0018030004866886884,WHITE,False,INCORRECT,8.437045822000073,8437.045822000073
1,20260325_120141,D,J,False,AUTOMATION1,3,81,881,fixed_delta,0.04926863410845236,0.011780794413821632,,,,,0.5382634194677969,1938,1662,1,0.95,BLACK,BLACK,True,0,0.0012019991117995232,BLACK,True,CORRECT,1.897504212000058,1897.504212000058
1,20260325_120141,D,J,False,AUTOMATION1,3,82,882,fixed_delta,0.04926863410845236,0.011780794413821632,,,,,0.4602289047680058,1657,1943,1,0.95,WHITE,WHITE,True,0,0.0015019995771581307,WHITE,True,CORRECT,1.6833897859996796,1683.3897859996796
1,20260325_120141,D,J,False,AUTOMATION1,3,83,883,fixed_delta,0.04926863410845236,0.011780794413821632,,,,,0.5458636718610822,1965,1635,1,0.95,BLACK,BLACK,True,0,0.001503000021330081,BLACK,True,CORRECT,1.9952724159993522,1995.2724159993522
1,20260325_120141,D,J,False,AUTOMATION1,3,84,884,fixed_delta,0.04926863410845236,0.011780794413821632,,,,,0.457795744014646,1648,1952,1,0.95,WHITE,WHITE,True,0,0.0027040005079470575,WHITE,True,CORRECT,2.4390911160007818,2439.0911160007818
1,20260325_120141,D,J,False,AUTOMATION1,3,85,885,fixed_delta,0.04926863410845236,0.011780794413821632,,,,,0.43481434800327873,1565,2035,1,0.95,WHITE,WHITE,True,0,0.0015019995771581307,WHITE,True,CORRECT,1.2604720309991535,1260.4720309991535
1,20260325_120141,D,J,False,AUTOMATION1,3,86,886,fixed_delta,0.04926863410845236,0.011780794413821632,,,,,0.5548744779265069,1998,1602,1,0.95,BLACK,BLACK,True,0,0.001503000021330081,BLACK,True,CORRECT,1.9806488760004868,1980.6488760004868
1,20260325_120141,D,J,False,AUTOMATION1,3,87,887,fixed_delta,0.04926863410845236,0.011780794413821632,,,,,0.4541346241766424,1635,1965,1,0.95,WHITE,WHITE,True,0,0.0018029986676992849,WHITE,True,CORRECT,1.0140403299992613,1014.0403299992613
1,20260325_120141,D,J,False,AUTOMATION1,3,88,888,fixed_delta,0.04926863410845236,0.011780794413821632,,,,,0.5476473001579486,1972,1628,1,0.95,BLACK,WHITE,False,0,0.001503000021330081,BLACK,True,CORRECT,3.6760024489994976,3676.0024489994976
1,20260325_120141,D,J,False,AUTOMATION1,3,89,889,fixed_delta,0.04926863410845236,0.011780794413821632,,,,,0.4362882237346156,1571,2029,1,0.95,WHITE,WHITE,True,0,0.0015019995771581307,WHITE,True,CORRECT,0.9977621039997757,997.7621039997757
1,20260325_120141,D,J,False,AUTOMATION1,3,90,890,fixed_delta,0.04926863410845236,0.011780794413821632,,,,,0.4559977847817557,1642,1958,1,0.95,WHITE,WHITE,True,0,0.0012019991117995232,WHITE,True,CORRECT,1.4045608839987835,1404.5608839987835
1,20260325_120141,D,J,False,AUTOMATION1,3,91,891,fixed_delta,0.04926863410845236,0.011780794413821632,,,,,0.45105247249831304,1624,1976,1,0.95,WHITE,WHITE,True,0,0.0015019995771581307,WHITE,True,CORRECT,1.6597383450007328,1659.7383450007328
1,20260325_120141,D,J,False,AUTOMATION1,3,92,892,fixed_delta,0.04926863410845236,0.011780794413821632,,,,,0.5574405317829954,2007,1593,1,0.95,BLACK,BLACK,True,0,0.0012019991117995232,BLACK,True,CORRECT,4.0521707859988965,4052.1707859988965
1,20260325_120141,D,J,False,AUTOMATION1,3,93,893,fixed_delta,0.04926863410845236,0.011780794413821632,,,,,0.4411671525666484,1588,2012,1,0.95,WHITE,WHITE,True,0,0.002103000952047296,WHITE,True,CORRECT,1.1395797090008273,1139.5797090008273
1,20260325_120141,D,J,False,AUTOMATION1,3,94,894,fixed_delta,0.04926863410845236,0.011780794413821632,,,,,0.5440861146647353,1959,1641,1,0.95,BLACK,BLACK,True,0,0.0018030004866886884,BLACK,True,CORRECT,9.37284094000097,9372.84094000097
1,20260325_120141,D,J,False,AUTOMATION1,3,95,895,fixed_delta,0.04926863410845236,0.011780794413821632,,,,,0.44035153286916856,1585,2015,1,0.95,WHITE,WHITE,True,0,0.001503000021330081,WHITE,True,CORRECT,0.8182142690002365,818.2142690002365
1,20260325_120141,D,J,False,AUTOMATION1,3,96,896,fixed_delta,0.04926863410845236,0.011780794413821632,,,,,0.4381784321089491,1577,2023,1,0.95,WHITE,WHITE,True,0,0.0015019995771581307,WHITE,True,CORRECT,2.5467760089995863,2546.7760089995863
1,20260325_120141,D,J,False,AUTOMATION1,3,97,897,fixed_delta,0.04926863410845236,0.011780794413821632,,,,,0.5502115869587572,1981,1619,1,0.95,BLACK,BLACK,True,0,0.0018020000425167382,BLACK,True,CORRECT,7.986845453000569,7986.845453000569
1,20260325_120141,D,J,False,AUTOMATION1,3,98,898,fixed_delta,0.04926863410845236,0.011780794413821632,,,,,0.5386332678745721,1939,1661,1,0.95,BLACK,BLACK,True,0,0.0012019991117995232,BLACK,True,CORRECT,3.904933916999653,3904.933916999653
1,20260325_120141,D,J,False,AUTOMATION1,3,99,899,fixed_delta,0.04926863410845236,0.011780794413821632,,,,,0.4576726645883026,1648,1952,1,0.95,WHITE,WHITE,True,0,0.0015019995771581307,WHITE,True,CORRECT,0.7195386469993537,719.5386469993537
1,20260325_120141,D,J,False,AUTOMATION1,3,100,900,fixed_delta,0.04926863410845236,0.011780794413821632,,,,,0.42533161543413783,1531,2069,1,0.95,WHITE,WHITE,True,0,0.0015019995771581307,WHITE,True,CORRECT,2.35188621099951,2351.88621099951
1,20260325_120141,D,J,False,AUTOMATION1,3,101,901,fixed_delta,0.04926863410845236,0.011780794413821632,,,,,0.5417583200403109,1950,1650,1,0.95,BLACK,BLACK,True,0,0.0018029986676992849,BLACK,True,CORRECT,5.211446858998897,5211.446858998897
1,20260325_120141,D,J,False,AUTOMATION1,3,102,902,fixed_delta,0.04926863410845236,0.011780794413821632,,,,,0.44952185119904975,1618,1982,1,0.95,WHITE,WHITE,True,0,0.0018030004866886884,WHITE,True,CORRECT,0.8293340370000806,829.3340370000806
1,20260325_120141,D,J,False,AUTOMATION1,3,103,903,fixed_delta,0.04926863410845236,0.011780794413821632,,,,,0.4291895258808001,1545,2055,1,0.95,WHITE,WHITE,True,0,0.001503000021330081,WHITE,True,CORRECT,1.5353852190000907,1535.3852190000907
1,20260325_120141,D,J,False,AUTOMATION1,3,104,904,fixed_delta,0.04926863410845236,0.011780794413821632,,,,,0.45058195757475106,1622,1978,1,0.95,WHITE,WHITE,True,0,0.0015019995771581307,WHITE,True,CORRECT,2.856096235998848,2856.096235998848
1,20260325_120141,D,J,False,AUTOMATION1,3,105,905,fixed_delta,0.04926863410845236,0.011780794413821632,,,,,0.45945527593134194,1654,1946,1,0.95,WHITE,WHITE,True,0,0.0012020009307889268,WHITE,True,CORRECT,2.473487641000247,2473.487641000247
1,20260325_120141,D,J,False,AUTOMATION1,3,106,906,fixed_delta,0.04926863410845236,0.011780794413821632,,,,,0.5484257220940844,1974,1626,1,0.95,BLACK,WHITE,False,0,0.0018030004866886884,WHITE,False,INCORRECT,3.459718635000172,3459.718635000172
1,20260325_120141,D,J,False,AUTOMATION1,3,107,907,fixed_delta,0.04926863410845236,0.011780794413821632,,,,,0.5393704824242852,1942,1658,1,0.95,BLACK,BLACK,True,0,0.0015019995771581307,BLACK,True,CORRECT,1.3579983569998149,1357.9983569998149
1,20260325_120141,D,J,False,AUTOMATION1,3,108,908,fixed_delta,0.04926863410845236,0.011780794413821632,,,,,0.5328366475661699,1918,1682,1,0.95,BLACK,BLACK,True,0,0.0015019995771581307,BLACK,True,CORRECT,9.56995030500002,9569.95030500002
1,20260325_120141,D,J,False,AUTOMATION1,3,109,909,fixed_delta,0.04926863410845236,0.011780794413821632,,,,,0.4490561563223192,1617,1983,1,0.95,WHITE,WHITE,True,0,0.001503000021330081,WHITE,True,CORRECT,2.35636801200053,2356.36801200053
1,20260325_120141,D,J,False,AUTOMATION1,3,110,910,fixed_delta,0.04926863410845236,0.011780794413821632,,,,,0.5439328883356439,1958,1642,1,0.95,BLACK,BLACK,True,0,0.0015019995771581307,BLACK,True,CORRECT,1.649369149999984,1649.369149999984
1,20260325_120141,D,J,False,AUTOMATION1,3,111,911,fixed_delta,0.04926863410845236,0.011780794413821632,,,,,0.575979288630177,2074,1526,1,0.95,BLACK,BLACK,True,0,0.0015019995771581307,BLACK,True,CORRECT,1.32961031800005,1329.61031800005
1,20260325_120141,D,J,False,AUTOMATION1,3,112,912,fixed_delta,0.04926863410845236,0.011780794413821632,,,,,0.439069461233546,1581,2019,1,0.95,WHITE,WHITE,True,0,0.001503000021330081,WHITE,True,CORRECT,0.7378753879984288,737.8753879984288
1,20260325_120141,D,J,False,AUTOMATION1,3,113,913,fixed_delta,0.04926863410845236,0.011780794413821632,,,,,0.5533626034446989,1992,1608,1,0.95,BLACK,BLACK,True,0,0.001503000021330081,BLACK,True,CORRECT,1.5694968979987607,1569.4968979987607
1,20260325_120141,D,J,False,AUTOMATION1,3,114,914,fixed_delta,0.04926863410845236,0.011780794413821632,,,,,0.4525796674772355,1629,1971,1,0.95,WHITE,BLACK,False,0,0.0018030004866886884,WHITE,True,CORRECT,0.7249374800012447,724.9374800012447
1,20260325_120141,D,J,False,AUTOMATION1,3,115,915,fixed_delta,0.04926863410845236,0.011780794413821632,,,,,0.5235292713292705,1885,1715,1,0.95,BLACK,BLACK,True,0,0.0015019995771581307,WHITE,False,INCORRECT,3.9159130640000512,3915.9130640000512
1,20260325_120141,D,J,False,AUTOMATION1,3,116,916,fixed_delta,0.04926863410845236,0.011780794413821632,,,,,0.4534358781694096,1632,1968,1,0.95,WHITE,WHITE,True,0,0.0018030004866886884,WHITE,True,CORRECT,7.204265643000326,7204.265643000326
1,20260325_120141,D,J,False,AUTOMATION1,3,117,917,fixed_delta,0.04926863410845236,0.011780794413821632,,,,,0.452133954517436,1628,1972,1,0.95,WHITE,WHITE,True,0,0.0012019991117995232,WHITE,True,CORRECT,1.5629439620006451,1562.9439620006451
1,20260325_120141,D,J,False,AUTOMATION1,3,118,918,fixed_delta,0.04926863410845236,0.011780794413821632,,,,,0.5341340933617882,1923,1677,1,0.95,BLACK,BLACK,True,0,0.0015019995771581307,BLACK,True,CORRECT,3.4084107970011246,3408.4107970011246
1,20260325_120141,D,J,False,AUTOMATION1,3,119,919,fixed_delta,0.04926863410845236,0.011780794413821632,,,,,0.5439900523606767,1958,1642,1,0.95,BLACK,BLACK,True,0,0.001503000021330081,BLACK,True,CORRECT,0.7305496459994174,730.5496459994174
1,20260325_120141,D,J,False,AUTOMATION1,3,120,920,fixed_delta,0.04926863410845236,0.011780794413821632,,,,,0.4439935330669097,1598,2002,1,0.95,WHITE,WHITE,True,0,0.0015019995771581307,WHITE,True,CORRECT,5.682313204999446,5682.313204999446
1,20260325_120141,D,J,False,AUTOMATION1,3,121,921,fixed_delta,0.04926863410845236,0.011780794413821632,,,,,0.4456782497371152,1604,1996,1,0.95,WHITE,WHITE,True,0,0.0018030004866886884,WHITE,True,CORRECT,1.2670571159997053,1267.0571159997053
1,20260325_120141,D,J,False,AUTOMATION1,3,122,922,fixed_delta,0.04926863410845236,0.011780794413821632,,,,,0.4636626081726875,1669,1931,1,0.95,WHITE,WHITE,True,0,0.0021039995772298425,WHITE,True,CORRECT,0.8032286629986629,803.2286629986629
1,20260325_120141,D,J,False,AUTOMATION1,3,123,923,fixed_delta,0.04926863410845236,0.011780794413821632,,,,,0.45320656089648265,1632,1968,1,0.95,WHITE,WHITE,True,0,0.0015019995771581307,WHITE,True,CORRECT,1.3101717570007168,1310.1717570007168
1,20260325_120141,D,J,False,AUTOMATION1,3,124,924,fixed_delta,0.04926863410845236,0.011780794413821632,,,,,0.45082915296754905,1623,1977,1,0.95,WHITE,WHITE,True,0,0.0012020009307889268,WHITE,True,CORRECT,1.530368281999472,1530.368281999472
1,20260325_120141,D,J,False,AUTOMATION1,3,125,925,fixed_delta,0.04926863410845236,0.011780794413821632,,,,,0.46587934203924053,1677,1923,1,0.95,WHITE,WHITE,True,0,0.0015019995771581307,WHITE,True,CORRECT,2.850479863998771,2850.479863998771
1,20260325_120141,D,J,False,AUTOMATION1,3,126,926,fixed_delta,0.04926863410845236,0.011780794413821632,,,,,0.4499552281889897,1620,1980,1,0.95,WHITE,WHITE,True,0,0.0018030004866886884,WHITE,True,CORRECT,1.3576795589997346,1357.6795589997346
1,20260325_120141,D,J,False,AUTOMATION1,3,127,927,fixed_delta,0.04926863410845236,0.011780794413821632,,,,,0.4706454378992743,1694,1906,1,0.95,WHITE,WHITE,True,0,0.0015019995771581307,WHITE,True,CORRECT,4.123627192999265,4123.627192999265
1,20260325_120141,D,J,False,AUTOMATION1,3,128,928,fixed_delta,0.04926863410845236,0.011780794413821632,,,,,0.4563454410651891,1643,1957,1,0.95,WHITE,WHITE,True,0,0.0015020013961475343,WHITE,True,CORRECT,3.6337919200013857,3633.7919200013857
1,20260325_120141,D,J,False,AUTOMATION1,3,129,929,fixed_delta,0.04926863410845236,0.011780794413821632,,,,,0.45971895189961337,1655,1945,1,0.95,WHITE,WHITE,True,0,0.0015019995771581307,WHITE,True,CORRECT,1.8175018559995806,1817.5018559995806
1,20260325_120141,D,J,False,AUTOMATION1,3,130,930,fixed_delta,0.04926863410845236,0.011780794413821632,,,,,0.4262998827113437,1535,2065,1,0.95,WHITE,WHITE,True,0,0.0015020013961475343,WHITE,True,CORRECT,2.0009425719999854,2000.9425719999854
1,20260325_120141,D,J,False,AUTOMATION1,3,131,931,fixed_delta,0.04926863410845236,0.011780794413821632,,,,,0.46527906275539,1675,1925,1,0.95,WHITE,WHITE,True,0,0.0015019995771581307,WHITE,True,CORRECT,8.557832677999613,8557.832677999613
1,20260325_120141,D,J,False,AUTOMATION1,3,132,932,fixed_delta,0.04926863410845236,0.011780794413821632,,,,,0.5534607952717234,1992,1608,1,0.95,BLACK,BLACK,True,0,0.0015019995771581307,BLACK,True,CORRECT,2.5576638149996143,2557.6638149996143
1,20260325_120141,D,J,False,AUTOMATION1,3,133,933,fixed_delta,0.04926863410845236,0.011780794413821632,,,,,0.4609236069198671,1659,1941,1,0.95,WHITE,WHITE,True,0,0.0015019995771581307,WHITE,True,CORRECT,7.125181520999831,7125.181520999831
1,20260325_120141,D,J,False,AUTOMATION1,3,134,934,fixed_delta,0.04926863410845236,0.011780794413821632,,,,,0.5307599386531494,1911,1689,1,0.95,BLACK,BLACK,True,0,0.002104001396219246,WHITE,False,INCORRECT,6.961469920001036,6961.469920001036
1,20260325_120141,D,J,False,AUTOMATION1,3,135,935,fixed_delta,0.04926863410845236,0.011780794413821632,,,,,0.46355384852522846,1669,1931,1,0.95,WHITE,WHITE,True,0,0.0018030004866886884,WHITE,True,CORRECT,2.012935803999426,2012.9358039994258
1,20260325_120141,D,J,False,AUTOMATION1,3,136,936,fixed_delta,0.04926863410845236,0.011780794413821632,,,,,0.45643384805034165,1643,1957,1,0.95,WHITE,WHITE,True,0,0.001503000021330081,WHITE,True,CORRECT,0.9751668139997491,975.1668139997491
1,20260325_120141,D,J,False,AUTOMATION1,3,137,937,fixed_delta,0.04926863410845236,0.011780794413821632,,,,,0.4545255157788041,1636,1964,1,0.95,WHITE,WHITE,True,0,0.0015020013961475343,WHITE,True,CORRECT,1.9592569630003709,1959.256963000371
1,20260325_120141,D,J,False,AUTOMATION1,3,138,938,fixed_delta,0.04926863410845236,0.011780794413821632,,,,,0.4479929067923094,1613,1987,1,0.95,WHITE,WHITE,True,0,0.00240400004258845,WHITE,True,CORRECT,0.8084457109998766,808.4457109998766
1,20260325_120141,D,J,False,AUTOMATION1,3,139,939,fixed_delta,0.04926863410845236,0.011780794413821632,,,,,0.4461014050944546,1606,1994,1,0.95,WHITE,WHITE,True,0,0.0018030004866886884,WHITE,True,CORRECT,1.8971142030004557,1897.1142030004557
1,20260325_120141,D,J,False,AUTOMATION1,3,140,940,fixed_delta,0.04926863410845236,0.011780794413821632,,,,,0.4487009139649309,1615,1985,1,0.95,WHITE,WHITE,True,0,0.0012019991117995232,WHITE,True,CORRECT,0.7470814669995889,747.0814669995889
1,20260325_120141,D,J,False,AUTOMATION1,3,141,941,fixed_delta,0.04926863410845236,0.011780794413821632,,,,,0.4672418765653557,1682,1918,1,0.95,WHITE,WHITE,True,0,0.0018020000425167382,WHITE,True,CORRECT,3.6032128579990967,3603.2128579990967
1,20260325_120141,D,J,False,AUTOMATION1,3,142,942,fixed_delta,0.04926863410845236,0.011780794413821632,,,,,0.4665144662394516,1679,1921,1,0.95,WHITE,BLACK,False,0,0.0015019995771581307,WHITE,True,CORRECT,2.6685087440000643,2668.5087440000643
1,20260325_120141,D,J,False,AUTOMATION1,3,143,943,fixed_delta,0.04926863410845236,0.011780794413821632,,,,,0.5523479548433925,1988,1612,1,0.95,BLACK,BLACK,True,0,0.0018029986676992849,BLACK,True,CORRECT,3.1997081239987892,3199.7081239987892
1,20260325_120141,D,J,False,AUTOMATION1,3,144,944,fixed_delta,0.04926863410845236,0.011780794413821632,,,,,0.4351676219274328,1567,2033,1,0.95,WHITE,WHITE,True,0,0.0015019995771581307,WHITE,True,CORRECT,1.321403600000849,1321.403600000849
1,20260325_120141,D,J,False,AUTOMATION1,3,145,945,fixed_delta,0.04926863410845236,0.011780794413821632,,,,,0.45875212679412536,1652,1948,1,0.95,WHITE,WHITE,True,0,0.001503000021330081,WHITE,True,CORRECT,2.7018884799999796,2701.8884799999796
1,20260325_120141,D,J,False,AUTOMATION1,3,146,946,fixed_delta,0.04926863410845236,0.011780794413821632,,,,,0.5430194437456349,1955,1645,1,0.95,BLACK,BLACK,True,0,0.0012020009307889268,BLACK,True,CORRECT,5.8003195189994585,5800.3195189994585
1,20260325_120141,D,J,False,AUTOMATION1,3,147,947,fixed_delta,0.04926863410845236,0.011780794413821632,,,,,0.5633856500303296,2028,1572,1,0.95,BLACK,BLACK,True,0,0.0018030004866886884,BLACK,True,CORRECT,4.751133596000727,4751.133596000727
1,20260325_120141,D,J,False,AUTOMATION1,3,148,948,fixed_delta,0.04926863410845236,0.011780794413821632,,,,,0.5417368053094471,1950,1650,1,0.95,BLACK,BLACK,True,0,0.0015019995771581307,BLACK,True,CORRECT,1.1393862069999159,1139.3862069999159
1,20260325_120141,D,J,False,AUTOMATION1,3,149,949,fixed_delta,0.04926863410845236,0.011780794413821632,,,,,0.5305056235267377,1910,1690,1,0.95,BLACK,WHITE,False,0,0.001200998667627573,BLACK,True,CORRECT,4.468818045999797,4468.818045999797
1,20260325_120141,D,J,False,AUTOMATION1,3,150,950,fixed_delta,0.04926863410845236,0.011780794413821632,,,,,0.567599578811583,2043,1557,1,0.95,BLACK,BLACK,True,0,0.0015020013961475343,BLACK,True,CORRECT,1.7700195939996775,1770.0195939996775
1,20260325_120141,D,J,False,AUTOMATION1,3,151,951,fixed_delta,0.04926863410845236,0.011780794413821632,,,,,0.4616968939116084,1662,1938,1,0.95,WHITE,WHITE,True,0,0.0015019995771581307,WHITE,True,CORRECT,1.2683722699985083,1268.3722699985083
1,20260325_120141,D,J,False,AUTOMATION1,3,152,952,fixed_delta,0.04926863410845236,0.011780794413821632,,,,,0.5610221021810634,2020,1580,1,0.95,BLACK,BLACK,True,0,0.001503000021330081,BLACK,True,CORRECT,3.367131122000501,3367.131122000501
1,20260325_120141,D,J,False,AUTOMATION1,3,153,953,fixed_delta,0.04926863410845236,0.011780794413821632,,,,,0.45996335877815864,1656,1944,1,0.95,WHITE,WHITE,True,0,0.0015019995771581307,WHITE,True,CORRECT,1.8953255090000312,1895.3255090000312
1,20260325_120141,D,J,False,AUTOMATION1,3,154,954,fixed_delta,0.04926863410845236,0.011780794413821632,,,,,0.4641366857878284,1671,1929,1,0.95,WHITE,WHITE,True,0,0.0015019995771581307,WHITE,True,CORRECT,1.0824349550002808,1082.4349550002808
1,20260325_120141,D,J,False,AUTOMATION1,3,155,955,fixed_delta,0.04926863410845236,0.011780794413821632,,,,,0.4692965442298918,1689,1911,1,0.95,WHITE,WHITE,True,0,0.0018030004866886884,WHITE,True,CORRECT,2.6283191719994647,2628.3191719994647
1,20260325_120141,D,J,False,AUTOMATION1,3,156,956,fixed_delta,0.04926863410845236,0.011780794413821632,,,,,0.5438331610064872,1958,1642,1,0.95,BLACK,BLACK,True,0,0.0018030004866886884,BLACK,True,CORRECT,4.397903385000973,4397.903385000973
1,20260325_120141,D,J,False,AUTOMATION1,3,157,957,fixed_delta,0.04926863410845236,0.011780794413821632,,,,,0.46839263220211186,1686,1914,1,0.95,WHITE,WHITE,True,0,0.001503000021330081,WHITE,True,CORRECT,0.8759713800009195,875.9713800009195
1,20260325_120141,D,J,False,AUTOMATION1,3,158,958,fixed_delta,0.04926863410845236,0.011780794413821632,,,,,0.5537762279987894,1994,1606,1,0.95,BLACK,BLACK,True,0,0.001503000021330081,BLACK,True,CORRECT,1.18816649800101,1188.16649800101
1,20260325_120141,D,J,False,AUTOMATION1,3,159,959,fixed_delta,0.04926863410845236,0.011780794413821632,,,,,0.5741742069179819,2067,1533,1,0.95,BLACK,BLACK,True,0,0.001503000021330081,BLACK,True,CORRECT,0.7940928939988225,794.0928939988225
1,20260325_120141,D,J,False,AUTOMATION1,3,160,960,fixed_delta,0.04926863410845236,0.011780794413821632,,,,,0.5597069859452265,2015,1585,1,0.95,BLACK,BLACK,True,0,0.0012010004866169766,BLACK,True,CORRECT,1.390002543999799,1390.002543999799
1,20260325_120141,D,J,False,AUTOMATION1,3,161,961,fixed_delta,0.04926863410845236,0.011780794413821632,,,,,0.5371873637535323,1934,1666,1,0.95,BLACK,BLACK,True,0,0.001503000021330081,BLACK,True,CORRECT,1.0853834610006743,1085.3834610006743
1,20260325_120141,D,J,False,AUTOMATION1,3,162,962,fixed_delta,0.04926863410845236,0.011780794413821632,,,,,0.4522923249904451,1628,1972,1,0.95,WHITE,WHITE,True,0,0.0015019995771581307,WHITE,True,CORRECT,1.5417885189999652,1541.7885189999652
1,20260325_120141,D,J,False,AUTOMATION1,3,163,963,fixed_delta,0.04926863410845236,0.011780794413821632,,,,,0.5503932679058751,1981,1619,1,0.95,BLACK,WHITE,False,0,0.0012020009307889268,BLACK,True,CORRECT,3.531138385000304,3531.138385000304
1,20260325_120141,D,J,False,AUTOMATION1,3,164,964,fixed_delta,0.04926863410845236,0.011780794413821632,,,,,0.5476549496616296,1972,1628,1,0.95,BLACK,BLACK,True,0,0.0015019995771581307,BLACK,True,CORRECT,2.2673548820002907,2267.3548820002907
1,20260325_120141,D,J,False,AUTOMATION1,3,165,965,fixed_delta,0.04926863410845236,0.011780794413821632,,,,,0.5719660751771106,2059,1541,1,0.95,BLACK,BLACK,True,0,0.001503000021330081,BLACK,True,CORRECT,2.152436491000117,2152.436491000117
1,20260325_120141,D,J,False,AUTOMATION1,3,166,966,fixed_delta,0.04926863410845236,0.011780794413821632,,,,,0.5515551931385801,1986,1614,1,0.95,BLACK,BLACK,True,0,0.0015020013961475343,WHITE,False,INCORRECT,0.7768826130013622,776.8826130013622
1,20260325_120141,D,J,False,AUTOMATION1,3,167,967,fixed_delta,0.04926863410845236,0.011780794413821632,,,,,0.4601623215479377,1657,1943,1,0.95,WHITE,WHITE,True,0,0.0018029986676992849,WHITE,True,CORRECT,0.7802172219999193,780.2172219999193
1,20260325_120141,D,J,False,AUTOMATION1,3,168,968,fixed_delta,0.04926863410845236,0.011780794413821632,,,,,0.4293738497295141,1546,2054,1,0.95,WHITE,WHITE,True,0,0.0015019995771581307,WHITE,True,CORRECT,1.1389805729995715,1138.9805729995715
1,20260325_120141,D,J,False,AUTOMATION1,3,169,969,fixed_delta,0.04926863410845236,0.011780794413821632,,,,,0.5594152138905266,2014,1586,1,0.95,BLACK,BLACK,True,0,0.0015019995771581307,BLACK,True,CORRECT,0.9156705860004877,915.6705860004877
1,20260325_120141,D,J,False,AUTOMATION1,3,170,970,fixed_delta,0.04926863410845236,0.011780794413821632,,,,,0.44362096302724335,1597,2003,1,0.95,WHITE,WHITE,True,0,0.0018029986676992849,WHITE,True,CORRECT,0.8143069660000037,814.3069660000037
1,20260325_120141,D,J,False,AUTOMATION1,3,171,971,fixed_delta,0.04926863410845236,0.011780794413821632,,,,,0.46219643235965685,1664,1936,1,0.95,WHITE,WHITE,True,0,0.0018030004866886884,WHITE,True,CORRECT,0.8751015210000332,875.1015210000332
1,20260325_120141,D,J,False,AUTOMATION1,3,172,972,fixed_delta,0.04926863410845236,0.011780794413821632,,,,,0.540786858234826,1947,1653,1,0.95,BLACK,BLACK,True,0,0.0015019995771581307,WHITE,False,INCORRECT,2.030507849998685,2030.5078499986848
1,20260325_120141,D,J,False,AUTOMATION1,3,173,973,fixed_delta,0.04926863410845236,0.011780794413821632,,,,,0.4680434464779215,1685,1915,1,0.95,WHITE,WHITE,True,0,0.0015019995771581307,WHITE,True,CORRECT,1.4611575819999416,1461.1575819999416
1,20260325_120141,D,J,False,AUTOMATION1,3,174,974,fixed_delta,0.04926863410845236,0.011780794413821632,,,,,0.5451110558678273,1962,1638,1,0.95,BLACK,BLACK,True,0,0.0015019995771581307,BLACK,True,CORRECT,3.3897125919993414,3389.7125919993414
1,20260325_120141,D,J,False,AUTOMATION1,3,175,975,fixed_delta,0.04926863410845236,0.011780794413821632,,,,,0.4531231241403683,1631,1969,1,0.95,WHITE,WHITE,True,0,0.0018030004866886884,WHITE,True,CORRECT,2.0639542900007655,2063.9542900007655
1,20260325_120141,D,J,False,AUTOMATION1,3,176,976,fixed_delta,0.04926863410845236,0.011780794413821632,,,,,0.5640850593552813,2031,1569,1,0.95,BLACK,BLACK,True,0,0.00240400004258845,BLACK,True,CORRECT,2.261737308001102,2261.737308001102
1,20260325_120141,D,J,False,AUTOMATION1,3,177,977,fixed_delta,0.04926863410845236,0.011780794413821632,,,,,0.5594425852414296,2014,1586,1,0.95,BLACK,BLACK,True,0,0.001503000021330081,BLACK,True,CORRECT,0.7739106709996122,773.9106709996122
1,20260325_120141,D,J,False,AUTOMATION1,3,178,978,fixed_delta,0.04926863410845236,0.011780794413821632,,,,,0.4468424425990631,1609,1991,1,0.95,WHITE,BLACK,False,0,0.0015019995771581307,WHITE,True,CORRECT,6.255983319999359,6255.983319999359
1,20260325_120141,D,J,False,AUTOMATION1,3,179,979,fixed_delta,0.04926863410845236,0.011780794413821632,,,,,0.5603522668301175,2017,1583,1,0.95,BLACK,BLACK,True,0,0.001503000021330081,BLACK,True,CORRECT,1.382749516998956,1382.749516998956
1,20260325_120141,D,J,False,AUTOMATION1,3,180,980,fixed_delta,0.04926863410845236,0.011780794413821632,,,,,0.56159980852821,2022,1578,1,0.95,BLACK,BLACK,True,0,0.0015019995771581307,BLACK,True,CORRECT,1.431285824999577,1431.285824999577
1,20260325_120141,D,J,False,AUTOMATION1,3,181,981,fixed_delta,0.04926863410845236,0.011780794413821632,,,,,0.567210310399871,2042,1558,1,0.95,BLACK,BLACK,True,0,0.001503000021330081,BLACK,True,CORRECT,0.9028558710015204,902.8558710015204
1,20260325_120141,D,J,False,AUTOMATION1,3,182,982,fixed_delta,0.04926863410845236,0.011780794413821632,,,,,0.45485691505251086,1637,1963,1,0.95,WHITE,WHITE,True,0,0.0018029986676992849,WHITE,True,CORRECT,1.8778796599999623,1877.8796599999623
1,20260325_120141,D,J,False,AUTOMATION1,3,183,983,fixed_delta,0.04926863410845236,0.011780794413821632,,,,,0.5643679445807297,2032,1568,1,0.95,BLACK,BLACK,True,0,0.001503000021330081,BLACK,True,CORRECT,9.66699467899889,9666.99467899889
1,20260325_120141,D,J,False,AUTOMATION1,3,184,984,fixed_delta,0.04926863410845236,0.011780794413821632,,,,,0.449836439141901,1619,1981,1,0.95,WHITE,WHITE,True,0,0.0012020009307889268,WHITE,True,CORRECT,0.8183954520009138,818.3954520009138
1,20260325_120141,D,J,False,AUTOMATION1,3,185,985,fixed_delta,0.04926863410845236,0.011780794413821632,,,,,0.5614051099531017,2021,1579,1,0.95,BLACK,BLACK,True,0,0.0015019995771581307,BLACK,True,CORRECT,4.908265218999077,4908.265218999077
1,20260325_120141,D,J,False,AUTOMATION1,3,186,986,fixed_delta,0.04926863410845236,0.011780794413821632,,,,,0.4230817294051178,1523,2077,1,0.95,WHITE,WHITE,True,0,0.0015020013961475343,WHITE,True,CORRECT,0.6843500870018033,684.3500870018033
1,20260325_120141,D,J,False,AUTOMATION1,3,187,987,fixed_delta,0.04926863410845236,0.011780794413821632,,,,,0.5561073052016992,2002,1598,1,0.95,BLACK,BLACK,True,0,0.0015030018403194845,BLACK,True,CORRECT,3.950494979002542,3950.494979002542
1,20260325_120141,D,J,False,AUTOMATION1,3,188,988,fixed_delta,0.04926863410845236,0.011780794413821632,,,,,0.5362736647587835,1931,1669,1,0.95,BLACK,BLACK,True,0,0.0015019977581687272,BLACK,True,CORRECT,2.2414892819979286,2241.4892819979286
1,20260325_120141,D,J,False,AUTOMATION1,3,189,989,fixed_delta,0.04926863410845236,0.011780794413821632,,,,,0.5338450718670334,1922,1678,1,0.95,BLACK,BLACK,True,0,0.0018030004866886884,BLACK,True,CORRECT,0.7610857400031819,761.0857400031819
1,20260325_120141,D,J,False,AUTOMATION1,3,190,990,fixed_delta,0.04926863410845236,0.011780794413821632,,,,,0.5438024397783544,1958,1642,1,0.95,BLACK,BLACK,True,0,0.0015020013961475343,BLACK,True,CORRECT,2.701956085002166,2701.956085002166
1,20260325_120141,D,J,False,AUTOMATION1,3,191,991,fixed_delta,0.04926863410845236,0.011780794413821632,,,,,0.450126424755359,1620,1980,1,0.95,WHITE,BLACK,False,0,0.0015029982023406774,WHITE,True,CORRECT,1.5936197749979328,1593.6197749979328
1,20260325_120141,D,J,False,AUTOMATION1,3,192,992,fixed_delta,0.04926863410845236,0.011780794413821632,,,,,0.46102303420329604,1660,1940,1,0.95,WHITE,WHITE,True,0,0.0018029968487098813,WHITE,True,CORRECT,0.7295698159978201,729.5698159978201
1,20260325_120141,D,J,False,AUTOMATION1,3,193,993,fixed_delta,0.04926863410845236,0.011780794413821632,,,,,0.46313076063013064,1667,1933,1,0.95,WHITE,WHITE,True,0,0.0015019977581687272,WHITE,True,CORRECT,0.7115152149999631,711.5152149999631
1,20260325_120141,D,J,False,AUTOMATION1,3,194,994,fixed_delta,0.04926863410845236,0.011780794413821632,,,,,0.5527481006433874,1990,1610,1,0.95,BLACK,BLACK,True,0,0.0015020013961475343,WHITE,False,INCORRECT,4.198853890000464,4198.853890000464
1,20260325_120141,D,J,False,AUTOMATION1,3,195,995,fixed_delta,0.04926863410845236,0.011780794413821632,,,,,0.5447500748635957,1961,1639,1,0.95,BLACK,BLACK,True,0,0.0018030004866886884,BLACK,True,CORRECT,1.8846681630020612,1884.6681630020612
1,20260325_120141,D,J,False,AUTOMATION1,3,196,996,fixed_delta,0.04926863410845236,0.011780794413821632,,,,,0.5484883836268782,1975,1625,1,0.95,BLACK,BLACK,True,0,0.0018030004866886884,BLACK,True,CORRECT,0.6874969019991113,687.4969019991113
1,20260325_120141,D,J,False,AUTOMATION1,3,197,997,fixed_delta,0.04926863410845236,0.011780794413821632,,,,,0.5517333489172119,1986,1614,1,0.95,BLACK,BLACK,True,0,0.0015030018403194845,BLACK,True,CORRECT,3.5175643840011617,3517.5643840011617
1,20260325_120141,D,J,False,AUTOMATION1,3,198,998,fixed_delta,0.04926863410845236,0.011780794413821632,,,,,0.43363728016765446,1561,2039,1,0.95,WHITE,WHITE,True,0,0.0015020013961475343,WHITE,True,CORRECT,1.0380421180016128,1038.0421180016128
1,20260325_120141,D,J,False,AUTOMATION1,3,199,999,fixed_delta,0.04926863410845236,0.011780794413821632,,,,,0.4589740053856098,1652,1948,1,0.95,WHITE,WHITE,True,0,0.0015029982023406774,WHITE,True,CORRECT,0.5827166449998913,582.7166449998913
1,20260325_120141,D,J,False,AUTOMATION1,3,200,1000,fixed_delta,0.04926863410845236,0.011780794413821632,,,,,0.4497841281596951,1619,1981,1,0.95,WHITE,WHITE,True,0,0.0015019977581687272,WHITE,True,CORRECT,1.0269328659996972,1026.9328659996972
1,20260325_120141,D,J,False,AUTOMATION1,3,201,1001,fixed_delta,0.04926863410845236,0.011780794413821632,,,,,0.555563068123337,2000,1600,1,0.95,BLACK,WHITE,False,0,0.0015020013961475343,WHITE,False,INCORRECT,7.264599277001253,7264.599277001253
1,20260325_120141,D,J,False,AUTOMATION1,3,202,1002,fixed_delta,0.04926863410845236,0.011780794413821632,,,,,0.45919978619644497,1653,1947,1,0.95,WHITE,WHITE,True,0,0.0015029982023406774,WHITE,True,CORRECT,1.2273356759978924,1227.3356759978924
1,20260325_120141,D,J,False,AUTOMATION1,3,203,1003,fixed_delta,0.04926863410845236,0.011780794413821632,,,,,0.4572703808872575,1646,1954,1,0.95,WHITE,WHITE,True,0,0.0018030004866886884,WHITE,True,CORRECT,1.6967219100006332,1696.7219100006332
1,20260325_120141,D,J,False,AUTOMATION1,3,204,1004,fixed_delta,0.04926863410845236,0.011780794413821632,,,,,0.5435355785280617,1957,1643,1,0.95,BLACK,BLACK,True,0,0.0015020013961475343,BLACK,True,CORRECT,2.412145629998122,2412.145629998122
1,20260325_120141,D,J,False,AUTOMATION1,3,205,1005,fixed_delta,0.04926863410845236,0.011780794413821632,,,,,0.43315783988824424,1559,2041,1,0.95,WHITE,WHITE,True,0,0.0015020013961475343,WHITE,True,CORRECT,1.232584574001521,1232.584574001521
1,20260325_120141,D,J,False,AUTOMATION1,3,206,1006,fixed_delta,0.04926863410845236,0.011780794413821632,,,,,0.5355706641619321,1928,1672,1,0.95,BLACK,BLACK,True,0,0.0018030004866886884,BLACK,True,CORRECT,1.492793695000728,1492.793695000728
1,20260325_120141,D,J,False,AUTOMATION1,3,207,1007,fixed_delta,0.04926863410845236,0.011780794413821632,,,,,0.47158537846357235,1698,1902,1,0.95,WHITE,WHITE,True,0,0.0018020000425167382,WHITE,True,CORRECT,6.235680008001509,6235.680008001509
1,20260325_120141,D,J,False,AUTOMATION1,3,208,1008,fixed_delta,0.04926863410845236,0.011780794413821632,,,,,0.45394206068803744,1634,1966,1,0.95,WHITE,WHITE,True,0,0.0015030018403194845,WHITE,True,CORRECT,1.841346800003521,1841.346800003521
1,20260325_120141,D,J,False,AUTOMATION1,3,209,1009,fixed_delta,0.04926863410845236,0.011780794413821632,,,,,0.43848897351468374,1579,2021,1,0.95,WHITE,WHITE,True,0,0.0015019977581687272,WHITE,True,CORRECT,0.6727988439997716,672.7988439997716
1,20260325_120141,D,J,False,AUTOMATION1,3,210,1010,fixed_delta,0.04926863410845236,0.011780794413821632,,,,,0.5532406552872984,1992,1608,1,0.95,BLACK,BLACK,True,0,0.0018020000425167382,BLACK,True,CORRECT,3.2688842700008536,3268.8842700008536
1,20260325_120141,D,J,False,AUTOMATION1,3,211,1011,fixed_delta,0.04926863410845236,0.011780794413821632,,,,,0.5592024703239937,2013,1587,1,0.95,BLACK,BLACK,True,0,0.0018030004866886884,BLACK,True,CORRECT,0.7356606280009146,735.6606280009146
1,20260325_120141,D,J,False,AUTOMATION1,3,212,1012,fixed_delta,0.04926863410845236,0.011780794413821632,,,,,0.5579298465078528,2009,1591,1,0.95,BLACK,BLACK,True,0,0.0018030004866886884,BLACK,True,CORRECT,0.7201924689979933,720.1924689979933
1,20260325_120141,D,J,False,AUTOMATION1,3,213,1013,fixed_delta,0.04926863410845236,0.011780794413821632,,,,,0.4298316796208802,1547,2053,1,0.95,WHITE,WHITE,True,0,0.0015020013961475343,WHITE,True,CORRECT,0.8205462109981454,820.5462109981454
1,20260325_120141,D,J,False,AUTOMATION1,3,214,1014,fixed_delta,0.04926863410845236,0.011780794413821632,,,,,0.54152548974984,1949,1651,1,0.95,BLACK,BLACK,True,0,0.0018030004866886884,BLACK,True,CORRECT,1.4701464220015623,1470.1464220015623
1,20260325_120141,D,J,False,AUTOMATION1,3,215,1015,fixed_delta,0.04926863410845236,0.011780794413821632,,,,,0.45595101598351667,1641,1959,1,0.95,WHITE,WHITE,True,0,0.0018030004866886884,WHITE,True,CORRECT,3.1670840690021578,3167.084069002158
1,20260325_120141,D,J,False,AUTOMATION1,3,216,1016,fixed_delta,0.04926863410845236,0.011780794413821632,,,,,0.43493203169400163,1566,2034,1,0.95,WHITE,WHITE,True,0,0.0015029982023406774,WHITE,True,CORRECT,0.9033300119990599,903.3300119990599
1,20260325_120141,D,J,False,AUTOMATION1,3,217,1017,fixed_delta,0.04926863410845236,0.011780794413821632,,,,,0.5503956869081851,1981,1619,1,0.95,BLACK,BLACK,True,0,0.0018029968487098813,BLACK,True,CORRECT,1.0050229459993716,1005.0229459993716
1,20260325_120141,D,J,False,AUTOMATION1,3,218,1018,fixed_delta,0.04926863410845236,0.011780794413821632,,,,,0.5317972313792277,1914,1686,1,0.95,BLACK,BLACK,True,0,0.0018030004866886884,WHITE,False,INCORRECT,4.795787240000209,4795.787240000209
1,20260325_120141,D,J,False,AUTOMATION1,3,219,1019,fixed_delta,0.04926863410845236,0.011780794413821632,,,,,0.43405086423057676,1563,2037,1,0.95,WHITE,WHITE,True,0,0.0015019977581687272,WHITE,True,CORRECT,2.0533191789982084,2053.3191789982084
1,20260325_120141,D,J,False,AUTOMATION1,3,220,1020,fixed_delta,0.04926863410845236,0.011780794413821632,,,,,0.4788919285459857,1724,1876,1,0.95,WHITE,WHITE,True,0,0.0012019991117995232,WHITE,True,CORRECT,4.048935932998575,4048.9359329985746
1,20260325_120141,D,J,False,AUTOMATION1,3,221,1021,fixed_delta,0.04926863410845236,0.011780794413821632,,,,,0.5579023329033034,2008,1592,1,0.95,BLACK,BLACK,True,0,0.0015020013961475343,BLACK,True,CORRECT,2.8717296550021274,2871.7296550021274
1,20260325_120141,D,J,False,AUTOMATION1,3,222,1022,fixed_delta,0.04926863410845236,0.011780794413821632,,,,,0.5549398364934093,1998,1602,1,0.95,BLACK,BLACK,True,0,0.0015030018403194845,BLACK,True,CORRECT,4.964224923001893,4964.224923001893
1,20260325_120141,D,J,False,AUTOMATION1,3,223,1023,fixed_delta,0.04926863410845236,0.011780794413821632,,,,,0.5476115308466081,1971,1629,1,0.95,BLACK,BLACK,True,0,0.0015020013961475343,BLACK,True,CORRECT,1.756861140998808,1756.861140998808
1,20260325_120141,D,J,False,AUTOMATION1,3,224,1024,fixed_delta,0.04926863410845236,0.011780794413821632,,,,,0.548473401500936,1975,1625,1,0.95,BLACK,BLACK,True,0,0.0018030004866886884,BLACK,True,CORRECT,1.1373312980031187,1137.3312980031187
1,20260325_120141,D,J,False,AUTOMATION1,3,225,1025,fixed_delta,0.04926863410845236,0.011780794413821632,,,,,0.5452138318729202,1963,1637,1,0.95,BLACK,BLACK,True,0,0.0015019977581687272,BLACK,True,CORRECT,1.638342227000976,1638.342227000976
1,20260325_120141,D,J,False,AUTOMATION1,3,226,1026,fixed_delta,0.04926863410845236,0.011780794413821632,,,,,0.5673739122770398,2043,1557,1,0.95,BLACK,BLACK,True,0,0.0018029968487098813,BLACK,True,CORRECT,0.7910440319974441,791.0440319974441
1,20260325_120141,D,J,False,AUTOMATION1,3,227,1027,fixed_delta,0.04926863410845236,0.011780794413821632,,,,,0.46355349720876543,1669,1931,1,0.95,WHITE,WHITE,True,0,0.0018030004866886884,WHITE,True,CORRECT,1.3223170269993716,1322.3170269993716
1,20260325_120141,D,J,False,AUTOMATION1,3,228,1028,fixed_delta,0.04926863410845236,0.011780794413821632,,,,,0.5550542372235571,1998,1602,1,0.95,BLACK,WHITE,False,0,0.0018030004866886884,WHITE,False,INCORRECT,1.4866376790014328,1486.6376790014328
1,20260325_120141,D,J,False,AUTOMATION1,3,229,1029,fixed_delta,0.04926863410845236,0.011780794413821632,,,,,0.45739735346575433,1647,1953,1,0.95,WHITE,WHITE,True,0,0.0021040032152086496,WHITE,True,CORRECT,1.565530102001503,1565.530102001503
1,20260325_120141,D,J,False,AUTOMATION1,3,230,1030,fixed_delta,0.04926863410845236,0.011780794413821632,,,,,0.4559565309499435,1641,1959,1,0.95,WHITE,WHITE,True,0,0.0015020013961475343,WHITE,True,CORRECT,1.7223693679989083,1722.3693679989083
1,20260325_120141,D,J,False,AUTOMATION1,3,231,1031,fixed_delta,0.04926863410845236,0.011780794413821632,,,,,0.44170033942842585,1590,2010,1,0.95,WHITE,WHITE,True,0,0.0018030004866886884,WHITE,True,CORRECT,2.2369993700012856,2236.9993700012856
1,20260325_120141,D,J,False,AUTOMATION1,3,232,1032,fixed_delta,0.04926863410845236,0.011780794413821632,,,,,0.5448226323945101,1961,1639,1,0.95,BLACK,BLACK,True,0,0.0015019977581687272,WHITE,False,INCORRECT,7.475647713999933,7475.647713999933
1,20260325_120141,D,J,False,AUTOMATION1,3,233,1033,fixed_delta,0.04926863410845236,0.011780794413821632,,,,,0.46176333053999674,1662,1938,1,0.95,WHITE,WHITE,True,0,0.0015019977581687272,WHITE,True,CORRECT,0.8528310369983956,852.8310369983956
1,20260325_120141,D,J,False,AUTOMATION1,3,234,1034,fixed_delta,0.04926863410845236,0.011780794413821632,,,,,0.4389074655203889,1580,2020,1,0.95,WHITE,WHITE,True,0,0.0018020000425167382,WHITE,True,CORRECT,1.073492086998158,1073.492086998158
1,20260325_120141,D,J,False,AUTOMATION1,3,235,1035,fixed_delta,0.04926863410845236,0.011780794413821632,,,,,0.5708766233146566,2055,1545,1,0.95,BLACK,BLACK,True,0,0.0018020000425167382,BLACK,True,CORRECT,0.7743045860006532,774.3045860006532
1,20260325_120141,D,J,False,AUTOMATION1,3,236,1036,fixed_delta,0.04926863410845236,0.011780794413821632,,,,,0.5715083232526643,2057,1543,1,0.95,BLACK,BLACK,True,0,0.0012019991117995232,BLACK,True,CORRECT,1.6784431599990057,1678.4431599990057
1,20260325_120141,D,J,False,AUTOMATION1,3,237,1037,fixed_delta,0.04926863410845236,0.011780794413821632,,,,,0.4692023332786267,1689,1911,1,0.95,WHITE,WHITE,True,0,0.0021030027710366994,WHITE,True,CORRECT,1.344869350999943,1344.869350999943
1,20260325_120141,D,J,False,AUTOMATION1,3,238,1038,fixed_delta,0.04926863410845236,0.011780794413821632,,,,,0.5538901856330259,1994,1606,1,0.95,BLACK,BLACK,True,0,0.0018030004866886884,WHITE,False,INCORRECT,1.1773883629975899,1177.3883629975899
1,20260325_120141,D,J,False,AUTOMATION1,3,239,1039,fixed_delta,0.04926863410845236,0.011780794413821632,,,,,0.45487220249639576,1638,1962,1,0.95,WHITE,WHITE,True,0,0.0018020000425167382,WHITE,True,CORRECT,1.2698935459993663,1269.8935459993663
1,20260325_120141,D,J,False,AUTOMATION1,3,240,1040,fixed_delta,0.04926863410845236,0.011780794413821632,,,,,0.4433259508518109,1596,2004,1,0.95,WHITE,WHITE,True,0,0.0015019977581687272,WHITE,True,CORRECT,0.6882396609980788,688.2396609980788
1,20260325_120141,D,J,False,AUTOMATION1,3,241,1041,fixed_delta,0.04926863410845236,0.011780794413821632,,,,,0.4628220266781267,1666,1934,1,0.95,WHITE,WHITE,True,0,0.0018030004866886884,WHITE,True,CORRECT,0.7624489690024348,762.4489690024348
1,20260325_120141,D,J,False,AUTOMATION1,3,242,1042,fixed_delta,0.04926863410845236,0.011780794413821632,,,,,0.4578628151187169,1648,1952,1,0.95,WHITE,WHITE,True,0,0.0012019991117995232,WHITE,True,CORRECT,0.6426161029994546,642.6161029994546
1,20260325_120141,D,J,False,AUTOMATION1,3,243,1043,fixed_delta,0.04926863410845236,0.011780794413821632,,,,,0.5682857220175668,2046,1554,1,0.95,BLACK,BLACK,True,0,0.0018029968487098813,BLACK,True,CORRECT,2.7916374579981493,2791.6374579981493
1,20260325_120141,D,J,False,AUTOMATION1,3,244,1044,fixed_delta,0.04926863410845236,0.011780794413821632,,,,,0.5406301396422427,1946,1654,1,0.95,BLACK,BLACK,True,0,0.0015020013961475343,BLACK,True,CORRECT,0.5966770500017446,596.6770500017446
1,20260325_120141,D,J,False,AUTOMATION1,3,245,1045,fixed_delta,0.04926863410845236,0.011780794413821632,,,,,0.5297910357716955,1907,1693,1,0.95,BLACK,BLACK,True,0,0.0024039982235990465,BLACK,True,CORRECT,1.4110774619985023,1411.0774619985023
1,20260325_120141,D,J,False,AUTOMATION1,3,246,1046,fixed_delta,0.04926863410845236,0.011780794413821632,,,,,0.4343917458956045,1564,2036,1,0.95,WHITE,WHITE,True,0,0.0015019977581687272,WHITE,True,CORRECT,0.9361265359984827,936.1265359984827
1,20260325_120141,D,J,False,AUTOMATION1,3,247,1047,fixed_delta,0.04926863410845236,0.011780794413821632,,,,,0.45408853314436115,1635,1965,1,0.95,WHITE,WHITE,True,0,0.0015020013961475343,WHITE,True,CORRECT,2.13956919300108,2139.56919300108
1,20260325_120141,D,J,False,AUTOMATION1,3,248,1048,fixed_delta,0.04926863410845236,0.011780794413821632,,,,,0.461295404885075,1661,1939,1,0.95,WHITE,WHITE,True,0,0.0018030004866886884,WHITE,True,CORRECT,2.0131509409984574,2013.1509409984574
1,20260325_120141,D,J,False,AUTOMATION1,3,249,1049,fixed_delta,0.04926863410845236,0.011780794413821632,,,,,0.565964524776355,2037,1563,1,0.95,BLACK,BLACK,True,0,0.0021029991330578923,BLACK,True,CORRECT,1.7577568410015374,1757.7568410015374
1,20260325_120141,D,J,False,AUTOMATION1,3,250,1050,fixed_delta,0.04926863410845236,0.011780794413821632,,,,,0.4449852627095268,1602,1998,1,0.95,WHITE,WHITE,True,0,0.0015019977581687272,WHITE,True,CORRECT,1.3212115999995149,1321.2115999995149
1,20260325_120141,D,J,False,AUTOMATION1,3,251,1051,fixed_delta,0.04926863410845236,0.011780794413821632,,,,,0.5327022187869974,1918,1682,1,0.95,BLACK,BLACK,True,0,0.0012020027497783303,BLACK,True,CORRECT,3.480741871000646,3480.741871000646
1,20260325_120141,D,J,False,AUTOMATION1,3,252,1052,fixed_delta,0.04926863410845236,0.011780794413821632,,,,,0.4511457860221507,1624,1976,1,0.95,WHITE,WHITE,True,0,0.014121997082838789,WHITE,True,CORRECT,2.2504015019985673,2250.4015019985673
1,20260325_120141,D,J,False,AUTOMATION1,3,253,1053,fixed_delta,0.04926863410845236,0.011780794413821632,,,,,0.45457598373985325,1636,1964,1,0.95,WHITE,WHITE,True,0,0.0015019977581687272,WHITE,True,CORRECT,1.0444943959992088,1044.4943959992088
1,20260325_120141,D,J,False,AUTOMATION1,3,254,1054,fixed_delta,0.04926863410845236,0.011780794413821632,,,,,0.5491987776996741,1977,1623,1,0.95,BLACK,BLACK,True,0,0.0015020013961475343,BLACK,True,CORRECT,0.8990849809997599,899.0849809997599
1,20260325_120141,D,J,False,AUTOMATION1,3,255,1055,fixed_delta,0.04926863410845236,0.011780794413821632,,,,,0.4582439875343497,1650,1950,1,0.95,WHITE,WHITE,True,0,0.0015020013961475343,WHITE,True,CORRECT,0.768959838002047,768.959838002047
1,20260325_120141,D,J,False,AUTOMATION1,3,256,1056,fixed_delta,0.04926863410845236,0.011780794413821632,,,,,0.44211615402595283,1592,2008,1,0.95,WHITE,WHITE,True,0,0.0012019991117995232,WHITE,True,CORRECT,3.4177184350010066,3417.7184350010066
1,20260325_120141,D,J,False,AUTOMATION1,3,257,1057,fixed_delta,0.04926863410845236,0.011780794413821632,,,,,0.44827119204999333,1614,1986,1,0.95,WHITE,WHITE,True,0,0.0015029982023406774,WHITE,True,CORRECT,1.1579987779987277,1157.9987779987277
1,20260325_120141,D,J,False,AUTOMATION1,3,258,1058,fixed_delta,0.04926863410845236,0.011780794413821632,,,,,0.5464396514343901,1967,1633,1,0.95,BLACK,BLACK,True,0,0.0021039995772298425,BLACK,True,CORRECT,1.864594409998972,1864.594409998972
1,20260325_120141,D,J,False,AUTOMATION1,3,259,1059,fixed_delta,0.04926863410845236,0.011780794413821632,,,,,0.5419608751471499,1951,1649,1,0.95,BLACK,BLACK,True,0,0.0021039995772298425,BLACK,True,CORRECT,1.6615919409996422,1661.5919409996422
1,20260325_120141,D,J,False,AUTOMATION1,3,260,1060,fixed_delta,0.04926863410845236,0.011780794413821632,,,,,0.4398251817189642,1583,2017,1,0.95,WHITE,WHITE,True,0,0.013822002074448392,WHITE,True,CORRECT,1.3373666330007836,1337.3666330007836
1,20260325_120141,D,J,False,AUTOMATION1,3,261,1061,fixed_delta,0.04926863410845236,0.011780794413821632,,,,,0.55141745864111,1985,1615,1,0.95,BLACK,BLACK,True,0,0.0015020013961475343,BLACK,True,CORRECT,1.2430916850025824,1243.0916850025824
1,20260325_120141,D,J,False,AUTOMATION1,3,262,1062,fixed_delta,0.04926863410845236,0.011780794413821632,,,,,0.5390727381828302,1941,1659,1,0.95,BLACK,BLACK,True,0,0.0015020013961475343,WHITE,False,INCORRECT,2.4378219339996576,2437.8219339996576
1,20260325_120141,D,J,False,AUTOMATION1,3,263,1063,fixed_delta,0.04926863410845236,0.011780794413821632,,,,,0.5629115151821587,2026,1574,1,0.95,BLACK,BLACK,True,0,0.0018030004866886884,BLACK,True,CORRECT,1.052030165999895,1052.030165999895
1,20260325_120141,D,J,False,AUTOMATION1,3,264,1064,fixed_delta,0.04926863410845236,0.011780794413821632,,,,,0.4387649361486111,1580,2020,1,0.95,WHITE,WHITE,True,0,0.0012019991117995232,WHITE,True,CORRECT,0.8406196640025883,840.6196640025883
1,20260325_120141,D,J,False,AUTOMATION1,3,265,1065,fixed_delta,0.04926863410845236,0.011780794413821632,,,,,0.4476227454428249,1611,1989,1,0.95,WHITE,WHITE,True,0,0.0018030004866886884,WHITE,True,CORRECT,2.110109981000278,2110.109981000278
1,20260325_120141,D,J,False,AUTOMATION1,3,266,1066,fixed_delta,0.04926863410845236,0.011780794413821632,,,,,0.43817153827978766,1577,2023,1,0.95,WHITE,WHITE,True,0,0.0018030004866886884,WHITE,True,CORRECT,1.6371027910026896,1637.1027910026896
1,20260325_120141,D,J,False,AUTOMATION1,3,267,1067,fixed_delta,0.04926863410845236,0.011780794413821632,,,,,0.44962964294620766,1619,1981,1,0.95,WHITE,WHITE,True,0,0.0024030014174059033,WHITE,True,CORRECT,2.137308461999055,2137.308461999055
1,20260325_120141,D,J,False,AUTOMATION1,3,268,1068,fixed_delta,0.04926863410845236,0.011780794413821632,,,,,0.4305473999689494,1550,2050,1,0.95,WHITE,WHITE,True,0,0.0015030018403194845,WHITE,True,CORRECT,1.2593008020012348,1259.3008020012348
1,20260325_120141,D,J,False,AUTOMATION1,3,269,1069,fixed_delta,0.04926863410845236,0.011780794413821632,,,,,0.5568887223820471,2005,1595,1,0.95,BLACK,BLACK,True,0,0.0015019977581687272,BLACK,True,CORRECT,0.8254546770003799,825.4546770003799
1,20260325_120141,D,J,False,AUTOMATION1,3,270,1070,fixed_delta,0.04926863410845236,0.011780794413821632,,,,,0.5485577219245592,1975,1625,1,0.95,BLACK,BLACK,True,0,0.0018030004866886884,BLACK,True,CORRECT,1.3395705760012788,1339.5705760012788
1,20260325_120141,D,J,False,AUTOMATION1,3,271,1071,fixed_delta,0.04926863410845236,0.011780794413821632,,,,,0.48176653053233903,1734,1866,1,0.95,WHITE,BLACK,False,0,0.0018029968487098813,BLACK,False,INCORRECT,1.7133132239978295,1713.3132239978295
1,20260325_120141,D,J,False,AUTOMATION1,3,272,1072,fixed_delta,0.04926863410845236,0.011780794413821632,,,,,0.5528495651089785,1990,1610,1,0.95,BLACK,BLACK,True,0,0.0015020013961475343,BLACK,True,CORRECT,0.8920413790001476,892.0413790001476
1,20260325_120141,D,J,False,AUTOMATION1,3,273,1073,fixed_delta,0.04926863410845236,0.011780794413821632,,,,,0.4448932830878748,1602,1998,1,0.95,WHITE,WHITE,True,0,0.0018030004866886884,WHITE,True,CORRECT,0.7172890330002701,717.2890330002701
1,20260325_120141,D,J,False,AUTOMATION1,3,274,1074,fixed_delta,0.04926863410845236,0.011780794413821632,,,,,0.5511540978468037,1984,1616,1,0.95,BLACK,BLACK,True,0,0.0018030004866886884,BLACK,True,CORRECT,1.017782975002774,1017.782975002774
1,20260325_120141,D,J,False,AUTOMATION1,3,275,1075,fixed_delta,0.04926863410845236,0.011780794413821632,,,,,0.5608462830786238,2019,1581,1,0.95,BLACK,BLACK,True,0,0.0018030004866886884,BLACK,True,CORRECT,2.206420007001725,2206.420007001725
1,20260325_120141,D,J,False,AUTOMATION1,3,276,1076,fixed_delta,0.04926863410845236,0.011780794413821632,,,,,0.5648526624834795,2033,1567,1,0.95,BLACK,BLACK,True,0,0.0012019991117995232,BLACK,True,CORRECT,0.6842383120019804,684.2383120019804
1,20260325_120141,D,J,False,AUTOMATION1,3,277,1077,fixed_delta,0.04926863410845236,0.011780794413821632,,,,,0.5381768094167528,1937,1663,1,0.95,BLACK,BLACK,True,0,0.0018030004866886884,WHITE,False,INCORRECT,2.5437247440022475,2543.7247440022475
1,20260325_120141,D,J,False,AUTOMATION1,3,278,1078,fixed_delta,0.04926863410845236,0.011780794413821632,,,,,0.434399514761336,1564,2036,1,0.95,WHITE,WHITE,True,0,0.0015019977581687272,WHITE,True,CORRECT,0.8847072239987028,884.7072239987028
1,20260325_120141,D,J,False,AUTOMATION1,3,279,1079,fixed_delta,0.04926863410845236,0.011780794413821632,,,,,0.4347233443979272,1565,2035,1,0.95,WHITE,WHITE,True,0,0.0015020013961475343,WHITE,True,CORRECT,1.369760828998551,1369.760828998551
1,20260325_120141,D,J,False,AUTOMATION1,3,280,1080,fixed_delta,0.04926863410845236,0.011780794413821632,,,,,0.4514845258441024,1625,1975,1,0.95,WHITE,WHITE,True,0,0.0015019977581687272,WHITE,True,CORRECT,1.6627352259965846,1662.7352259965846
1,20260325_120141,D,J,False,AUTOMATION1,3,281,1081,fixed_delta,0.04926863410845236,0.011780794413821632,,,,,0.45308429818658547,1631,1969,1,0.95,WHITE,WHITE,True,0,0.00120100230560638,WHITE,True,CORRECT,1.567766494001262,1567.766494001262
1,20260325_120141,D,J,False,AUTOMATION1,3,282,1082,fixed_delta,0.04926863410845236,0.011780794413821632,,,,,0.5502445809920692,1981,1619,1,0.95,BLACK,BLACK,True,0,0.0015030018403194845,BLACK,True,CORRECT,1.0576865010007168,1057.6865010007168
1,20260325_120141,D,J,False,AUTOMATION1,3,283,1083,fixed_delta,0.04926863410845236,0.011780794413821632,,,,,0.538811242261297,1940,1660,1,0.95,BLACK,WHITE,False,0,0.0015020013961475343,WHITE,False,INCORRECT,4.218750667001586,4218.750667001586
1,20260325_120141,D,J,False,AUTOMATION1,3,284,1084,fixed_delta,0.04926863410845236,0.011780794413821632,,,,,0.44768059313525665,1612,1988,1,0.95,WHITE,WHITE,True,0,0.0018030004866886884,WHITE,True,CORRECT,0.9703316609993635,970.3316609993635
1,20260325_120141,D,J,False,AUTOMATION1,3,285,1085,fixed_delta,0.04926863410845236,0.011780794413821632,,,,,0.5264254649306275,1895,1705,1,0.95,BLACK,BLACK,True,0,0.0018030004866886884,BLACK,True,CORRECT,1.5255379369991715,1525.5379369991715
1,20260325_120141,D,J,False,AUTOMATION1,3,286,1086,fixed_delta,0.04926863410845236,0.011780794413821632,,,,,0.5567536165738561,2004,1596,1,0.95,BLACK,BLACK,True,0,0.0018030004866886884,WHITE,False,INCORRECT,8.738437265001266,8738.437265001266
1,20260325_120141,D,J,False,AUTOMATION1,3,287,1087,fixed_delta,0.04926863410845236,0.011780794413821632,,,,,0.4454275333145988,1604,1996,1,0.95,WHITE,WHITE,True,0,0.0015019977581687272,WHITE,True,CORRECT,0.6893619139991642,689.3619139991642
1,20260325_120141,D,J,False,AUTOMATION1,3,288,1088,fixed_delta,0.04926863410845236,0.011780794413821632,,,,,0.5484599027753628,1974,1626,1,0.95,BLACK,BLACK,True,0,0.0018030004866886884,BLACK,True,CORRECT,2.2830877550004516,2283.0877550004516
1,20260325_120141,D,J,False,AUTOMATION1,3,289,1089,fixed_delta,0.04926863410845236,0.011780794413821632,,,,,0.43665445711349793,1572,2028,1,0.95,WHITE,WHITE,True,0,0.0015019977581687272,WHITE,True,CORRECT,1.9273140719997173,1927.3140719997173
1,20260325_120141,D,J,False,AUTOMATION1,3,290,1090,fixed_delta,0.04926863410845236,0.011780794413821632,,,,,0.5224220346107389,1881,1719,1,0.95,BLACK,BLACK,True,0,0.0015030018403194845,WHITE,False,INCORRECT,7.136562998002773,7136.562998002773
1,20260325_120141,D,J,False,AUTOMATION1,3,291,1091,fixed_delta,0.04926863410845236,0.011780794413821632,,,,,0.4446298588515391,1601,1999,1,0.95,WHITE,WHITE,True,0,0.0018029968487098813,WHITE,True,CORRECT,0.6680736639973475,668.0736639973475
1,20260325_120141,D,J,False,AUTOMATION1,3,292,1092,fixed_delta,0.04926863410845236,0.011780794413821632,,,,,0.5517510805291541,1986,1614,1,0.95,BLACK,BLACK,True,0,0.0018020000425167382,BLACK,True,CORRECT,1.4882469930016669,1488.2469930016669
1,20260325_120141,D,J,False,AUTOMATION1,3,293,1093,fixed_delta,0.04926863410845236,0.011780794413821632,,,,,0.5564114214619732,2003,1597,1,0.95,BLACK,BLACK,True,0,0.0015029982023406774,BLACK,True,CORRECT,1.6450700349996623,1645.0700349996623
1,20260325_120141,D,J,False,AUTOMATION1,3,294,1094,fixed_delta,0.04926863410845236,0.011780794413821632,,,,,0.5384518852976891,1938,1662,1,0.95,BLACK,BLACK,True,0,0.001200998667627573,BLACK,True,CORRECT,1.6719572299989522,1671.9572299989522
1,20260325_120141,D,J,False,AUTOMATION1,3,295,1095,fixed_delta,0.04926863410845236,0.011780794413821632,,,,,0.5423524343647357,1952,1648,1,0.95,BLACK,BLACK,True,0,0.0015020013961475343,BLACK,True,CORRECT,7.992986746001407,7992.986746001407
1,20260325_120141,D,J,False,AUTOMATION1,3,296,1096,fixed_delta,0.04926863410845236,0.011780794413821632,,,,,0.5483747919758183,1974,1626,1,0.95,BLACK,BLACK,True,0,0.0015020013961475343,BLACK,True,CORRECT,1.8701470820014947,1870.1470820014947
1,20260325_120141,D,J,False,AUTOMATION1,3,297,1097,fixed_delta,0.04926863410845236,0.011780794413821632,,,,,0.5368900072465789,1933,1667,1,0.95,BLACK,BLACK,True,0,0.0018030004866886884,BLACK,True,CORRECT,0.9211766860025818,921.1766860025818
1,20260325_120141,D,J,False,AUTOMATION1,3,298,1098,fixed_delta,0.04926863410845236,0.011780794413821632,,,,,0.5557936061494859,2001,1599,1,0.95,BLACK,BLACK,True,0,0.01562500256113708,BLACK,True,CORRECT,2.348660073002975,2348.660073002975
1,20260325_120141,D,J,False,AUTOMATION1,3,299,1099,fixed_delta,0.04926863410845236,0.011780794413821632,,,,,0.4676246228267028,1683,1917,1,0.95,WHITE,WHITE,True,0,0.0021029991330578923,WHITE,True,CORRECT,0.6975536089994421,697.5536089994421
1,20260325_120141,D,J,False,AUTOMATION1,3,300,1100,fixed_delta,0.04926863410845236,0.011780794413821632,,,,,0.4501977180756787,1621,1979,1,0.95,WHITE,WHITE,True,0,0.0015020013961475343,WHITE,True,CORRECT,0.7711361370020313,771.1361370020313
1,20260325_120141,D,J,False,AUTOMATION1,3,301,1101,fixed_delta,0.04926863410845236,0.011780794413821632,,,,,0.5509061301631878,1983,1617,1,0.95,BLACK,BLACK,True,0,0.0015030018403194845,BLACK,True,CORRECT,5.884669365001173,5884.669365001173
1,20260325_120141,D,J,False,AUTOMATION1,3,302,1102,fixed_delta,0.04926863410845236,0.011780794413821632,,,,,0.555116568681918,1998,1602,1,0.95,BLACK,BLACK,True,0,0.0021029991330578923,BLACK,True,CORRECT,0.8321518379998452,832.1518379998452
1,20260325_120141,D,J,False,AUTOMATION1,3,303,1103,fixed_delta,0.04926863410845236,0.011780794413821632,,,,,0.4530173397402618,1631,1969,1,0.95,WHITE,WHITE,True,0,0.0021029991330578923,WHITE,True,CORRECT,1.0274136170010024,1027.4136170010024
1,20260325_120141,D,J,False,AUTOMATION1,3,304,1104,fixed_delta,0.04926863410845236,0.011780794413821632,,,,,0.5481246718377749,1973,1627,1,0.95,BLACK,BLACK,True,0,0.0012019991117995232,BLACK,True,CORRECT,4.213545938000607,4213.545938000607
1,20260325_120141,D,J,False,AUTOMATION1,3,305,1105,fixed_delta,0.04926863410845236,0.011780794413821632,,,,,0.5537954000009128,1994,1606,1,0.95,BLACK,BLACK,True,0,0.0015020013961475343,BLACK,True,CORRECT,2.957909359000041,2957.909359000041
1,20260325_120141,D,J,False,AUTOMATION1,3,306,1106,fixed_delta,0.04926863410845236,0.011780794413821632,,,,,0.5567149810161942,2004,1596,1,0.95,BLACK,WHITE,False,0,0.0018030004866886884,WHITE,False,INCORRECT,1.4062311919988133,1406.2311919988133
1,20260325_120141,D,J,False,AUTOMATION1,3,307,1107,fixed_delta,0.04926863410845236,0.011780794413821632,,,,,0.552885903918708,1990,1610,1,0.95,BLACK,BLACK,True,0,0.0015020013961475343,BLACK,True,CORRECT,1.5408462470004451,1540.8462470004451
1,20260325_120141,D,J,False,AUTOMATION1,3,308,1108,fixed_delta,0.04926863410845236,0.011780794413821632,,,,,0.45402692855111837,1634,1966,1,0.95,WHITE,WHITE,True,0,0.0015030018403194845,WHITE,True,CORRECT,0.8811012930018478,881.1012930018478
1,20260325_120141,D,J,False,AUTOMATION1,3,309,1109,fixed_delta,0.04926863410845236,0.011780794413821632,,,,,0.4583791557597627,1650,1950,1,0.95,WHITE,WHITE,True,0,0.0018030004866886884,WHITE,True,CORRECT,2.3973460150009487,2397.3460150009487
1,20260325_120141,D,J,False,AUTOMATION1,3,310,1110,fixed_delta,0.04926863410845236,0.011780794413821632,,,,,0.4570699171046352,1645,1955,1,0.95,WHITE,BLACK,False,0,0.0018030004866886884,WHITE,True,CORRECT,2.151112623003428,2151.112623003428
1,20260325_120141,D,J,False,AUTOMATION1,3,311,1111,fixed_delta,0.04926863410845236,0.011780794413821632,,,,,0.5634900168310276,2029,1571,1,0.95,BLACK,BLACK,True,0,0.0018030004866886884,BLACK,True,CORRECT,1.0554513090028195,1055.4513090028195
1,20260325_120141,D,J,False,AUTOMATION1,3,312,1112,fixed_delta,0.04926863410845236,0.011780794413821632,,,,,0.5659845645589767,2038,1562,1,0.95,BLACK,BLACK,True,0,0.0015020013961475343,BLACK,True,CORRECT,0.8791401290000067,879.1401290000067
1,20260325_120141,D,J,False,AUTOMATION1,3,313,1113,fixed_delta,0.04926863410845236,0.011780794413821632,,,,,0.45344672803875136,1632,1968,1,0.95,WHITE,WHITE,True,0,0.0021040032152086496,WHITE,True,CORRECT,1.4352288840018446,1435.2288840018446
1,20260325_120141,D,J,False,AUTOMATION1,3,314,1114,fixed_delta,0.04926863410845236,0.011780794413821632,,,,,0.5390441457219884,1941,1659,1,0.95,BLACK,BLACK,True,0,0.0018030004866886884,BLACK,True,CORRECT,4.220611472999735,4220.611472999735
1,20260325_120141,D,J,False,AUTOMATION1,3,315,1115,fixed_delta,0.04926863410845236,0.011780794413821632,,,,,0.5499743599189076,1980,1620,1,0.95,BLACK,WHITE,False,0,0.0015020013961475343,WHITE,False,INCORRECT,4.102905929001281,4102.905929001281
1,20260325_120141,D,J,False,AUTOMATION1,3,316,1116,fixed_delta,0.04926863410845236,0.011780794413821632,,,,,0.43805378410454204,1577,2023,1,0.95,WHITE,WHITE,True,0,0.0012019991117995232,WHITE,True,CORRECT,0.7782046780012024,778.2046780012024
1,20260325_120141,D,J,False,AUTOMATION1,3,317,1117,fixed_delta,0.04926863410845236,0.011780794413821632,,,,,0.4668031573321405,1680,1920,1,0.95,WHITE,WHITE,True,0,0.0015020013961475343,WHITE,True,CORRECT,2.4794189040003403,2479.4189040003403
1,20260325_120141,D,J,False,AUTOMATION1,3,318,1118,fixed_delta,0.04926863410845236,0.011780794413821632,,,,,0.45852256261952407,1651,1949,1,0.95,WHITE,WHITE,True,0,0.0015020013961475343,WHITE,True,CORRECT,1.489855104999151,1489.855104999151
1,20260325_120141,D,J,False,AUTOMATION1,3,319,1119,fixed_delta,0.04926863410845236,0.011780794413821632,,,,,0.5453895713516614,1963,1637,1,0.95,BLACK,BLACK,True,0,0.0015030018403194845,BLACK,True,CORRECT,8.514739071000804,8514.739071000804
1,20260325_120141,D,J,False,AUTOMATION1,3,320,1120,fixed_delta,0.04926863410845236,0.011780794413821632,,,,,0.44935813089069415,1618,1982,1,0.95,WHITE,WHITE,True,0,0.0015019977581687272,WHITE,True,CORRECT,2.100455300998874,2100.455300998874
1,20260325_120141,D,J,False,AUTOMATION1,3,321,1121,fixed_delta,0.04926863410845236,0.011780794413821632,,,,,0.4521398864951903,1628,1972,1,0.95,WHITE,WHITE,True,0,0.0018030004866886884,WHITE,True,CORRECT,0.9875371349990019,987.5371349990019
1,20260325_120141,D,J,False,AUTOMATION1,3,322,1122,fixed_delta,0.04926863410845236,0.011780794413821632,,,,,0.4337066512412302,1561,2039,1,0.95,WHITE,WHITE,True,0,0.0015020013961475343,WHITE,True,CORRECT,1.0071785119980632,1007.1785119980632
1,20260325_120141,D,J,False,AUTOMATION1,3,323,1123,fixed_delta,0.04926863410845236,0.011780794413821632,,,,,0.5434438174336353,1956,1644,1,0.95,BLACK,BLACK,True,0,0.0015030018403194845,BLACK,True,CORRECT,3.452815953998652,3452.815953998652
1,20260325_120141,D,J,False,AUTOMATION1,3,324,1124,fixed_delta,0.04926863410845236,0.011780794413821632,,,,,0.4482658420655081,1614,1986,1,0.95,WHITE,WHITE,True,0,0.0018020000425167382,WHITE,True,CORRECT,1.169778977000533,1169.778977000533
1,20260325_120141,D,J,False,AUTOMATION1,3,325,1125,fixed_delta,0.04926863410845236,0.011780794413821632,,,,,0.5430879373570202,1955,1645,1,0.95,BLACK,BLACK,True,0,0.0015020013961475343,BLACK,True,CORRECT,1.3715116640014458,1371.5116640014458
1,20260325_120141,D,J,False,AUTOMATION1,3,326,1126,fixed_delta,0.04926863410845236,0.011780794413821632,,,,,0.5610745613492171,2020,1580,1,0.95,BLACK,BLACK,True,0,0.0015020013961475343,BLACK,True,CORRECT,3.4479240130021935,3447.9240130021935
1,20260325_120141,D,J,False,AUTOMATION1,3,327,1127,fixed_delta,0.04926863410845236,0.011780794413821632,,,,,0.533581066933612,1921,1679,1,0.95,BLACK,BLACK,True,0,0.0015019977581687272,BLACK,True,CORRECT,4.435359286999301,4435.359286999301
1,20260325_120141,D,J,False,AUTOMATION1,3,328,1128,fixed_delta,0.04926863410845236,0.011780794413821632,,,,,0.44006758349563685,1584,2016,1,0.95,WHITE,WHITE,True,0,0.0018030004866886884,WHITE,True,CORRECT,1.8643609459977597,1864.3609459977597
1,20260325_120141,D,J,False,AUTOMATION1,3,329,1129,fixed_delta,0.04926863410845236,0.011780794413821632,,,,,0.4398025750285815,1583,2017,1,0.95,WHITE,WHITE,True,0,0.0015030018403194845,WHITE,True,CORRECT,3.378238571000111,3378.238571000111
1,20260325_120141,D,J,False,AUTOMATION1,3,330,1130,fixed_delta,0.04926863410845236,0.011780794413821632,,,,,0.5550668530665922,1998,1602,1,0.95,BLACK,BLACK,True,0,0.0015029982023406774,BLACK,True,CORRECT,9.400895758997649,9400.895758997649
1,20260325_120141,D,J,False,AUTOMATION1,3,331,1131,fixed_delta,0.04926863410845236,0.011780794413821632,,,,,0.5535151449359806,1993,1607,1,0.95,BLACK,BLACK,True,0,0.0015019977581687272,BLACK,True,CORRECT,3.220629500996438,3220.629500996438
1,20260325_120141,D,J,False,AUTOMATION1,3,332,1132,fixed_delta,0.04926863410845236,0.011780794413821632,,,,,0.45294617474352894,1631,1969,1,0.95,WHITE,WHITE,True,0,0.0012020027497783303,WHITE,True,CORRECT,0.7436822570016375,743.6822570016375
1,20260325_120141,D,J,False,AUTOMATION1,3,333,1133,fixed_delta,0.04926863410845236,0.011780794413821632,,,,,0.5412407051625336,1948,1652,1,0.95,BLACK,BLACK,True,0,0.0012020027497783303,BLACK,True,CORRECT,4.44178242000271,4441.78242000271
1,20260325_120141,D,J,False,AUTOMATION1,3,334,1134,fixed_delta,0.04926863410845236,0.011780794413821632,,,,,0.4493484221848651,1618,1982,1,0.95,WHITE,BLACK,False,0,0.0015020013961475343,WHITE,True,CORRECT,1.8899756530008744,1889.9756530008744
1,20260325_120141,D,J,False,AUTOMATION1,3,335,1135,fixed_delta,0.04926863410845236,0.011780794413821632,,,,,0.5440467020684857,1959,1641,1,0.95,BLACK,BLACK,True,0,0.015925001207506284,BLACK,True,CORRECT,4.822647994002182,4822.647994002182
1,20260325_120141,D,J,False,AUTOMATION1,3,336,1136,fixed_delta,0.04926863410845236,0.011780794413821632,,,,,0.5485952552099072,1975,1625,1,0.95,BLACK,BLACK,True,0,0.0015030018403194845,BLACK,True,CORRECT,1.7438457130010647,1743.8457130010647
1,20260325_120141,D,J,False,AUTOMATION1,3,337,1137,fixed_delta,0.04926863410845236,0.011780794413821632,,,,,0.4330176127573786,1559,2041,1,0.95,WHITE,WHITE,True,0,0.0015030018403194845,WHITE,True,CORRECT,0.722906007002166,722.906007002166
1,20260325_120141,D,J,False,AUTOMATION1,3,338,1138,fixed_delta,0.04926863410845236,0.011780794413821632,,,,,0.46046929638715,1658,1942,1,0.95,WHITE,WHITE,True,0,0.0018030004866886884,WHITE,True,CORRECT,0.6402955779994954,640.2955779994954
1,20260325_120141,D,J,False,AUTOMATION1,3,339,1139,fixed_delta,0.04926863410845236,0.011780794413821632,,,,,0.458228408507386,1650,1950,1,0.95,WHITE,WHITE,True,0,0.0015020013961475343,WHITE,True,CORRECT,0.6288642229992547,628.8642229992547
1,20260325_120141,D,J,False,AUTOMATION1,3,340,1140,fixed_delta,0.04926863410845236,0.011780794413821632,,,,,0.4604836387013655,1658,1942,1,0.95,WHITE,BLACK,False,0,0.0021030027710366994,WHITE,True,CORRECT,2.1051657580028404,2105.1657580028404
1,20260325_120141,D,J,False,AUTOMATION1,3,341,1141,fixed_delta,0.04926863410845236,0.011780794413821632,,,,,0.45859591466254546,1651,1949,1,0.95,WHITE,WHITE,True,0,0.0018030004866886884,WHITE,True,CORRECT,1.1733924220025074,1173.3924220025074
1,20260325_120141,D,J,False,AUTOMATION1,3,342,1142,fixed_delta,0.04926863410845236,0.011780794413821632,,,,,0.5692732018394862,2049,1551,1,0.95,BLACK,BLACK,True,0,0.0018030004866886884,WHITE,False,INCORRECT,3.9427569920007954,3942.7569920007954
1,20260325_120141,D,J,False,AUTOMATION1,3,343,1143,fixed_delta,0.04926863410845236,0.011780794413821632,,,,,0.5667967595656738,2040,1560,1,0.95,BLACK,BLACK,True,0,0.0015019977581687272,BLACK,True,CORRECT,0.7764222939986212,776.4222939986212
1,20260325_120141,D,J,False,AUTOMATION1,3,344,1144,fixed_delta,0.04926863410845236,0.011780794413821632,,,,,0.48283587151169166,1738,1862,1,0.95,WHITE,WHITE,True,0,0.0015030018403194845,WHITE,True,CORRECT,1.7444766990010976,1744.4766990010976
1,20260325_120141,D,J,False,AUTOMATION1,3,345,1145,fixed_delta,0.04926863410845236,0.011780794413821632,,,,,0.5666206858970022,2040,1560,1,0.95,BLACK,BLACK,True,0,0.0015020013961475343,BLACK,True,CORRECT,1.7056521580016124,1705.6521580016124
1,20260325_120141,D,J,False,AUTOMATION1,3,346,1146,fixed_delta,0.04926863410845236,0.011780794413821632,,,,,0.5383751374190894,1938,1662,1,0.95,BLACK,BLACK,True,0,0.0012019991117995232,BLACK,True,CORRECT,1.6549161139992066,1654.9161139992066
1,20260325_120141,D,J,False,AUTOMATION1,3,347,1147,fixed_delta,0.04926863410845236,0.011780794413821632,,,,,0.4648618440377555,1674,1926,1,0.95,WHITE,WHITE,True,0,0.0012019991117995232,WHITE,True,CORRECT,1.2505838869983563,1250.5838869983563
1,20260325_120141,D,J,False,AUTOMATION1,3,348,1148,fixed_delta,0.04926863410845236,0.011780794413821632,,,,,0.4503243544786056,1621,1979,1,0.95,WHITE,WHITE,True,0,0.0015020013961475343,WHITE,True,CORRECT,0.8960132829997747,896.0132829997747
1,20260325_120141,D,J,False,AUTOMATION1,3,349,1149,fixed_delta,0.04926863410845236,0.011780794413821632,,,,,0.45196444174448286,1627,1973,1,0.95,WHITE,BLACK,False,0,0.0015019977581687272,WHITE,True,CORRECT,4.720956861998275,4720.956861998275
1,20260325_120141,D,J,False,AUTOMATION1,3,350,1150,fixed_delta,0.04926863410845236,0.011780794413821632,,,,,0.5420910787790362,1952,1648,1,0.95,BLACK,BLACK,True,0,0.0018030004866886884,BLACK,True,CORRECT,1.8804417620012828,1880.4417620012828
1,20260325_120141,D,J,False,AUTOMATION1,3,351,1151,fixed_delta,0.04926863410845236,0.011780794413821632,,,,,0.5442890117779955,1959,1641,1,0.95,BLACK,BLACK,True,0,0.0015030018403194845,BLACK,True,CORRECT,1.5357301570002164,1535.7301570002164
1,20260325_120141,D,J,False,AUTOMATION1,3,352,1152,fixed_delta,0.04926863410845236,0.011780794413821632,,,,,0.553671310981048,1993,1607,1,0.95,BLACK,BLACK,True,0,0.0018030004866886884,BLACK,True,CORRECT,0.981983259000117,981.983259000117
1,20260325_120141,D,J,False,AUTOMATION1,3,353,1153,fixed_delta,0.04926863410845236,0.011780794413821632,,,,,0.5506012218318065,1982,1618,1,0.95,BLACK,BLACK,True,0,0.0018030004866886884,WHITE,False,INCORRECT,3.2930705469989334,3293.0705469989334
1,20260325_120141,D,J,False,AUTOMATION1,3,354,1154,fixed_delta,0.04926863410845236,0.011780794413821632,,,,,0.5435456435473616,1957,1643,1,0.95,BLACK,BLACK,True,0,0.0021039995772298425,BLACK,True,CORRECT,0.9954511949981679,995.4511949981679
1,20260325_120141,D,J,False,AUTOMATION1,3,355,1155,fixed_delta,0.04926863410845236,0.011780794413821632,,,,,0.5689786206435441,2048,1552,1,0.95,BLACK,BLACK,True,0,0.0012020027497783303,BLACK,True,CORRECT,0.9357142930020927,935.7142930020927
1,20260325_120141,D,J,False,AUTOMATION1,3,356,1156,fixed_delta,0.04926863410845236,0.011780794413821632,,,,,0.4242931092817717,1527,2073,1,0.95,WHITE,WHITE,True,0,0.0018030004866886884,WHITE,True,CORRECT,2.4504674859999795,2450.4674859999795
1,20260325_120141,D,J,False,AUTOMATION1,3,357,1157,fixed_delta,0.04926863410845236,0.011780794413821632,,,,,0.5653402345002945,2035,1565,1,0.95,BLACK,BLACK,True,0,0.0015029982023406774,BLACK,True,CORRECT,4.605754527998215,4605.754527998215
1,20260325_120141,D,J,False,AUTOMATION1,3,358,1158,fixed_delta,0.04926863410845236,0.011780794413821632,,,,,0.5559329159026487,2001,1599,1,0.95,BLACK,BLACK,True,0,0.0015019977581687272,BLACK,True,CORRECT,2.9434727099978772,2943.4727099978772
1,20260325_120141,D,J,False,AUTOMATION1,3,359,1159,fixed_delta,0.04926863410845236,0.011780794413821632,,,,,0.4357367016834047,1569,2031,1,0.95,WHITE,WHITE,True,0,0.0012019991117995232,WHITE,True,CORRECT,1.0111032419990806,1011.1032419990806
1,20260325_120141,D,J,False,AUTOMATION1,3,360,1160,fixed_delta,0.04926863410845236,0.011780794413821632,,,,,0.5766839083853805,2076,1524,1,0.95,BLACK,BLACK,True,0,0.0012019991117995232,BLACK,True,CORRECT,2.0096979469999496,2009.6979469999496
1,20260325_120141,D,J,False,AUTOMATION1,3,361,1161,fixed_delta,0.04926863410845236,0.011780794413821632,,,,,0.5717206015100805,2058,1542,1,0.95,BLACK,BLACK,True,0,0.0024039982235990465,BLACK,True,CORRECT,1.564881387999776,1564.881387999776
1,20260325_120141,D,J,False,AUTOMATION1,3,362,1162,fixed_delta,0.04926863410845236,0.011780794413821632,,,,,0.5585492125311067,2011,1589,1,0.95,BLACK,BLACK,True,0,0.0015030018403194845,WHITE,False,INCORRECT,2.8435735780003597,2843.5735780003597
1,20260325_120141,D,J,False,AUTOMATION1,3,363,1163,fixed_delta,0.04926863410845236,0.011780794413821632,,,,,0.5717861318588339,2058,1542,1,0.95,BLACK,BLACK,True,0,0.0015029982023406774,BLACK,True,CORRECT,1.055795347001549,1055.795347001549
1,20260325_120141,D,J,False,AUTOMATION1,3,364,1164,fixed_delta,0.04926863410845236,0.011780794413821632,,,,,0.45858878131033803,1651,1949,1,0.95,WHITE,WHITE,True,0,0.0018029968487098813,WHITE,True,CORRECT,0.7357669939992775,735.7669939992775
1,20260325_120141,D,J,False,AUTOMATION1,3,365,1165,fixed_delta,0.04926863410845236,0.011780794413821632,,,,,0.4235613282798778,1525,2075,1,0.95,WHITE,WHITE,True,0,0.0015020013961475343,WHITE,True,CORRECT,1.5222949720009638,1522.2949720009638
1,20260325_120141,D,J,False,AUTOMATION1,3,366,1166,fixed_delta,0.04926863410845236,0.011780794413821632,,,,,0.4530055415617407,1631,1969,1,0.95,WHITE,WHITE,True,0,0.0015019977581687272,WHITE,True,CORRECT,0.6461616399974446,646.1616399974446
1,20260325_120141,D,J,False,AUTOMATION1,3,367,1167,fixed_delta,0.04926863410845236,0.011780794413821632,,,,,0.5658991425137214,2037,1563,1,0.95,BLACK,BLACK,True,0,0.0021029991330578923,BLACK,True,CORRECT,1.5725812140008202,1572.5812140008202
1,20260325_120141,D,J,False,AUTOMATION1,3,368,1168,fixed_delta,0.04926863410845236,0.011780794413821632,,,,,0.5527760831354538,1990,1610,1,0.95,BLACK,BLACK,True,0,0.0027040005079470575,BLACK,True,CORRECT,3.0319609200014384,3031.9609200014384
1,20260325_120141,D,J,False,AUTOMATION1,3,369,1169,fixed_delta,0.04926863410845236,0.011780794413821632,,,,,0.4381304714087247,1577,2023,1,0.95,WHITE,WHITE,True,0,0.0015020013961475343,WHITE,True,CORRECT,0.748095850001846,748.095850001846
1,20260325_120141,D,J,False,AUTOMATION1,3,370,1170,fixed_delta,0.04926863410845236,0.011780794413821632,,,,,0.4431776984662874,1595,2005,1,0.95,WHITE,WHITE,True,0,0.0015020013961475343,WHITE,True,CORRECT,5.124808638000104,5124.808638000104
1,20260325_120141,D,J,False,AUTOMATION1,3,371,1171,fixed_delta,0.04926863410845236,0.011780794413821632,,,,,0.5651841533774999,2035,1565,1,0.95,BLACK,BLACK,True,0,0.0018030004866886884,BLACK,True,CORRECT,0.925994711000385,925.994711000385
1,20260325_120141,D,J,False,AUTOMATION1,3,372,1172,fixed_delta,0.04926863410845236,0.011780794413821632,,,,,0.545392526554893,1963,1637,1,0.95,BLACK,BLACK,True,0,0.0012019991117995232,BLACK,True,CORRECT,1.3732447709990083,1373.2447709990083
1,20260325_120141,D,J,False,AUTOMATION1,3,373,1173,fixed_delta,0.04926863410845236,0.011780794413821632,,,,,0.5411160825173787,1948,1652,1,0.95,BLACK,BLACK,True,0,0.0021039995772298425,BLACK,True,CORRECT,3.480818490999809,3480.818490999809
1,20260325_120141,D,J,False,AUTOMATION1,3,374,1174,fixed_delta,0.04926863410845236,0.011780794413821632,,,,,0.4532492068958707,1632,1968,1,0.95,WHITE,WHITE,True,0,0.0015019977581687272,WHITE,True,CORRECT,1.9565957070008153,1956.5957070008153
1,20260325_120141,D,J,False,AUTOMATION1,3,375,1175,fixed_delta,0.04926863410845236,0.011780794413821632,,,,,0.4403651775018925,1585,2015,1,0.95,WHITE,WHITE,True,0,0.0018030004866886884,WHITE,True,CORRECT,2.074153721001494,2074.153721001494
1,20260325_120141,D,J,False,AUTOMATION1,3,376,1176,fixed_delta,0.04926863410845236,0.011780794413821632,,,,,0.54905290365144,1977,1623,1,0.95,BLACK,BLACK,True,0,0.0015030018403194845,BLACK,True,CORRECT,3.8049665770013235,3804.9665770013235
1,20260325_120141,D,J,False,AUTOMATION1,3,377,1177,fixed_delta,0.04926863410845236,0.011780794413821632,,,,,0.4492432424584572,1617,1983,1,0.95,WHITE,WHITE,True,0,0.0018020000425167382,WHITE,True,CORRECT,1.3087289029972453,1308.7289029972453
1,20260325_120141,D,J,False,AUTOMATION1,3,378,1178,fixed_delta,0.04926863410845236,0.011780794413821632,,,,,0.5392431735707497,1941,1659,1,0.95,BLACK,BLACK,True,0,0.0015029982023406774,TIMEOUT,,TOO SLOW,,
1,20260325_120141,D,J,False,AUTOMATION1,3,379,1179,fixed_delta,0.04926863410845236,0.011780794413821632,,,,,0.46036838518200746,1657,1943,1,0.95,WHITE,BLACK,False,0,0.0018030004866886884,WHITE,True,CORRECT,0.8012789179992978,801.2789179992978
1,20260325_120141,D,J,False,AUTOMATION1,3,380,1180,fixed_delta,0.04926863410845236,0.011780794413821632,,,,,0.5333351139891461,1920,1680,1,0.95,BLACK,BLACK,True,0,0.0015030018403194845,BLACK,True,CORRECT,2.3609931350001716,2360.9931350001716
1,20260325_120141,D,J,False,AUTOMATION1,3,381,1181,fixed_delta,0.04926863410845236,0.011780794413821632,,,,,0.46577016688561634,1677,1923,1,0.95,WHITE,WHITE,True,0,0.0018030004866886884,WHITE,True,CORRECT,1.0753126310009975,1075.3126310009975
1,20260325_120141,D,J,False,AUTOMATION1,3,382,1182,fixed_delta,0.04926863410845236,0.011780794413821632,,,,,0.5576997277533337,2008,1592,1,0.95,BLACK,BLACK,True,0,0.0021029991330578923,BLACK,True,CORRECT,1.1146019970001362,1114.6019970001362
1,20260325_120141,D,J,False,AUTOMATION1,3,383,1183,fixed_delta,0.04926863410845236,0.011780794413821632,,,,,0.5397886500303596,1943,1657,1,0.95,BLACK,BLACK,True,0,0.0015020013961475343,BLACK,True,CORRECT,3.771691704998375,3771.691704998375
1,20260325_120141,D,J,False,AUTOMATION1,3,384,1184,fixed_delta,0.04926863410845236,0.011780794413821632,,,,,0.5559107714875722,2001,1599,1,0.95,BLACK,BLACK,True,0,0.0015020013961475343,BLACK,True,CORRECT,1.3367329430002428,1336.7329430002428
1,20260325_120141,D,J,False,AUTOMATION1,3,385,1185,fixed_delta,0.04926863410845236,0.011780794413821632,,,,,0.553279497887262,1992,1608,1,0.95,BLACK,BLACK,True,0,0.0015020013961475343,BLACK,True,CORRECT,0.7871724840006209,787.1724840006209
1,20260325_120141,D,J,False,AUTOMATION1,3,386,1186,fixed_delta,0.04926863410845236,0.011780794413821632,,,,,0.5546862678753114,1997,1603,1,0.95,BLACK,BLACK,True,0,0.0015020013961475343,BLACK,True,CORRECT,1.5373911510032485,1537.3911510032485
1,20260325_120141,D,J,False,AUTOMATION1,3,387,1187,fixed_delta,0.04926863410845236,0.011780794413821632,,,,,0.43876107993267416,1580,2020,1,0.95,WHITE,WHITE,True,0,0.0018030004866886884,WHITE,True,CORRECT,0.8552849700026854,855.2849700026854
1,20260325_120141,D,J,False,AUTOMATION1,3,388,1188,fixed_delta,0.04926863410845236,0.011780794413821632,,,,,0.473227169600284,1704,1896,1,0.95,WHITE,WHITE,True,0,0.0015030018403194845,WHITE,True,CORRECT,0.6695594849988993,669.5594849988993
1,20260325_120141,D,J,False,AUTOMATION1,3,389,1189,fixed_delta,0.04926863410845236,0.011780794413821632,,,,,0.5491659483955114,1977,1623,1,0.95,BLACK,WHITE,False,0,0.0015020013961475343,WHITE,False,INCORRECT,1.3871333639981458,1387.1333639981458
1,20260325_120141,D,J,False,AUTOMATION1,3,390,1190,fixed_delta,0.04926863410845236,0.011780794413821632,,,,,0.5392959296974182,1941,1659,1,0.95,BLACK,BLACK,True,0,0.0018030004866886884,BLACK,True,CORRECT,2.4211398779989395,2421.1398779989395
1,20260325_120141,D,J,False,AUTOMATION1,3,391,1191,fixed_delta,0.04926863410845236,0.011780794413821632,,,,,0.5722067736932681,2060,1540,1,0.95,BLACK,BLACK,True,0,0.0018029968487098813,BLACK,True,CORRECT,0.9544713889990817,954.4713889990817
1,20260325_120141,D,J,False,AUTOMATION1,3,392,1192,fixed_delta,0.04926863410845236,0.011780794413821632,,,,,0.4406241015504986,1586,2014,1,0.95,WHITE,WHITE,True,0,0.0018030004866886884,WHITE,True,CORRECT,2.675278317001357,2675.278317001357
1,20260325_120141,D,J,False,AUTOMATION1,3,393,1193,fixed_delta,0.04926863410845236,0.011780794413821632,,,,,0.537485588725041,1935,1665,1,0.95,BLACK,BLACK,True,0,0.0015019977581687272,BLACK,True,CORRECT,1.0505512559975614,1050.5512559975614
1,20260325_120141,D,J,False,AUTOMATION1,3,394,1194,fixed_delta,0.04926863410845236,0.011780794413821632,,,,,0.43804474547890965,1577,2023,1,0.95,WHITE,WHITE,True,0,0.0018030004866886884,WHITE,True,CORRECT,3.1813145950000035,3181.3145950000035
1,20260325_120141,D,J,False,AUTOMATION1,3,395,1195,fixed_delta,0.04926863410845236,0.011780794413821632,,,,,0.5569374409275989,2005,1595,1,0.95,BLACK,BLACK,True,0,0.0018020000425167382,BLACK,True,CORRECT,2.0432423400015978,2043.2423400015978
1,20260325_120141,D,J,False,AUTOMATION1,3,396,1196,fixed_delta,0.04926863410845236,0.011780794413821632,,,,,0.5683073248288746,2046,1554,1,0.95,BLACK,BLACK,True,0,0.0015020013961475343,BLACK,True,CORRECT,1.200105945001269,1200.105945001269
1,20260325_120141,D,J,False,AUTOMATION1,3,397,1197,fixed_delta,0.04926863410845236,0.011780794413821632,,,,,0.4514156051058912,1625,1975,1,0.95,WHITE,BLACK,False,0,0.0018020000425167382,WHITE,True,CORRECT,4.0068798449974565,4006.8798449974565
1,20260325_120141,D,J,False,AUTOMATION1,3,398,1198,fixed_delta,0.04926863410845236,0.011780794413821632,,,,,0.44052947337816784,1586,2014,1,0.95,WHITE,WHITE,True,0,0.0015020013961475343,WHITE,True,CORRECT,0.8342425030023151,834.2425030023151
1,20260325_120141,D,J,False,AUTOMATION1,3,399,1199,fixed_delta,0.04926863410845236,0.011780794413821632,,,,,0.4467225647873486,1608,1992,1,0.95,WHITE,WHITE,True,0,0.0015020013961475343,WHITE,True,CORRECT,1.0308717190018797,1030.8717190018797
1,20260325_120141,D,J,False,AUTOMATION1,3,400,1200,fixed_delta,0.04926863410845236,0.011780794413821632,,,,,0.4547612638150446,1637,1963,1,0.95,WHITE,WHITE,True,0,0.0018030004866886884,WHITE,True,CORRECT,1.0056202790001407,1005.6202790001407
1,20260325_120141,D,J,False,AUTOMATION1,3,401,1201,fixed_delta,0.04926863410845236,0.011780794413821632,,,,,0.47748731659459903,1719,1881,1,0.95,WHITE,WHITE,True,0,0.0015020013961475343,WHITE,True,CORRECT,1.1263136890011083,1126.3136890011083
1,20260325_120141,D,J,False,AUTOMATION1,3,402,1202,fixed_delta,0.04926863410845236,0.011780794413821632,,,,,0.5381180488525503,1937,1663,1,0.95,BLACK,BLACK,True,0,0.0018020000425167382,BLACK,True,CORRECT,2.379244841999025,2379.244841999025
1,20260325_120141,D,J,False,AUTOMATION1,3,403,1203,fixed_delta,0.04926863410845236,0.011780794413821632,,,,,0.5532100175335944,1992,1608,1,0.95,BLACK,BLACK,True,0,0.0015020013961475343,BLACK,True,CORRECT,1.0356852369986882,1035.6852369986882
1,20260325_120141,D,J,False,AUTOMATION1,3,404,1204,fixed_delta,0.04926863410845236,0.011780794413821632,,,,,0.5651412865326189,2035,1565,1,0.95,BLACK,BLACK,True,0,0.0015030018403194845,BLACK,True,CORRECT,2.9449573290003173,2944.9573290003173
1,20260325_120141,D,J,False,AUTOMATION1,3,405,1205,fixed_delta,0.04926863410845236,0.011780794413821632,,,,,0.4359303793078769,1569,2031,1,0.95,WHITE,WHITE,True,0,0.0012019991117995232,WHITE,True,CORRECT,0.7850003919993469,785.0003919993469
1,20260325_120141,D,J,False,AUTOMATION1,3,406,1206,fixed_delta,0.04926863410845236,0.011780794413821632,,,,,0.5432604758305136,1956,1644,1,0.95,BLACK,BLACK,True,0,0.0015029982023406774,BLACK,True,CORRECT,1.4520091929989576,1452.0091929989576
1,20260325_120141,D,J,False,AUTOMATION1,3,407,1207,fixed_delta,0.04926863410845236,0.011780794413821632,,,,,0.5588136168691189,2012,1588,1,0.95,BLACK,BLACK,True,0,0.0015020013961475343,BLACK,True,CORRECT,0.8432704039987584,843.2704039987584
1,20260325_120141,D,J,False,AUTOMATION1,3,408,1208,fixed_delta,0.04926863410845236,0.011780794413821632,,,,,0.5613245114418622,2021,1579,1,0.95,BLACK,BLACK,True,0,0.0021029991330578923,BLACK,True,CORRECT,1.343188225000631,1343.188225000631
1,20260325_120141,D,J,False,AUTOMATION1,3,409,1209,fixed_delta,0.04926863410845236,0.011780794413821632,,,,,0.5252371523577266,1891,1709,1,0.95,BLACK,BLACK,True,0,0.0018020000425167382,BLACK,True,CORRECT,1.9663393250011723,1966.3393250011723
1,20260325_120141,D,J,False,AUTOMATION1,3,410,1210,fixed_delta,0.04926863410845236,0.011780794413821632,,,,,0.5574432209429551,2007,1593,1,0.95,BLACK,BLACK,True,0,0.0015020013961475343,BLACK,True,CORRECT,3.409828110001399,3409.828110001399
1,20260325_120141,D,J,False,AUTOMATION1,3,411,1211,fixed_delta,0.04926863410845236,0.011780794413821632,,,,,0.4531000649903374,1631,1969,1,0.95,WHITE,WHITE,True,0,0.0018020000425167382,WHITE,True,CORRECT,0.7869372170025599,786.9372170025599
1,20260325_120141,D,J,False,AUTOMATION1,3,412,1212,fixed_delta,0.04926863410845236,0.011780794413821632,,,,,0.5449239143030611,1962,1638,1,0.95,BLACK,BLACK,True,0,0.0018030004866886884,BLACK,True,CORRECT,1.885823167001945,1885.823167001945
