participant_id,run_timestamp,key_black,key_white,keymap_flip,block,block_idx,trial,global_trial,difficulty_mode,delta_fixed_mean,delta_fixed_sd,delta_stair_realised,delta_stair_mean,delta_step_down_used,delta_step_up_used,vblack_prop,n_vblack,n_vwhite,auto_on,aid_accuracy_setting,stimulus,aid_label,aid_correct,aid_onset_ms,aid_onset_ms_rel,response,correct,feedback,rt_s,rt_ms
5,20260325_140546,D,J,False,CALIBRATION,1,1,1,staircase,,,0.18722103381482275,0.19,0.01,0.04000000000000001,0.6872210338148228,2474,1126,0,,BLACK,,,0,,BLACK,True,CORRECT,2.183500400000412,2183.500400000412
5,20260325_140546,D,J,False,CALIBRATION,1,2,2,staircase,,,0.19005961521866982,0.18018367346938777,0.009816326530612245,0.03926530612244899,0.3099403847813302,1116,2484,0,,WHITE,,,0,,WHITE,True,CORRECT,0.8175473999999667,817.5473999999667
5,20260325_140546,D,J,False,CALIBRATION,1,3,3,staircase,,,0.1696956265581364,0.17055102040816328,0.00963265306122449,0.03853061224489797,0.6696956265581364,2411,1189,0,,BLACK,,,0,,BLACK,True,CORRECT,1.2449532999999064,1244.9532999999064
5,20260325_140546,D,J,False,CALIBRATION,1,4,4,staircase,,,0.17727815978789982,0.16110204081632654,0.009448979591836736,0.03779591836734695,0.32272184021210015,1162,2438,0,,WHITE,,,0,,WHITE,True,CORRECT,0.7397671999988233,739.7671999988233
5,20260325_140546,D,J,False,CALIBRATION,1,5,5,staircase,,,0.15505659650351422,0.15183673469387757,0.009265306122448979,0.03706122448979592,0.6550565965035142,2358,1242,0,,BLACK,,,0,,BLACK,True,CORRECT,2.1267773999989004,2126.7773999989004
5,20260325_140546,D,J,False,CALIBRATION,1,6,6,staircase,,,0.16773283561645097,0.14275510204081635,0.009081632653061224,0.0363265306122449,0.6677328356164509,2404,1196,0,,BLACK,,,0,,BLACK,True,CORRECT,0.8772836999996798,877.2836999996798
5,20260325_140546,D,J,False,CALIBRATION,1,7,7,staircase,,,0.15302024149090113,0.13385714285714287,0.00889795918367347,0.035591836734693884,0.3469797585090989,1249,2351,0,,WHITE,,,0,,WHITE,True,CORRECT,0.6694779999997991,669.4779999997991
5,20260325_140546,D,J,False,CALIBRATION,1,8,8,staircase,,,0.12839295649278204,0.12514285714285717,0.008714285714285714,0.034857142857142864,0.37160704350721796,1338,2262,0,,WHITE,,,0,,WHITE,True,CORRECT,1.034195099999124,1034.195099999124
5,20260325_140546,D,J,False,CALIBRATION,1,9,9,staircase,,,0.11989442961125087,0.11661224489795921,0.00853061224489796,0.034122448979591845,0.38010557038874915,1368,2232,0,,WHITE,,,0,,WHITE,True,CORRECT,0.7338931000012963,733.8931000012963
5,20260325_140546,D,J,False,CALIBRATION,1,10,10,staircase,,,0.10530192883703517,0.108265306122449,0.008346938775510205,0.033387755102040825,0.6053019288370352,2179,1421,0,,BLACK,,,0,,BLACK,True,CORRECT,1.018356099999437,1018.356099999437
5,20260325_140546,D,J,False,CALIBRATION,1,11,11,staircase,,,0.11666437921364212,0.10010204081632655,0.00816326530612245,0.032653061224489806,0.6166643792136421,2220,1380,0,,BLACK,,,0,,BLACK,True,CORRECT,3.0167015999995783,3016.7015999995783
5,20260325_140546,D,J,False,CALIBRATION,1,12,12,staircase,,,0.08284705330891604,0.09212244897959186,0.007979591836734693,0.03191836734693878,0.41715294669108394,1502,2098,0,,WHITE,,,0,,WHITE,True,CORRECT,0.8091356000004453,809.1356000004453
5,20260325_140546,D,J,False,CALIBRATION,1,13,13,staircase,,,0.1079478101279675,0.08432653061224492,0.007795918367346938,0.03118367346938776,0.3920521898720325,1411,2189,0,,WHITE,,,0,,WHITE,True,CORRECT,1.0806198000009317,1080.6198000009317
5,20260325_140546,D,J,False,CALIBRATION,1,14,14,staircase,,,0.08461476932110679,0.07671428571428573,0.007612244897959183,0.03044897959183674,0.5846147693211068,2105,1495,0,,BLACK,,,0,,BLACK,True,CORRECT,1.428267200000846,1428.267200000846
5,20260325_140546,D,J,False,CALIBRATION,1,15,15,staircase,,,0.08254015944144696,0.06928571428571431,0.0074285714285714285,0.02971428571428572,0.582540159441447,2097,1503,0,,BLACK,,,0,,BLACK,True,CORRECT,2.148365200000626,2148.365200000626
5,20260325_140546,D,J,False,CALIBRATION,1,16,16,staircase,,,0.06883588561217752,0.09826530612244902,0.007244897959183674,0.0289795918367347,0.5688358856121776,2048,1552,0,,BLACK,,,0,,WHITE,False,INCORRECT,2.671682800000781,2671.682800000781
5,20260325_140546,D,J,False,CALIBRATION,1,17,17,staircase,,,0.08682509514666907,0.0912040816326531,0.007061224489795919,0.028244897959183682,0.4131749048533309,1487,2113,0,,WHITE,,,0,,WHITE,True,CORRECT,1.0365593999995326,1036.5593999995326
5,20260325_140546,D,J,False,CALIBRATION,1,18,18,staircase,,,0.09564683795669239,0.08432653061224495,0.006877551020408163,0.02751020408163266,0.4043531620433076,1456,2144,0,,WHITE,,,0,,WHITE,True,CORRECT,0.8200488000002224,820.0488000002224
5,20260325_140546,D,J,False,CALIBRATION,1,19,19,staircase,,,0.07771713418373713,0.07763265306122454,0.006693877551020407,0.026775510204081636,0.42228286581626284,1520,2080,0,,WHITE,,,0,,WHITE,True,CORRECT,0.6992597000007663,699.2597000007663
5,20260325_140546,D,J,False,CALIBRATION,1,20,20,staircase,,,0.09528443537978308,0.07112244897959188,0.006510204081632652,0.026040816326530616,0.595284435379783,2143,1457,0,,BLACK,,,0,,BLACK,True,CORRECT,0.6839039999995293,683.9039999995293
5,20260325_140546,D,J,False,CALIBRATION,1,21,21,staircase,,,0.07278941753270032,0.064795918367347,0.0063265306122448975,0.025306122448979597,0.4272105824672997,1538,2062,0,,WHITE,,,0,,WHITE,True,CORRECT,0.7840885000005073,784.0885000005073
5,20260325_140546,D,J,False,CALIBRATION,1,22,22,staircase,,,0.06611370456750866,0.05865306122448985,0.006142857142857143,0.024571428571428577,0.43388629543249135,1562,2038,0,,WHITE,,,0,,WHITE,True,CORRECT,0.7551834000005329,755.1834000005329
5,20260325_140546,D,J,False,CALIBRATION,1,23,23,staircase,,,0.05565803435029739,0.052693877551020465,0.005959183673469388,0.023836734693877558,0.44434196564970263,1600,2000,0,,WHITE,,,0,,WHITE,True,CORRECT,0.8012510999997176,801.2510999997176
5,20260325_140546,D,J,False,CALIBRATION,1,24,24,staircase,,,0.06473813047747963,0.046918367346938834,0.005775510204081632,0.02310204081632653,0.5647381304774797,2033,1567,0,,BLACK,,,0,,BLACK,True,CORRECT,1.2484094999999797,1248.4094999999797
5,20260325_140546,D,J,False,CALIBRATION,1,25,25,staircase,,,0.046207363739539,0.041326530612244956,0.005591836734693877,0.022367346938775512,0.453792636260461,1634,1966,0,,WHITE,,,0,,WHITE,True,CORRECT,1.161612400001104,1161.612400001104
5,20260325_140546,D,J,False,CALIBRATION,1,26,26,staircase,,,0.04433007910066326,0.03591836734693883,0.005408163265306122,0.021632653061224492,0.5443300791006632,1960,1640,0,,BLACK,,,0,,BLACK,True,CORRECT,1.4877928999994765,1487.7928999994765
5,20260325_140546,D,J,False,CALIBRATION,1,27,27,staircase,,,0.0314826713461772,0.030693877551020467,0.0052244897959183665,0.02089795918367347,0.5314826713461772,1913,1687,0,,BLACK,,,0,,BLACK,True,CORRECT,1.2063203999987309,1206.3203999987309
5,20260325_140546,D,J,False,CALIBRATION,1,28,28,staircase,,,0.02420922159836982,0.025653061224489855,0.0050408163265306125,0.020163265306122453,0.4757907784016302,1713,1887,0,,WHITE,,,0,,WHITE,True,CORRECT,0.7019482999985485,701.9482999985485
5,20260325_140546,D,J,False,CALIBRATION,1,29,29,staircase,,,0.020699377605139346,0.020795918367346997,0.004857142857142857,0.01942857142857143,0.47930062239486065,1725,1875,0,,WHITE,,,0,,WHITE,True,CORRECT,1.0110422000016115,1011.0422000016115
5,20260325_140546,D,J,False,CALIBRATION,1,30,30,staircase,,,0.02992010362137112,0.016122448979591895,0.004673469387755102,0.01869387755102041,0.5299201036213711,1908,1692,0,,BLACK,,,0,,BLACK,True,CORRECT,1.0536430000011023,1053.6430000011023
5,20260325_140546,D,J,False,CALIBRATION,1,31,31,staircase,,,0.01582121549467053,0.034081632653061286,0.004489795918367346,0.017959183673469388,0.5158212154946705,1857,1743,0,,BLACK,,,0,,WHITE,False,INCORRECT,0.6670680999995966,667.0680999995966
5,20260325_140546,D,J,False,CALIBRATION,1,32,32,staircase,,,0.04241476627666979,0.029775510204081694,0.004306122448979591,0.01722448979591837,0.4575852337233302,1647,1953,0,,WHITE,,,0,,WHITE,True,CORRECT,0.887181199999759,887.181199999759
5,20260325_140546,D,J,False,CALIBRATION,1,33,33,staircase,,,0.03946617507658883,0.02565306122448986,0.004122448979591836,0.01648979591836735,0.46053382492341116,1658,1942,0,,WHITE,,,0,,WHITE,True,CORRECT,0.7275831999995717,727.5831999995717
5,20260325_140546,D,J,False,CALIBRATION,1,34,34,staircase,,,0.003325495498637667,0.04140816326530619,0.0039387755102040815,0.01575510204081633,0.5033254954986377,1812,1788,0,,BLACK,,,0,,WHITE,False,INCORRECT,0.7988939000006212,798.8939000006212
5,20260325_140546,D,J,False,CALIBRATION,1,35,35,staircase,,,0.029914361295079607,0.037653061224489866,0.0037551020408163258,0.015020408163265307,0.47008563870492037,1692,1908,0,,WHITE,,,0,,WHITE,True,CORRECT,0.7444224999999278,744.4224999999278
5,20260325_140546,D,J,False,CALIBRATION,1,36,36,staircase,,,0.053379070064239725,0.03408163265306129,0.003571428571428571,0.014285714285714287,0.5533790700642397,1992,1608,0,,BLACK,,,0,,BLACK,True,CORRECT,0.8111849999986589,811.1849999986589
5,20260325_140546,D,J,False,CALIBRATION,1,37,37,staircase,,,0.040380788429253675,0.030693877551020477,0.003387755102040815,0.013551020408163264,0.4596192115707463,1655,1945,0,,WHITE,,,0,,WHITE,True,CORRECT,1.1881820999988122,1188.1820999988122
5,20260325_140546,D,J,False,CALIBRATION,1,38,38,staircase,,,0.03519799163579308,0.043510204081632725,0.003204081632653061,0.012816326530612248,0.46480200836420693,1673,1927,0,,WHITE,,,0,,BLACK,False,INCORRECT,0.8410278000010294,841.0278000010294
5,20260325_140546,D,J,False,CALIBRATION,1,39,39,staircase,,,0.03321411629072622,0.04048979591836742,0.0030204081632653054,0.012081632653061225,0.5332141162907262,1920,1680,0,,BLACK,,,0,,BLACK,True,CORRECT,1.3267051999991963,1326.7051999991963
5,20260325_140546,D,J,False,CALIBRATION,1,40,40,staircase,,,0.04238566713036656,0.037653061224489866,0.0028367346938775505,0.011346938775510204,0.45761433286963343,1647,1953,0,,WHITE,,,0,,WHITE,True,CORRECT,0.7443488999997498,744.3488999997498
5,20260325_140546,D,J,False,CALIBRATION,1,41,41,staircase,,,0.036746418298780836,0.03500000000000007,0.0026530612244897948,0.01061224489795918,0.46325358170121916,1668,1932,0,,WHITE,,,0,,WHITE,True,CORRECT,0.8723109000002296,872.3109000002296
5,20260325_140546,D,J,False,CALIBRATION,1,42,42,staircase,,,0.02558964082422451,0.04487755102040823,0.00246938775510204,0.009877551020408161,0.4744103591757755,1708,1892,0,,WHITE,,,0,,BLACK,False,INCORRECT,0.9758251999992353,975.8251999992353
5,20260325_140546,D,J,False,CALIBRATION,1,43,43,staircase,,,0.04749773445300228,0.042591836734693946,0.002285714285714285,0.009142857142857142,0.45250226554699774,1629,1971,0,,WHITE,,,0,,WHITE,True,CORRECT,0.785538699999961,785.538699999961
5,20260325_140546,D,J,False,CALIBRATION,1,44,44,staircase,,,0.05502677367101703,0.04048979591836742,0.00210204081632653,0.008408163265306122,0.44497322632898295,1602,1998,0,,WHITE,,,0,,WHITE,True,CORRECT,0.819759800000611,819.759800000611
5,20260325_140546,D,J,False,CALIBRATION,1,45,45,staircase,,,0.049088378087041654,0.038571428571428645,0.0019183673469387753,0.007673469387755103,0.5490883780870417,1977,1623,0,,BLACK,,,0,,BLACK,True,CORRECT,0.8110434999998688,811.0434999998688
5,20260325_140546,D,J,False,CALIBRATION,1,46,46,staircase,,,0.04218254139988985,0.036836734693877625,0.0017346938775510187,0.006938775510204076,0.45781745860011014,1648,1952,0,,WHITE,,,0,,WHITE,True,CORRECT,1.2817515999995521,1281.7515999995521
5,20260325_140546,D,J,False,CALIBRATION,1,47,47,staircase,,,0.019831156188937254,0.035285714285714365,0.0015510204081632638,0.006204081632653057,0.5198311561889373,1871,1729,0,,BLACK,,,0,,BLACK,True,CORRECT,1.2781082000001334,1278.1082000001334
5,20260325_140546,D,J,False,CALIBRATION,1,48,48,staircase,,,0.02521901925434865,0.03391836734693886,0.0013673469387755106,0.005469387755102043,0.5252190192543487,1891,1709,0,,BLACK,,,0,,BLACK,True,CORRECT,0.7712228000000323,771.2228000000323
5,20260325_140546,D,J,False,CALIBRATION,1,49,49,staircase,,,0.03733237056736342,0.0327346938775511,0.001183673469387754,0.004734693877551017,0.46266762943263656,1666,1934,0,,WHITE,,,0,,WHITE,True,CORRECT,0.6277114000004076,627.7114000004076
5,20260325_140546,D,J,False,CALIBRATION,1,50,50,staircase,,,0.032269855763940654,0.03673469387755111,0.001,0.004000000000000001,0.46773014423605935,1684,1916,0,,WHITE,,,0,,BLACK,False,INCORRECT,0.9352585000015097,935.2585000015097
5,20260325_140546,D,J,False,CALIBRATION,1,51,51,staircase,,,0.015368867808932207,0.035734693877551106,0.001,0.004000000000000001,0.4846311321910678,1745,1855,0,,WHITE,,,0,,WHITE,True,CORRECT,1.3061718000008113,1306.1718000008113
5,20260325_140546,D,J,False,CALIBRATION,1,52,52,staircase,,,0.039046095465938256,0.03973469387755111,0.001,0.004000000000000001,0.46095390453406176,1659,1941,0,,WHITE,,,0,,BLACK,False,INCORRECT,1.2880791000006866,1288.0791000006866
5,20260325_140546,D,J,False,CALIBRATION,1,53,53,staircase,,,0.035642036848286776,0.04373469387755111,0.001,0.004000000000000001,0.46435796315171324,1672,1928,0,,WHITE,,,0,,BLACK,False,INCORRECT,1.3001838000000134,1300.1838000000134
5,20260325_140546,D,J,False,CALIBRATION,1,54,54,staircase,,,0.045786793023985466,0.04273469387755111,0.001,0.004000000000000001,0.5457867930239855,1965,1635,0,,BLACK,,,0,,BLACK,True,CORRECT,0.7373692000001029,737.3692000001029
5,20260325_140546,D,J,False,CALIBRATION,1,55,55,staircase,,,0.04283818032043682,0.04173469387755111,0.001,0.004000000000000001,0.5428381803204368,1954,1646,0,,BLACK,,,0,,BLACK,True,CORRECT,1.1326580999993894,1132.6580999993894
5,20260325_140546,D,J,False,CALIBRATION,1,56,56,staircase,,,0.04309223222579441,0.04073469387755111,0.001,0.004000000000000001,0.5430922322257944,1955,1645,0,,BLACK,,,0,,BLACK,True,CORRECT,0.8564571999995678,856.4571999995678
5,20260325_140546,D,J,False,CALIBRATION,1,57,57,staircase,,,0.029107567718741727,0.044734693877551114,0.001,0.004000000000000001,0.5291075677187417,1905,1695,0,,BLACK,,,0,,WHITE,False,INCORRECT,0.8440382000007958,844.0382000007958
5,20260325_140546,D,J,False,CALIBRATION,1,58,58,staircase,,,0.04853295816106306,0.04373469387755111,0.001,0.004000000000000001,0.45146704183893693,1625,1975,0,,WHITE,,,0,,WHITE,True,CORRECT,0.7755037000006268,775.5037000006268
5,20260325_140546,D,J,False,CALIBRATION,1,59,59,staircase,,,0.05662926340490976,0.04273469387755111,0.001,0.004000000000000001,0.5566292634049097,2004,1596,0,,BLACK,,,0,,BLACK,True,CORRECT,0.7338893999985885,733.8893999985885
5,20260325_140546,D,J,False,CALIBRATION,1,60,60,staircase,,,0.031007090740171807,0.04173469387755111,0.001,0.004000000000000001,0.5310070907401718,1912,1688,0,,BLACK,,,0,,BLACK,True,CORRECT,2.114304999999149,2114.304999999149
5,20260325_140546,D,J,False,CALIBRATION,1,61,61,staircase,,,0.055855462890060895,0.04073469387755111,0.001,0.004000000000000001,0.4441445371099391,1599,2001,0,,WHITE,,,0,,WHITE,True,CORRECT,1.3596832000002905,1359.6832000002905
5,20260325_140546,D,J,False,CALIBRATION,1,62,62,staircase,,,0.05431798533792261,0.03973469387755111,0.001,0.004000000000000001,0.4456820146620774,1604,1996,0,,WHITE,,,0,,WHITE,True,CORRECT,0.9842218000012508,984.2218000012508
5,20260325_140546,D,J,False,CALIBRATION,1,63,63,staircase,,,0.04392177659998186,0.03873469387755111,0.001,0.004000000000000001,0.5439217765999819,1958,1642,0,,BLACK,,,0,,BLACK,True,CORRECT,0.8190921000004892,819.0921000004892
5,20260325_140546,D,J,False,CALIBRATION,1,64,64,staircase,,,0.03885495658855929,0.03773469387755111,0.001,0.004000000000000001,0.4611450434114407,1660,1940,0,,WHITE,,,0,,WHITE,True,CORRECT,0.9003792000003159,900.3792000003159
5,20260325_140546,D,J,False,CALIBRATION,1,65,65,staircase,,,0.04027185454389137,0.03673469387755111,0.001,0.004000000000000001,0.5402718545438914,1945,1655,0,,BLACK,,,0,,BLACK,True,CORRECT,0.6720908999996027,672.0908999996027
5,20260325_140546,D,J,False,CALIBRATION,1,66,66,staircase,,,0.039442955202238214,0.035734693877551106,0.001,0.004000000000000001,0.46055704479776177,1658,1942,0,,WHITE,,,0,,WHITE,True,CORRECT,0.6843752000004315,684.3752000004315
5,20260325_140546,D,J,False,CALIBRATION,1,67,67,staircase,,,0.031867796525726626,0.034734693877551105,0.001,0.004000000000000001,0.5318677965257266,1915,1685,0,,BLACK,,,0,,BLACK,True,CORRECT,0.7262584000000061,726.2584000000061
5,20260325_140546,D,J,False,CALIBRATION,1,68,68,staircase,,,0.04251595971247457,0.033734693877551104,0.001,0.004000000000000001,0.45748404028752543,1647,1953,0,,WHITE,,,0,,WHITE,True,CORRECT,0.8142845000002126,814.2845000002126
5,20260325_140546,D,J,False,CALIBRATION,1,69,69,staircase,,,0.04160334925125721,0.0327346938775511,0.001,0.004000000000000001,0.4583966507487428,1650,1950,0,,WHITE,,,0,,WHITE,True,CORRECT,0.5469516000011936,546.9516000011936
5,20260325_140546,D,J,False,CALIBRATION,1,70,70,staircase,,,0.02459648488914118,0.0317346938775511,0.001,0.004000000000000001,0.5245964848891411,1889,1711,0,,BLACK,,,0,,BLACK,True,CORRECT,0.6092547999996896,609.2547999996896
5,20260325_140546,D,J,False,CALIBRATION,1,71,71,staircase,,,0.013381476656827908,0.0307346938775511,0.001,0.004000000000000001,0.5133814766568279,1848,1752,0,,BLACK,,,0,,BLACK,True,CORRECT,0.7356388000007428,735.6388000007428
5,20260325_140546,D,J,False,CALIBRATION,1,72,72,staircase,,,0.04574799146317842,0.0297346938775511,0.001,0.004000000000000001,0.45425200853682157,1635,1965,0,,WHITE,,,0,,WHITE,True,CORRECT,1.5055016000005708,1505.5016000005708
5,20260325_140546,D,J,False,CALIBRATION,1,73,73,staircase,,,0.03562707670514477,0.033734693877551104,0.001,0.004000000000000001,0.46437292329485524,1672,1928,0,,WHITE,,,0,,BLACK,False,INCORRECT,0.8451538000008441,845.1538000008441
5,20260325_140546,D,J,False,CALIBRATION,1,74,74,staircase,,,0.05087498119919784,0.0327346938775511,0.001,0.004000000000000001,0.44912501880080213,1617,1983,0,,WHITE,,,0,,WHITE,True,CORRECT,1.121104899999409,1121.104899999409
5,20260325_140546,D,J,False,CALIBRATION,1,75,75,staircase,,,0.03371297914126161,0.0317346938775511,0.001,0.004000000000000001,0.5337129791412616,1921,1679,0,,BLACK,,,0,,BLACK,True,CORRECT,0.7900676999997813,790.0676999997813
5,20260325_140546,D,J,False,CALIBRATION,1,76,76,staircase,,,0.029436749053941565,0.0307346938775511,0.001,0.004000000000000001,0.5294367490539416,1906,1694,0,,BLACK,,,0,,BLACK,True,CORRECT,0.6578313000009075,657.8313000009075
5,20260325_140546,D,J,False,CALIBRATION,1,77,77,staircase,,,0.04632814900206281,0.0297346938775511,0.001,0.004000000000000001,0.5463281490020628,1967,1633,0,,BLACK,,,0,,BLACK,True,CORRECT,0.5991353999997955,599.1353999997955
5,20260325_140546,D,J,False,CALIBRATION,1,78,78,staircase,,,0.02733568729419145,0.0287346938775511,0.001,0.004000000000000001,0.5273356872941914,1898,1702,0,,BLACK,,,0,,BLACK,True,CORRECT,0.7801964999998745,780.1964999998745
5,20260325_140546,D,J,False,CALIBRATION,1,79,79,staircase,,,0.019899345109616974,0.0327346938775511,0.001,0.004000000000000001,0.519899345109617,1872,1728,0,,BLACK,,,0,,WHITE,False,INCORRECT,1.1454775000001973,1145.4775000001973
5,20260325_140546,D,J,False,CALIBRATION,1,80,80,staircase,,,0.00960241897231874,0.0317346938775511,0.001,0.004000000000000001,0.4903975810276813,1765,1835,0,,WHITE,,,0,,WHITE,True,CORRECT,1.3153433999996196,1315.3433999996196
5,20260325_140546,D,J,False,CALIBRATION,1,81,81,staircase,,,0.020918336991692252,0.0307346938775511,0.001,0.004000000000000001,0.5209183369916922,1875,1725,0,,BLACK,,,0,,BLACK,True,CORRECT,0.7702310999993642,770.2310999993642
5,20260325_140546,D,J,False,CALIBRATION,1,82,82,staircase,,,0.03378849022058882,0.0297346938775511,0.001,0.004000000000000001,0.5337884902205888,1922,1678,0,,BLACK,,,0,,BLACK,True,CORRECT,0.707588900000701,707.588900000701
5,20260325_140546,D,J,False,CALIBRATION,1,83,83,staircase,,,0.023967788215945723,0.0287346938775511,0.001,0.004000000000000001,0.5239677882159457,1886,1714,0,,BLACK,,,0,,BLACK,True,CORRECT,0.8827070999996067,882.7070999996067
5,20260325_140546,D,J,False,CALIBRATION,1,84,84,staircase,,,0.034415129893467185,0.0277346938775511,0.001,0.004000000000000001,0.4655848701065328,1676,1924,0,,WHITE,,,0,,WHITE,True,CORRECT,1.3404681000010896,1340.4681000010896
5,20260325_140546,D,J,False,CALIBRATION,1,85,85,staircase,,,0.019941951554640312,0.0317346938775511,0.001,0.004000000000000001,0.4800580484453597,1728,1872,0,,WHITE,,,0,,BLACK,False,INCORRECT,1.7405828000009933,1740.5828000009933
5,20260325_140546,D,J,False,CALIBRATION,1,86,86,staircase,,,0.03630789017518041,0.035734693877551106,0.001,0.004000000000000001,0.5363078901751804,1931,1669,0,,BLACK,,,0,,WHITE,False,INCORRECT,1.1777517999998963,1177.7517999998963
5,20260325_140546,D,J,False,CALIBRATION,1,87,87,staircase,,,0.03546042819008471,0.034734693877551105,0.001,0.004000000000000001,0.5354604281900847,1928,1672,0,,BLACK,,,0,,BLACK,True,CORRECT,0.6702536000011605,670.2536000011605
5,20260325_140546,D,J,False,CALIBRATION,1,88,88,staircase,,,0.042475465641676834,0.033734693877551104,0.001,0.004000000000000001,0.4575245343583232,1647,1953,0,,WHITE,,,0,,WHITE,True,CORRECT,0.8493918999993184,849.3918999993184
5,20260325_140546,D,J,False,CALIBRATION,1,89,89,staircase,,,0.033761500752041575,0.0327346938775511,0.001,0.004000000000000001,0.4662384992479584,1678,1922,0,,WHITE,,,0,,WHITE,True,CORRECT,1.2379024000001664,1237.9024000001664
5,20260325_140546,D,J,False,CALIBRATION,1,90,90,staircase,,,0.02964731615583275,0.0317346938775511,0.001,0.004000000000000001,0.47035268384416723,1693,1907,0,,WHITE,,,0,,WHITE,True,CORRECT,1.1046640000004118,1104.6640000004118
5,20260325_140546,D,J,False,CALIBRATION,1,91,91,staircase,,,0.04279355398391972,0.0307346938775511,0.001,0.004000000000000001,0.5427935539839197,1954,1646,0,,BLACK,,,0,,BLACK,True,CORRECT,0.7973511000000144,797.3511000000144
5,20260325_140546,D,J,False,CALIBRATION,1,92,92,staircase,,,0.032099311227710994,0.0297346938775511,0.001,0.004000000000000001,0.467900688772289,1684,1916,0,,WHITE,,,0,,WHITE,True,CORRECT,0.8186165999995865,818.6165999995865
5,20260325_140546,D,J,False,CALIBRATION,1,93,93,staircase,,,0.03360405093733118,0.033734693877551104,0.001,0.004000000000000001,0.4663959490626688,1679,1921,0,,WHITE,,,0,,BLACK,False,INCORRECT,1.6191892000006192,1619.1892000006192
5,20260325_140546,D,J,False,CALIBRATION,1,94,94,staircase,,,0.029733628335360227,0.0327346938775511,0.001,0.004000000000000001,0.5297336283353602,1907,1693,0,,BLACK,,,0,,BLACK,True,CORRECT,2.081563100000494,2081.563100000494
5,20260325_140546,D,J,False,CALIBRATION,1,95,95,staircase,,,0.052042817877520714,0.03673469387755111,0.001,0.004000000000000001,0.5520428178775207,1987,1613,0,,BLACK,,,0,,WHITE,False,INCORRECT,1.536698999998407,1536.698999998407
5,20260325_140546,D,J,False,CALIBRATION,1,96,96,staircase,,,0.05011989846323514,0.04073469387755111,0.001,0.004000000000000001,0.44988010153676483,1620,1980,0,,WHITE,,,0,,BLACK,False,INCORRECT,1.0436243999993167,1043.6243999993167
5,20260325_140546,D,J,False,CALIBRATION,1,97,97,staircase,,,0.03528940228743059,0.03973469387755111,0.001,0.004000000000000001,0.4647105977125694,1673,1927,0,,WHITE,,,0,,WHITE,True,CORRECT,0.9357041000002937,935.7041000002937
5,20260325_140546,D,J,False,CALIBRATION,1,98,98,staircase,,,0.04378821603128387,0.04373469387755111,0.001,0.004000000000000001,0.5437882160312839,1958,1642,0,,BLACK,,,0,,WHITE,False,INCORRECT,0.8753149000003759,875.3149000003759
5,20260325_140546,D,J,False,CALIBRATION,1,99,99,staircase,,,0.042122759963572946,0.04273469387755111,0.001,0.004000000000000001,0.542122759963573,1952,1648,0,,BLACK,,,0,,BLACK,True,CORRECT,1.0687908999989304,1068.7908999989304
5,20260325_140546,D,J,False,CALIBRATION,1,100,100,staircase,,,0.023232847344503826,0.04173469387755111,0.001,0.004000000000000001,0.4767671526554962,1716,1884,0,,WHITE,,,0,,WHITE,True,CORRECT,0.8020615000004909,802.0615000004909
5,20260325_140546,D,J,False,CALIBRATION,1,101,101,staircase,,,0.03638240342074247,0.04073469387755111,0.001,0.004000000000000001,0.5363824034207425,1931,1669,0,,BLACK,,,0,,BLACK,True,CORRECT,0.8500798000004579,850.0798000004579
5,20260325_140546,D,J,False,CALIBRATION,1,102,102,staircase,,,0.044109349988562106,0.03973469387755111,0.001,0.004000000000000001,0.5441093499885621,1959,1641,0,,BLACK,,,0,,BLACK,True,CORRECT,0.7638578999994934,763.8578999994934
5,20260325_140546,D,J,False,CALIBRATION,1,103,103,staircase,,,0.04905515280644253,0.04373469387755111,0.001,0.004000000000000001,0.5490551528064426,1977,1623,0,,BLACK,,,0,,WHITE,False,INCORRECT,1.0617698000005475,1061.7698000005475
5,20260325_140546,D,J,False,CALIBRATION,1,104,104,staircase,,,0.04415335693204561,0.04273469387755111,0.001,0.004000000000000001,0.5441533569320456,1959,1641,0,,BLACK,,,0,,BLACK,True,CORRECT,1.2062808999999106,1206.2808999999106
5,20260325_140546,D,J,False,CALIBRATION,1,105,105,staircase,,,0.041581982205706934,0.04173469387755111,0.001,0.004000000000000001,0.541581982205707,1950,1650,0,,BLACK,,,0,,BLACK,True,CORRECT,1.1324652999992395,1132.4652999992395
5,20260325_140546,D,J,False,CALIBRATION,1,106,106,staircase,,,0.035222795764096385,0.045734693877551115,0.001,0.004000000000000001,0.5352227957640964,1927,1673,0,,BLACK,,,0,,WHITE,False,INCORRECT,1.4786633000003349,1478.6633000003349
5,20260325_140546,D,J,False,CALIBRATION,1,107,107,staircase,,,0.05064690633409037,0.044734693877551114,0.001,0.004000000000000001,0.44935309366590964,1618,1982,0,,WHITE,,,0,,WHITE,True,CORRECT,1.5859022000004188,1585.9022000004188
5,20260325_140546,D,J,False,CALIBRATION,1,108,108,staircase,,,0.052477890210880306,0.04373469387755111,0.001,0.004000000000000001,0.4475221097891197,1611,1989,0,,WHITE,,,0,,WHITE,True,CORRECT,0.8581236999998509,858.1236999998509
5,20260325_140546,D,J,False,CALIBRATION,1,109,109,staircase,,,0.035794162393697496,0.04273469387755111,0.001,0.004000000000000001,0.4642058376063025,1671,1929,0,,WHITE,,,0,,WHITE,True,CORRECT,1.181802200000675,1181.802200000675
5,20260325_140546,D,J,False,CALIBRATION,1,110,110,staircase,,,0.04353273641614941,0.04173469387755111,0.001,0.004000000000000001,0.4564672635838506,1643,1957,0,,WHITE,,,0,,WHITE,True,CORRECT,0.8245019000005414,824.5019000005414
5,20260325_140546,D,J,False,CALIBRATION,1,111,111,staircase,,,0.0389694148960498,0.04073469387755111,0.001,0.004000000000000001,0.46103058510395023,1660,1940,0,,WHITE,,,0,,WHITE,True,CORRECT,1.2482720999996673,1248.2720999996673
5,20260325_140546,D,J,False,CALIBRATION,1,112,112,staircase,,,0.04037361518258056,0.03973469387755111,0.001,0.004000000000000001,0.5403736151825805,1945,1655,0,,BLACK,,,0,,BLACK,True,CORRECT,0.9693098000007012,969.3098000007012
5,20260325_140546,D,J,False,CALIBRATION,1,113,113,staircase,,,0.03682827140094639,0.03873469387755111,0.001,0.004000000000000001,0.5368282714009464,1933,1667,0,,BLACK,,,0,,BLACK,True,CORRECT,0.7584461000005831,758.4461000005831
5,20260325_140546,D,J,False,CALIBRATION,1,114,114,staircase,,,0.04310682865508528,0.03773469387755111,0.001,0.004000000000000001,0.5431068286550853,1955,1645,0,,BLACK,,,0,,BLACK,True,CORRECT,0.6579041999993933,657.9041999993933
5,20260325_140546,D,J,False,CALIBRATION,1,115,115,staircase,,,0.039406233110363786,0.03673469387755111,0.001,0.004000000000000001,0.5394062331103637,1942,1658,0,,BLACK,,,0,,BLACK,True,CORRECT,1.3010082999990118,1301.0082999990118
5,20260325_140546,D,J,False,CALIBRATION,1,116,116,staircase,,,0.045327376884033516,0.04073469387755111,0.001,0.004000000000000001,0.5453273768840335,1963,1637,0,,BLACK,,,0,,WHITE,False,INCORRECT,1.4677253999998356,1467.7253999998356
5,20260325_140546,D,J,False,CALIBRATION,1,117,117,staircase,,,0.04315516020865954,0.03973469387755111,0.001,0.004000000000000001,0.5431551602086595,1955,1645,0,,BLACK,,,0,,BLACK,True,CORRECT,1.3909522999983892,1390.9522999983892
5,20260325_140546,D,J,False,CALIBRATION,1,118,118,staircase,,,0.03547453132325967,0.03873469387755111,0.001,0.004000000000000001,0.5354745313232596,1928,1672,0,,BLACK,,,0,,BLACK,True,CORRECT,0.7232749999984662,723.2749999984662
5,20260325_140546,D,J,False,CALIBRATION,1,119,119,staircase,,,0.03497187363350985,0.03773469387755111,0.001,0.004000000000000001,0.5349718736335098,1926,1674,0,,BLACK,,,0,,BLACK,True,CORRECT,1.804533900000024,1804.533900000024
5,20260325_140546,D,J,False,CALIBRATION,1,120,120,staircase,,,0.022583256699498205,0.03673469387755111,0.001,0.004000000000000001,0.5225832566994982,1881,1719,0,,BLACK,,,0,,BLACK,True,CORRECT,0.7220932000000175,722.0932000000175
5,20260325_140546,D,J,False,CALIBRATION,1,121,121,staircase,,,0.0522227687716924,0.035734693877551106,0.001,0.004000000000000001,0.5522227687716924,1988,1612,0,,BLACK,,,0,,BLACK,True,CORRECT,0.8642077999993489,864.2077999993489
5,20260325_140546,D,J,False,CALIBRATION,1,122,122,staircase,,,0.03922716154881795,0.034734693877551105,0.001,0.004000000000000001,0.539227161548818,1941,1659,0,,BLACK,,,0,,BLACK,True,CORRECT,0.6594416000007186,659.4416000007186
5,20260325_140546,D,J,False,CALIBRATION,1,123,123,staircase,,,0.04043669456261573,0.03873469387755111,0.001,0.004000000000000001,0.4595633054373843,1654,1946,0,,WHITE,,,0,,BLACK,False,INCORRECT,1.0225695000008272,1022.5695000008272
5,20260325_140546,D,J,False,CALIBRATION,1,124,124,staircase,,,0.03922029609826209,0.03773469387755111,0.001,0.004000000000000001,0.4607797039017379,1659,1941,0,,WHITE,,,0,,WHITE,True,CORRECT,0.6175269000013941,617.5269000013941
5,20260325_140546,D,J,False,CALIBRATION,1,125,125,staircase,,,0.042575969132540824,0.03673469387755111,0.001,0.004000000000000001,0.5425759691325408,1953,1647,0,,BLACK,,,0,,BLACK,True,CORRECT,0.7249025000000984,724.9025000000984
5,20260325_140546,D,J,False,CALIBRATION,1,126,126,staircase,,,0.03622959857876564,0.04073469387755111,0.001,0.004000000000000001,0.4637704014212344,1670,1930,0,,WHITE,,,0,,BLACK,False,INCORRECT,0.9276653000015358,927.6653000015358
5,20260325_140546,D,J,False,CALIBRATION,1,127,127,staircase,,,0.01584284257929716,0.03973469387755111,0.001,0.004000000000000001,0.5158428425792971,1857,1743,0,,BLACK,,,0,,BLACK,True,CORRECT,1.5401578999990306,1540.1578999990306
5,20260325_140546,D,J,False,CALIBRATION,1,128,128,staircase,,,0.05326698043615992,0.04373469387755111,0.001,0.004000000000000001,0.4467330195638401,1608,1992,0,,WHITE,,,0,,BLACK,False,INCORRECT,0.8918301000012434,891.8301000012434
5,20260325_140546,D,J,False,CALIBRATION,1,129,129,staircase,,,0.045031116822301216,0.04273469387755111,0.001,0.004000000000000001,0.4549688831776988,1638,1962,0,,WHITE,,,0,,WHITE,True,CORRECT,0.8193102999994153,819.3102999994153
5,20260325_140546,D,J,False,CALIBRATION,1,130,130,staircase,,,0.023377566689930972,0.046734693877551116,0.001,0.004000000000000001,0.47662243331006904,1716,1884,0,,WHITE,,,0,,BLACK,False,INCORRECT,0.8158113999998022,815.8113999998022
5,20260325_140546,D,J,False,CALIBRATION,1,131,131,staircase,,,0.03701028806197392,0.05073469387755112,0.001,0.004000000000000001,0.46298971193802607,1667,1933,0,,WHITE,,,0,,BLACK,False,INCORRECT,0.9086967000002915,908.6967000002915
5,20260325_140546,D,J,False,CALIBRATION,1,132,132,staircase,,,0.05869941296113919,0.05473469387755112,0.001,0.004000000000000001,0.4413005870388608,1589,2011,0,,WHITE,,,0,,BLACK,False,INCORRECT,0.8048922000016319,804.8922000016319
5,20260325_140546,D,J,False,CALIBRATION,1,133,133,staircase,,,0.06441078528550093,0.05373469387755112,0.001,0.004000000000000001,0.5644107852855009,2032,1568,0,,BLACK,,,0,,BLACK,True,CORRECT,0.6875667000003887,687.5667000003887
5,20260325_140546,D,J,False,CALIBRATION,1,134,134,staircase,,,0.04726638574405827,0.05273469387755112,0.001,0.004000000000000001,0.4527336142559417,1630,1970,0,,WHITE,,,0,,WHITE,True,CORRECT,0.9098436999993282,909.8436999993282
5,20260325_140546,D,J,False,CALIBRATION,1,135,135,staircase,,,0.053773274555928535,0.05173469387755112,0.001,0.004000000000000001,0.5537732745559285,1994,1606,0,,BLACK,,,0,,BLACK,True,CORRECT,1.0472179999997024,1047.2179999997024
5,20260325_140546,D,J,False,CALIBRATION,1,136,136,staircase,,,0.07111135770439407,0.05073469387755112,0.001,0.004000000000000001,0.4288886422956059,1544,2056,0,,WHITE,,,0,,WHITE,True,CORRECT,1.1546195999999327,1154.6195999999327
5,20260325_140546,D,J,False,CALIBRATION,1,137,137,staircase,,,0.06403953102448766,0.04973469387755112,0.001,0.004000000000000001,0.5640395310244877,2031,1569,0,,BLACK,,,0,,BLACK,True,CORRECT,0.7573150999996869,757.3150999996869
5,20260325_140546,D,J,False,CALIBRATION,1,138,138,staircase,,,0.04067279960643487,0.04873469387755112,0.001,0.004000000000000001,0.4593272003935651,1654,1946,0,,WHITE,,,0,,WHITE,True,CORRECT,0.9498827999996138,949.8827999996138
5,20260325_140546,D,J,False,CALIBRATION,1,139,139,staircase,,,0.0357385243354956,0.04773469387755112,0.001,0.004000000000000001,0.5357385243354956,1929,1671,0,,BLACK,,,0,,BLACK,True,CORRECT,0.6848791000011261,684.8791000011261
5,20260325_140546,D,J,False,CALIBRATION,1,140,140,staircase,,,0.05138397406682433,0.046734693877551116,0.001,0.004000000000000001,0.5513839740668244,1985,1615,0,,BLACK,,,0,,BLACK,True,CORRECT,0.6619431999988592,661.9431999988592
5,20260325_140546,D,J,False,CALIBRATION,1,141,141,staircase,,,0.05380318358257016,0.045734693877551115,0.001,0.004000000000000001,0.4461968164174298,1606,1994,0,,WHITE,,,0,,WHITE,True,CORRECT,0.9741782000000967,974.1782000000967
5,20260325_140546,D,J,False,CALIBRATION,1,142,142,staircase,,,0.044030076677939615,0.044734693877551114,0.001,0.004000000000000001,0.5440300766779396,1959,1641,0,,BLACK,,,0,,BLACK,True,CORRECT,0.6452592999994522,645.2592999994522
5,20260325_140546,D,J,False,CALIBRATION,1,143,143,staircase,,,0.05220419919373153,0.04373469387755111,0.001,0.004000000000000001,0.44779580080626846,1612,1988,0,,WHITE,,,0,,WHITE,True,CORRECT,0.9372801999998046,937.2801999998046
5,20260325_140546,D,J,False,CALIBRATION,1,144,144,staircase,,,0.02474895243725397,0.04273469387755111,0.001,0.004000000000000001,0.47525104756274605,1711,1889,0,,WHITE,,,0,,WHITE,True,CORRECT,2.0538837000003696,2053.8837000003696
5,20260325_140546,D,J,False,CALIBRATION,1,145,145,staircase,,,0.03569151084407267,0.04173469387755111,0.001,0.004000000000000001,0.5356915108440726,1928,1672,0,,BLACK,,,0,,BLACK,True,CORRECT,0.6651483000005101,665.1483000005101
5,20260325_140546,D,J,False,CALIBRATION,1,146,146,staircase,,,0.05432392692883804,0.04073469387755111,0.001,0.004000000000000001,0.44567607307116197,1604,1996,0,,WHITE,,,0,,WHITE,True,CORRECT,1.4218079000002035,1421.8079000002035
5,20260325_140546,D,J,False,CALIBRATION,1,147,147,staircase,,,0.04171034182914388,0.03973469387755111,0.001,0.004000000000000001,0.4582896581708561,1650,1950,0,,WHITE,,,0,,WHITE,True,CORRECT,1.6988461000000825,1698.8461000000825
5,20260325_140546,D,J,False,CALIBRATION,1,148,148,staircase,,,0.06246965640762349,0.04373469387755111,0.001,0.004000000000000001,0.4375303435923765,1575,2025,0,,WHITE,,,0,,BLACK,False,INCORRECT,1.5311632000011741,1531.1632000011741
5,20260325_140546,D,J,False,CALIBRATION,1,149,149,staircase,,,0.051008671831382905,0.04273469387755111,0.001,0.004000000000000001,0.4489913281686171,1616,1984,0,,WHITE,,,0,,WHITE,True,CORRECT,1.0861253000002762,1086.1253000002762
5,20260325_140546,D,J,False,CALIBRATION,1,150,150,staircase,,,0.03388867273834936,0.04173469387755111,0.001,0.004000000000000001,0.5338886727383494,1922,1678,0,,BLACK,,,0,,BLACK,True,CORRECT,0.7196592000000237,719.6592000000237
5,20260325_140546,D,J,False,CALIBRATION,1,151,151,staircase,,,0.05747369389415036,0.04073469387755111,0.001,0.004000000000000001,0.44252630610584964,1593,2007,0,,WHITE,,,0,,WHITE,True,CORRECT,1.0710672000004706,1071.0672000004706
5,20260325_140546,D,J,False,CALIBRATION,1,152,152,staircase,,,0.03149174020906962,0.03973469387755111,0.001,0.004000000000000001,0.5314917402090696,1913,1687,0,,BLACK,,,0,,BLACK,True,CORRECT,0.8213236999999936,821.3236999999936
5,20260325_140546,D,J,False,CALIBRATION,1,153,153,staircase,,,0.06724154457578146,0.03873469387755111,0.001,0.004000000000000001,0.5672415445757815,2042,1558,0,,BLACK,,,0,,BLACK,True,CORRECT,0.8170685999994021,817.0685999994021
5,20260325_140546,D,J,False,CALIBRATION,1,154,154,staircase,,,0.04981192155789965,0.03773469387755111,0.001,0.004000000000000001,0.45018807844210035,1621,1979,0,,WHITE,,,0,,WHITE,True,CORRECT,0.7144648000012239,714.4648000012239
5,20260325_140546,D,J,False,CALIBRATION,1,155,155,staircase,,,0.05197503205903061,0.03673469387755111,0.001,0.004000000000000001,0.4480249679409694,1613,1987,0,,WHITE,,,0,,WHITE,True,CORRECT,2.150878599999487,2150.878599999487
5,20260325_140546,D,J,False,CALIBRATION,1,156,156,staircase,,,0.03787242685967691,0.035734693877551106,0.001,0.004000000000000001,0.4621275731403231,1664,1936,0,,WHITE,,,0,,WHITE,True,CORRECT,0.8664969999990717,866.4969999990717
5,20260325_140546,D,J,False,CALIBRATION,1,157,157,staircase,,,0.03956433087220162,0.034734693877551105,0.001,0.004000000000000001,0.4604356691277984,1658,1942,0,,WHITE,,,0,,WHITE,True,CORRECT,2.6437509000006685,2643.7509000006685
5,20260325_140546,D,J,False,CALIBRATION,1,158,158,staircase,,,0.0296042578804296,0.033734693877551104,0.001,0.004000000000000001,0.5296042578804296,1907,1693,0,,BLACK,,,0,,BLACK,True,CORRECT,0.7640315999997256,764.0315999997256
5,20260325_140546,D,J,False,CALIBRATION,1,159,159,staircase,,,0.027024735833249824,0.0327346938775511,0.001,0.004000000000000001,0.4729752641667502,1703,1897,0,,WHITE,,,0,,WHITE,True,CORRECT,1.2098504999994475,1209.8504999994475
5,20260325_140546,D,J,False,CALIBRATION,1,160,160,staircase,,,0.028856034412905626,0.03673469387755111,0.001,0.004000000000000001,0.5288560344129056,1904,1696,0,,BLACK,,,0,,WHITE,False,INCORRECT,2.6777908999993087,2677.7908999993087
5,20260325_140546,D,J,False,CALIBRATION,1,161,161,staircase,,,0.04600049953443028,0.035734693877551106,0.001,0.004000000000000001,0.4539995004655697,1634,1966,0,,WHITE,,,0,,WHITE,True,CORRECT,1.0971473999998125,1097.1473999998125
5,20260325_140546,D,J,False,CALIBRATION,1,162,162,staircase,,,0.039097325505646215,0.03973469387755111,0.001,0.004000000000000001,0.4609026744943538,1659,1941,0,,WHITE,,,0,,BLACK,False,INCORRECT,1.291015900000275,1291.015900000275
5,20260325_140546,D,J,False,CALIBRATION,1,163,163,staircase,,,0.04178784430910275,0.03873469387755111,0.001,0.004000000000000001,0.45821215569089724,1650,1950,0,,WHITE,,,0,,WHITE,True,CORRECT,1.1540298999989318,1154.0298999989318
5,20260325_140546,D,J,False,CALIBRATION,1,164,164,staircase,,,0.04217876000577487,0.03773469387755111,0.001,0.004000000000000001,0.45782123999422514,1648,1952,0,,WHITE,,,0,,WHITE,True,CORRECT,2.409688700001425,2409.688700001425
5,20260325_140546,D,J,False,CALIBRATION,1,165,165,staircase,,,0.03186258332789762,0.03673469387755111,0.001,0.004000000000000001,0.5318625833278976,1915,1685,0,,BLACK,,,0,,BLACK,True,CORRECT,0.7439635999999155,743.9635999999155
5,20260325_140546,D,J,False,CALIBRATION,1,166,166,staircase,,,0.04073595425596915,0.035734693877551106,0.001,0.004000000000000001,0.5407359542559691,1947,1653,0,,BLACK,,,0,,BLACK,True,CORRECT,1.0502766000008705,1050.2766000008705
5,20260325_140546,D,J,False,CALIBRATION,1,167,167,staircase,,,0.0364325956794955,0.034734693877551105,0.001,0.004000000000000001,0.4635674043205045,1669,1931,0,,WHITE,,,0,,WHITE,True,CORRECT,2.228410100000474,2228.410100000474
5,20260325_140546,D,J,False,CALIBRATION,1,168,168,staircase,,,0.03929280928347098,0.03873469387755111,0.001,0.004000000000000001,0.460707190716529,1659,1941,0,,WHITE,,,0,,BLACK,False,INCORRECT,0.9754780000002938,975.4780000002938
5,20260325_140546,D,J,False,CALIBRATION,1,169,169,staircase,,,0.028545830867643607,0.04273469387755111,0.001,0.004000000000000001,0.4714541691323564,1697,1903,0,,WHITE,,,0,,BLACK,False,INCORRECT,0.9022832999999082,902.2832999999082
5,20260325_140546,D,J,False,CALIBRATION,1,170,170,staircase,,,0.04728121204771149,0.04173469387755111,0.001,0.004000000000000001,0.5472812120477115,1970,1630,0,,BLACK,,,0,,BLACK,True,CORRECT,0.8002280999990035,800.2280999990035
5,20260325_140546,D,J,False,CALIBRATION,1,171,171,staircase,,,0.03677837093601812,0.045734693877551115,0.001,0.004000000000000001,0.5367783709360181,1932,1668,0,,BLACK,,,0,,WHITE,False,INCORRECT,1.4576450000004115,1457.6450000004115
5,20260325_140546,D,J,False,CALIBRATION,1,172,172,staircase,,,0.05902907135435578,0.044734693877551114,0.001,0.004000000000000001,0.5590290713543558,2013,1587,0,,BLACK,,,0,,BLACK,True,CORRECT,0.7995210000008228,799.5210000008228
5,20260325_140546,D,J,False,CALIBRATION,1,173,173,staircase,,,0.041794847460755784,0.04373469387755111,0.001,0.004000000000000001,0.4582051525392442,1650,1950,0,,WHITE,,,0,,WHITE,True,CORRECT,1.6269859000003635,1626.9859000003635
5,20260325_140546,D,J,False,CALIBRATION,1,174,174,staircase,,,0.0563409681931588,0.04273469387755111,0.001,0.004000000000000001,0.4436590318068412,1597,2003,0,,WHITE,,,0,,WHITE,True,CORRECT,1.0218609000003198,1021.8609000003198
5,20260325_140546,D,J,False,CALIBRATION,1,175,175,staircase,,,0.03557701806860724,0.046734693877551116,0.001,0.004000000000000001,0.46442298193139275,1672,1928,0,,WHITE,,,0,,BLACK,False,INCORRECT,1.2427825999984634,1242.7825999984634
5,20260325_140546,D,J,False,CALIBRATION,1,176,176,staircase,,,0.045066604411194595,0.045734693877551115,0.001,0.004000000000000001,0.4549333955888054,1638,1962,0,,WHITE,,,0,,WHITE,True,CORRECT,0.9034869999995863,903.4869999995863
5,20260325_140546,D,J,False,CALIBRATION,1,177,177,staircase,,,0.0370781882487454,0.044734693877551114,0.001,0.004000000000000001,0.4629218117512546,1667,1933,0,,WHITE,,,0,,WHITE,True,CORRECT,1.067831300000762,1067.831300000762
5,20260325_140546,D,J,False,CALIBRATION,1,178,178,staircase,,,0.0467197397583179,0.04373469387755111,0.001,0.004000000000000001,0.4532802602416821,1632,1968,0,,WHITE,,,0,,WHITE,True,CORRECT,1.625821100000394,1625.821100000394
5,20260325_140546,D,J,False,CALIBRATION,1,179,179,staircase,,,0.021607363047493097,0.04273469387755111,0.001,0.004000000000000001,0.5216073630474931,1878,1722,0,,BLACK,,,0,,BLACK,True,CORRECT,0.7729158000001917,772.9158000001917
5,20260325_140546,D,J,False,CALIBRATION,1,180,180,staircase,,,0.026222489822191865,0.046734693877551116,0.001,0.004000000000000001,0.4737775101778081,1706,1894,0,,WHITE,,,0,,BLACK,False,INCORRECT,1.6501513000002888,1650.1513000002888
5,20260325_140546,D,J,False,CALIBRATION,1,181,181,staircase,,,0.05460767422139374,0.045734693877551115,0.001,0.004000000000000001,0.5546076742213938,1997,1603,0,,BLACK,,,0,,BLACK,True,CORRECT,0.8268222999995487,826.8222999995487
5,20260325_140546,D,J,False,CALIBRATION,1,182,182,staircase,,,0.04718319961471507,0.04973469387755112,0.001,0.004000000000000001,0.5471831996147151,1970,1630,0,,BLACK,,,0,,WHITE,False,INCORRECT,1.9295106000008673,1929.5106000008673
5,20260325_140546,D,J,False,CALIBRATION,1,183,183,staircase,,,0.06273422458636829,0.04873469387755112,0.001,0.004000000000000001,0.4372657754136317,1574,2026,0,,WHITE,,,0,,WHITE,True,CORRECT,0.6032181999999011,603.2181999999011
5,20260325_140546,D,J,False,CALIBRATION,1,184,184,staircase,,,0.042856827952016785,0.04773469387755112,0.001,0.004000000000000001,0.5428568279520167,1954,1646,0,,BLACK,,,0,,BLACK,True,CORRECT,0.681931799999802,681.931799999802
5,20260325_140546,D,J,False,CALIBRATION,1,185,185,staircase,,,0.06134071950243774,0.046734693877551116,0.001,0.004000000000000001,0.5613407195024377,2021,1579,0,,BLACK,,,0,,BLACK,True,CORRECT,1.1668973000014375,1166.8973000014375
5,20260325_140546,D,J,False,CALIBRATION,1,186,186,staircase,,,0.039650401725593976,0.045734693877551115,0.001,0.004000000000000001,0.460349598274406,1657,1943,0,,WHITE,,,0,,WHITE,True,CORRECT,0.8707609000011871,870.7609000011871
5,20260325_140546,D,J,False,CALIBRATION,1,187,187,staircase,,,0.03493409565030313,0.04973469387755112,0.001,0.004000000000000001,0.46506590434969686,1674,1926,0,,WHITE,,,0,,BLACK,False,INCORRECT,0.8434747999999672,843.4747999999672
5,20260325_140546,D,J,False,CALIBRATION,1,188,188,staircase,,,0.04566315335172733,0.04873469387755112,0.001,0.004000000000000001,0.4543368466482727,1636,1964,0,,WHITE,,,0,,WHITE,True,CORRECT,1.8724973000007594,1872.4973000007594
5,20260325_140546,D,J,False,CALIBRATION,1,189,189,staircase,,,0.048219944101077564,0.04773469387755112,0.001,0.004000000000000001,0.45178005589892245,1626,1974,0,,WHITE,,,0,,WHITE,True,CORRECT,0.9536490999998932,953.6490999998932
5,20260325_140546,D,J,False,CALIBRATION,1,190,190,staircase,,,0.04032352428821078,0.046734693877551116,0.001,0.004000000000000001,0.4596764757117892,1655,1945,0,,WHITE,,,0,,WHITE,True,CORRECT,0.9655292999996163,965.5292999996163
5,20260325_140546,D,J,False,CALIBRATION,1,191,191,staircase,,,0.05565039742863803,0.05073469387755112,0.001,0.004000000000000001,0.44434960257136197,1600,2000,0,,WHITE,,,0,,BLACK,False,INCORRECT,1.4093283000001975,1409.3283000001975
5,20260325_140546,D,J,False,CALIBRATION,1,192,192,staircase,,,0.05755675994391679,0.04973469387755112,0.001,0.004000000000000001,0.5575567599439168,2007,1593,0,,BLACK,,,0,,BLACK,True,CORRECT,0.7750882999989699,775.0882999989699
5,20260325_140546,D,J,False,CALIBRATION,1,193,193,staircase,,,0.04837116496077397,0.04873469387755112,0.001,0.004000000000000001,0.548371164960774,1974,1626,0,,BLACK,,,0,,BLACK,True,CORRECT,0.7196594999986701,719.6594999986701
5,20260325_140546,D,J,False,CALIBRATION,1,194,194,staircase,,,0.042161303097897604,0.04773469387755112,0.001,0.004000000000000001,0.4578386969021024,1648,1952,0,,WHITE,,,0,,WHITE,True,CORRECT,0.779870899999878,779.870899999878
5,20260325_140546,D,J,False,CALIBRATION,1,195,195,staircase,,,0.04696693226846302,0.046734693877551116,0.001,0.004000000000000001,0.546966932268463,1969,1631,0,,BLACK,,,0,,BLACK,True,CORRECT,0.7751374999988911,775.1374999988911
5,20260325_140546,D,J,False,CALIBRATION,1,196,196,staircase,,,0.04259721924268661,0.045734693877551115,0.001,0.004000000000000001,0.4574027807573134,1647,1953,0,,WHITE,,,0,,WHITE,True,CORRECT,0.8056400000004942,805.6400000004942
5,20260325_140546,D,J,False,CALIBRATION,1,197,197,staircase,,,0.03704270658837945,0.044734693877551114,0.001,0.004000000000000001,0.5370427065883795,1933,1667,0,,BLACK,,,0,,BLACK,True,CORRECT,0.6110645000007935,611.0645000007935
5,20260325_140546,D,J,False,CALIBRATION,1,198,198,staircase,,,0.04762091790748615,0.04373469387755111,0.001,0.004000000000000001,0.5476209179074861,1971,1629,0,,BLACK,,,0,,BLACK,True,CORRECT,0.6191995000008319,619.1995000008319
5,20260325_140546,D,J,False,CALIBRATION,1,199,199,staircase,,,0.03894405467598255,0.04273469387755111,0.001,0.004000000000000001,0.5389440546759825,1940,1660,0,,BLACK,,,0,,BLACK,True,CORRECT,0.7505317000013747,750.5317000013747
5,20260325_140546,D,J,False,CALIBRATION,1,200,200,staircase,,,0.03952364734856923,0.04173469387755111,0.001,0.004000000000000001,0.5395236473485693,1942,1658,0,,BLACK,,,0,,BLACK,True,CORRECT,0.7253051000006963,725.3051000006963
5,20260325_140546,D,J,False,CALIBRATION,1,201,201,staircase,,,0.028010386215032716,0.045734693877551115,0.001,0.004000000000000001,0.5280103862150327,1901,1699,0,,BLACK,,,0,,WHITE,False,INCORRECT,0.8863318999992771,886.3318999992771
5,20260325_140546,D,J,False,CALIBRATION,1,202,202,staircase,,,0.0672767595758719,0.044734693877551114,0.001,0.004000000000000001,0.43272324042412813,1558,2042,0,,WHITE,,,0,,WHITE,True,CORRECT,0.8995813999990787,899.5813999990787
5,20260325_140546,D,J,False,CALIBRATION,1,203,203,staircase,,,0.0395234252317364,0.04873469387755112,0.001,0.004000000000000001,0.4604765747682636,1658,1942,0,,WHITE,,,0,,BLACK,False,INCORRECT,2.855059399998936,2855.059399998936
5,20260325_140546,D,J,False,CALIBRATION,1,204,204,staircase,,,0.04441927520080708,0.04773469387755112,0.001,0.004000000000000001,0.5444192752008071,1960,1640,0,,BLACK,,,0,,BLACK,True,CORRECT,1.4761990000006335,1476.1990000006335
5,20260325_140546,D,J,False,CALIBRATION,1,205,205,staircase,,,0.04835777438375522,0.046734693877551116,0.001,0.004000000000000001,0.4516422256162448,1626,1974,0,,WHITE,,,0,,WHITE,True,CORRECT,1.010327400001188,1010.3274000011879
5,20260325_140546,D,J,False,CALIBRATION,1,206,206,staircase,,,0.051479614404179426,0.05073469387755112,0.001,0.004000000000000001,0.4485203855958206,1615,1985,0,,WHITE,,,0,,BLACK,False,INCORRECT,1.2191352999998344,1219.1352999998344
5,20260325_140546,D,J,False,CALIBRATION,1,207,207,staircase,,,0.06428738165995015,0.04973469387755112,0.001,0.004000000000000001,0.5642873816599502,2031,1569,0,,BLACK,,,0,,BLACK,True,CORRECT,0.7363082000010763,736.3082000010763
5,20260325_140546,D,J,False,CALIBRATION,1,208,208,staircase,,,0.06801056996254448,0.04873469387755112,0.001,0.004000000000000001,0.4319894300374555,1555,2045,0,,WHITE,,,0,,WHITE,True,CORRECT,1.6390959000000294,1639.0959000000294
5,20260325_140546,D,J,False,CALIBRATION,1,209,209,staircase,,,0.051962606490315574,0.04773469387755112,0.001,0.004000000000000001,0.5519626064903156,1987,1613,0,,BLACK,,,0,,BLACK,True,CORRECT,0.8584516999999323,858.4516999999323
5,20260325_140546,D,J,False,CALIBRATION,1,210,210,staircase,,,0.049666608307013485,0.046734693877551116,0.001,0.004000000000000001,0.5496666083070135,1979,1621,0,,BLACK,,,0,,BLACK,True,CORRECT,0.7510560999999143,751.0560999999143
5,20260325_140546,D,J,False,CALIBRATION,1,211,211,staircase,,,0.040810605290917554,0.045734693877551115,0.001,0.004000000000000001,0.45918939470908243,1653,1947,0,,WHITE,,,0,,WHITE,True,CORRECT,0.9736609999999928,973.6609999999928
5,20260325_140546,D,J,False,CALIBRATION,1,212,212,staircase,,,0.0521156050922857,0.044734693877551114,0.001,0.004000000000000001,0.5521156050922857,1988,1612,0,,BLACK,,,0,,BLACK,True,CORRECT,1.0095672999996168,1009.5672999996168
5,20260325_140546,D,J,False,CALIBRATION,1,213,213,staircase,,,0.059753595634118764,0.04373469387755111,0.001,0.004000000000000001,0.44024640436588125,1585,2015,0,,WHITE,,,0,,WHITE,True,CORRECT,0.6028165000006993,602.8165000006993
5,20260325_140546,D,J,False,CALIBRATION,1,214,214,staircase,,,0.03204141979596987,0.04273469387755111,0.001,0.004000000000000001,0.5320414197959699,1915,1685,0,,BLACK,,,0,,BLACK,True,CORRECT,1.224264200000107,1224.264200000107
5,20260325_140546,D,J,False,CALIBRATION,1,215,215,staircase,,,0.05986626858068425,0.04173469387755111,0.001,0.004000000000000001,0.4401337314193158,1584,2016,0,,WHITE,,,0,,WHITE,True,CORRECT,0.8404353000005358,840.4353000005358
5,20260325_140546,D,J,False,CALIBRATION,1,216,216,staircase,,,0.04970517143809978,0.04073469387755111,0.001,0.004000000000000001,0.5497051714380998,1979,1621,0,,BLACK,,,0,,BLACK,True,CORRECT,1.257842700000765,1257.842700000765
5,20260325_140546,D,J,False,CALIBRATION,1,217,217,staircase,,,0.033977141650442015,0.03973469387755111,0.001,0.004000000000000001,0.533977141650442,1922,1678,0,,BLACK,,,0,,BLACK,True,CORRECT,0.6502375000000029,650.2375000000029
5,20260325_140546,D,J,False,CALIBRATION,1,218,218,staircase,,,0.04546527201119009,0.03873469387755111,0.001,0.004000000000000001,0.4545347279888099,1636,1964,0,,WHITE,,,0,,WHITE,True,CORRECT,0.6663059000002249,666.3059000002249
5,20260325_140546,D,J,False,CALIBRATION,1,219,219,staircase,,,0.02589788333728766,0.03773469387755111,0.001,0.004000000000000001,0.5258978833372877,1893,1707,0,,BLACK,,,0,,BLACK,True,CORRECT,0.7034860000003391,703.4860000003391
5,20260325_140546,D,J,False,CALIBRATION,1,220,220,staircase,,,0.02611475481248241,0.03673469387755111,0.001,0.004000000000000001,0.5261147548124824,1894,1706,0,,BLACK,,,0,,BLACK,True,CORRECT,1.3890818999989278,1389.0818999989278
5,20260325_140546,D,J,False,CALIBRATION,1,221,221,staircase,,,0.03211520062597102,0.035734693877551106,0.001,0.004000000000000001,0.467884799374029,1684,1916,0,,WHITE,,,0,,WHITE,True,CORRECT,1.2743236000005709,1274.3236000005709
5,20260325_140546,D,J,False,CALIBRATION,1,222,222,staircase,,,0.055392673041670414,0.034734693877551105,0.001,0.004000000000000001,0.4446073269583296,1601,1999,0,,WHITE,,,0,,WHITE,True,CORRECT,1.0704863000009937,1070.4863000009937
5,20260325_140546,D,J,False,CALIBRATION,1,223,223,staircase,,,0.04769432892737885,0.03873469387755111,0.001,0.004000000000000001,0.45230567107262115,1628,1972,0,,WHITE,,,0,,BLACK,False,INCORRECT,0.7897060999985115,789.7060999985115
5,20260325_140546,D,J,False,CALIBRATION,1,224,224,staircase,,,0.03955244870132344,0.03773469387755111,0.001,0.004000000000000001,0.46044755129867654,1658,1942,0,,WHITE,,,0,,WHITE,True,CORRECT,0.8461859999988519,846.1859999988519
5,20260325_140546,D,J,False,CALIBRATION,1,225,225,staircase,,,0.039510138196658065,0.04173469387755111,0.001,0.004000000000000001,0.46048986180334195,1658,1942,0,,WHITE,,,0,,BLACK,False,INCORRECT,1.325506299999688,1325.506299999688
5,20260325_140546,D,J,False,CALIBRATION,1,226,226,staircase,,,0.05176364854311308,0.04073469387755111,0.001,0.004000000000000001,0.4482363514568869,1614,1986,0,,WHITE,,,0,,WHITE,True,CORRECT,0.779278300000442,779.278300000442
5,20260325_140546,D,J,False,CALIBRATION,1,227,227,staircase,,,0.04217540067368646,0.03973469387755111,0.001,0.004000000000000001,0.45782459932631353,1648,1952,0,,WHITE,,,0,,WHITE,True,CORRECT,1.4048989999992045,1404.8989999992045
5,20260325_140546,D,J,False,CALIBRATION,1,228,228,staircase,,,0.044358235919894934,0.03873469387755111,0.001,0.004000000000000001,0.544358235919895,1960,1640,0,,BLACK,,,0,,BLACK,True,CORRECT,0.6776098999998794,677.6098999998794
5,20260325_140546,D,J,False,CALIBRATION,1,229,229,staircase,,,0.021658978861026582,0.03773469387755111,0.001,0.004000000000000001,0.4783410211389734,1722,1878,0,,WHITE,,,0,,WHITE,True,CORRECT,1.473907199999303,1473.907199999303
5,20260325_140546,D,J,False,CALIBRATION,1,230,230,staircase,,,0.051278330553393675,0.03673469387755111,0.001,0.004000000000000001,0.5512783305533937,1985,1615,0,,BLACK,,,0,,BLACK,True,CORRECT,0.6341455000001588,634.1455000001588
5,20260325_140546,D,J,False,CALIBRATION,1,231,231,staircase,,,0.020048377282576347,0.035734693877551106,0.001,0.004000000000000001,0.5200483772825764,1872,1728,0,,BLACK,,,0,,BLACK,True,CORRECT,0.7010960999996314,701.0960999996314
5,20260325_140546,D,J,False,CALIBRATION,1,232,232,staircase,,,0.04128065917877175,0.034734693877551105,0.001,0.004000000000000001,0.5412806591787718,1949,1651,0,,BLACK,,,0,,BLACK,True,CORRECT,1.2441878000008728,1244.1878000008728
5,20260325_140546,D,J,False,CALIBRATION,1,233,233,staircase,,,0.040303198154295665,0.033734693877551104,0.001,0.004000000000000001,0.45969680184570433,1655,1945,0,,WHITE,,,0,,WHITE,True,CORRECT,0.8186445999999705,818.6445999999705
5,20260325_140546,D,J,False,CALIBRATION,1,234,234,staircase,,,0.04352543087627159,0.0327346938775511,0.001,0.004000000000000001,0.5435254308762716,1957,1643,0,,BLACK,,,0,,BLACK,True,CORRECT,0.6787307999984478,678.7307999984478
5,20260325_140546,D,J,False,CALIBRATION,1,235,235,staircase,,,0.03744513703182405,0.0317346938775511,0.001,0.004000000000000001,0.5374451370318241,1935,1665,0,,BLACK,,,0,,BLACK,True,CORRECT,1.5626654000006965,1562.6654000006965
5,20260325_140546,D,J,False,CALIBRATION,1,236,236,staircase,,,0.029720567446968525,0.0307346938775511,0.001,0.004000000000000001,0.5297205674469685,1907,1693,0,,BLACK,,,0,,BLACK,True,CORRECT,1.1803751999996166,1180.3751999996166
5,20260325_140546,D,J,False,CALIBRATION,1,237,237,staircase,,,0.024386040167462472,0.0297346938775511,0.001,0.004000000000000001,0.5243860401674625,1888,1712,0,,BLACK,,,0,,BLACK,True,CORRECT,0.718389899999238,718.389899999238
5,20260325_140546,D,J,False,CALIBRATION,1,238,238,staircase,,,0.03175193354924105,0.0287346938775511,0.001,0.004000000000000001,0.5317519335492411,1914,1686,0,,BLACK,,,0,,BLACK,True,CORRECT,0.6362320999996882,636.2320999996882
5,20260325_140546,D,J,False,CALIBRATION,1,239,239,staircase,,,0.025000107334045445,0.0277346938775511,0.001,0.004000000000000001,0.47499989266595455,1710,1890,0,,WHITE,,,0,,WHITE,True,CORRECT,0.9812442000002193,981.2442000002193
5,20260325_140546,D,J,False,CALIBRATION,1,240,240,staircase,,,0.02728591305197376,0.026734693877551098,0.001,0.004000000000000001,0.47271408694802625,1702,1898,0,,WHITE,,,0,,WHITE,True,CORRECT,1.1030327000007674,1103.0327000007674
5,20260325_140546,D,J,False,CALIBRATION,1,241,241,staircase,,,0.017107119044452064,0.025734693877551097,0.001,0.004000000000000001,0.48289288095554794,1738,1862,0,,WHITE,,,0,,WHITE,True,CORRECT,2.0173982999986038,2017.3982999986038
5,20260325_140546,D,J,False,CALIBRATION,1,242,242,staircase,,,0.022964194069153072,0.024734693877551096,0.001,0.004000000000000001,0.5229641940691531,1883,1717,0,,BLACK,,,0,,BLACK,True,CORRECT,1.5631907999995747,1563.1907999995747
5,20260325_140546,D,J,False,CALIBRATION,1,243,243,staircase,,,0.020595298618112094,0.023734693877551095,0.001,0.004000000000000001,0.4794047013818879,1726,1874,0,,WHITE,,,0,,WHITE,True,CORRECT,1.0167870999994193,1016.7870999994193
5,20260325_140546,D,J,False,CALIBRATION,1,244,244,staircase,,,0.015174151445008978,0.022734693877551095,0.001,0.004000000000000001,0.515174151445009,1855,1745,0,,BLACK,,,0,,BLACK,True,CORRECT,0.7835130999992543,783.5130999992543
5,20260325_140546,D,J,False,CALIBRATION,1,245,245,staircase,,,0.03665954092628964,0.026734693877551095,0.001,0.004000000000000001,0.5366595409262896,1932,1668,0,,BLACK,,,0,,WHITE,False,INCORRECT,2.647056199999497,2647.056199999497
5,20260325_140546,D,J,False,CALIBRATION,1,246,246,staircase,,,0.01380383722886683,0.025734693877551094,0.001,0.004000000000000001,0.5138038372288668,1850,1750,0,,BLACK,,,0,,BLACK,True,CORRECT,1.0104523000009067,1010.4523000009067
5,20260325_140546,D,J,False,CALIBRATION,1,247,247,staircase,,,0.026672262009347945,0.024734693877551093,0.001,0.004000000000000001,0.47332773799065203,1704,1896,0,,WHITE,,,0,,WHITE,True,CORRECT,0.7876095999999961,787.6095999999961
5,20260325_140546,D,J,False,CALIBRATION,1,248,248,staircase,,,0.020734147525274752,0.023734693877551092,0.001,0.004000000000000001,0.47926585247472525,1725,1875,0,,WHITE,,,0,,WHITE,True,CORRECT,0.7885644999987562,788.5644999987562
5,20260325_140546,D,J,False,CALIBRATION,1,249,249,staircase,,,0.0002777777777777778,0.02273469387755109,0.001,0.004000000000000001,0.49972222222222223,1799,1801,0,,WHITE,,,0,,WHITE,True,CORRECT,0.9617364000005182,961.7364000005182
5,20260325_140546,D,J,False,CALIBRATION,1,250,250,staircase,,,0.019049459379135488,0.02173469387755109,0.001,0.004000000000000001,0.4809505406208645,1731,1869,0,,WHITE,,,0,,WHITE,True,CORRECT,0.9107430999993085,910.7430999993085
5,20260325_140546,D,J,False,CALIBRATION,1,251,251,staircase,,,0.006661994658340258,0.02573469387755109,0.001,0.004000000000000001,0.5066619946583403,1824,1776,0,,BLACK,,,0,,WHITE,False,INCORRECT,2.0904393999990134,2090.4393999990134
5,20260325_140546,D,J,False,CALIBRATION,1,252,252,staircase,,,0.04245792319101453,0.02973469387755109,0.001,0.004000000000000001,0.5424579231910145,1953,1647,0,,BLACK,,,0,,WHITE,False,INCORRECT,2.060017499999958,2060.017499999958
5,20260325_140546,D,J,False,CALIBRATION,1,253,253,staircase,,,0.03720816012092981,0.03373469387755109,0.001,0.004000000000000001,0.5372081601209298,1934,1666,0,,BLACK,,,0,,WHITE,False,INCORRECT,0.9209179999998014,920.9179999998014
5,20260325_140546,D,J,False,CALIBRATION,1,254,254,staircase,,,0.024735922859579852,0.03273469387755109,0.001,0.004000000000000001,0.4752640771404201,1711,1889,0,,WHITE,,,0,,WHITE,True,CORRECT,0.9827662999996392,982.7662999996392
5,20260325_140546,D,J,False,CALIBRATION,1,255,255,staircase,,,0.04035926419318013,0.03173469387755109,0.001,0.004000000000000001,0.5403592641931801,1945,1655,0,,BLACK,,,0,,BLACK,True,CORRECT,1.5273116999997,1527.3116999997
5,20260325_140546,D,J,False,CALIBRATION,1,256,256,staircase,,,0.028640843785010146,0.030734693877551088,0.001,0.004000000000000001,0.47135915621498986,1697,1903,0,,WHITE,,,0,,WHITE,True,CORRECT,2.08068639999874,2080.68639999874
5,20260325_140546,D,J,False,CALIBRATION,1,257,257,staircase,,,0.031844037190839294,0.03473469387755109,0.001,0.004000000000000001,0.5318440371908393,1915,1685,0,,BLACK,,,0,,WHITE,False,INCORRECT,1.5344944999997097,1534.4944999997097
5,20260325_140546,D,J,False,CALIBRATION,1,258,258,staircase,,,0.022857822766811496,0.03373469387755109,0.001,0.004000000000000001,0.5228578227668115,1882,1718,0,,BLACK,,,0,,BLACK,True,CORRECT,1.0681382000002486,1068.1382000002486
5,20260325_140546,D,J,False,CALIBRATION,1,259,259,staircase,,,0.033138114121026685,0.037734693877551094,0.001,0.004000000000000001,0.4668618858789733,1681,1919,0,,WHITE,,,0,,BLACK,False,INCORRECT,1.4372622999999294,1437.2622999999294
5,20260325_140546,D,J,False,CALIBRATION,1,260,260,staircase,,,0.03547381400569294,0.03673469387755109,0.001,0.004000000000000001,0.5354738140056929,1928,1672,0,,BLACK,,,0,,BLACK,True,CORRECT,1.0525797999998758,1052.5797999998758
5,20260325_140546,D,J,False,CALIBRATION,1,261,261,staircase,,,0.04718925286171394,0.03573469387755109,0.001,0.004000000000000001,0.45281074713828606,1630,1970,0,,WHITE,,,0,,WHITE,True,CORRECT,0.9215361000005942,921.5361000005942
5,20260325_140546,D,J,False,CALIBRATION,1,262,262,staircase,,,0.025835378855700045,0.03473469387755109,0.001,0.004000000000000001,0.5258353788557001,1893,1707,0,,BLACK,,,0,,BLACK,True,CORRECT,0.72286239999994,722.86239999994
5,20260325_140546,D,J,False,CALIBRATION,1,263,263,staircase,,,0.036083319413754165,0.038734693877551095,0.001,0.004000000000000001,0.5360833194137542,1930,1670,0,,BLACK,,,0,,WHITE,False,INCORRECT,1.479541499998959,1479.541499998959
5,20260325_140546,D,J,False,CALIBRATION,1,264,264,staircase,,,0.04960836038915102,0.037734693877551094,0.001,0.004000000000000001,0.5496083603891511,1979,1621,0,,BLACK,,,0,,BLACK,True,CORRECT,2.678771000000779,2678.771000000779
5,20260325_140546,D,J,False,CALIBRATION,1,265,265,staircase,,,0.03532883361446089,0.03673469387755109,0.001,0.004000000000000001,0.5353288336144609,1927,1673,0,,BLACK,,,0,,BLACK,True,CORRECT,2.219947100000354,2219.947100000354
5,20260325_140546,D,J,False,CALIBRATION,1,266,266,staircase,,,0.06771716451312597,0.03573469387755109,0.001,0.004000000000000001,0.432282835486874,1556,2044,0,,WHITE,,,0,,WHITE,True,CORRECT,0.7196829000004072,719.6829000004072
5,20260325_140546,D,J,False,CALIBRATION,1,267,267,staircase,,,0.023246960164270827,0.03473469387755109,0.001,0.004000000000000001,0.5232469601642709,1884,1716,0,,BLACK,,,0,,BLACK,True,CORRECT,0.8907194999992498,890.7194999992498
5,20260325_140546,D,J,False,CALIBRATION,1,268,268,staircase,,,0.046061551029998,0.03373469387755109,0.001,0.004000000000000001,0.546061551029998,1966,1634,0,,BLACK,,,0,,BLACK,True,CORRECT,0.6411979999993491,641.1979999993491
5,20260325_140546,D,J,False,CALIBRATION,1,269,269,staircase,,,0.030951573663588132,0.03273469387755109,0.001,0.004000000000000001,0.5309515736635881,1911,1689,0,,BLACK,,,0,,BLACK,True,CORRECT,0.9382764000001771,938.2764000001771
5,20260325_140546,D,J,False,CALIBRATION,1,270,270,staircase,,,0.030112277872045234,0.03173469387755109,0.001,0.004000000000000001,0.5301122778720453,1908,1692,0,,BLACK,,,0,,BLACK,True,CORRECT,1.5387126000005082,1538.7126000005082
5,20260325_140546,D,J,False,CALIBRATION,1,271,271,staircase,,,0.025316683626760907,0.03573469387755109,0.001,0.004000000000000001,0.5253166836267609,1891,1709,0,,BLACK,,,0,,WHITE,False,INCORRECT,1.9349486000010074,1934.9486000010074
5,20260325_140546,D,J,False,CALIBRATION,1,272,272,staircase,,,0.026472018303920535,0.039734693877551096,0.001,0.004000000000000001,0.5264720183039205,1895,1705,0,,BLACK,,,0,,WHITE,False,INCORRECT,1.5322419999993144,1532.2419999993144
5,20260325_140546,D,J,False,CALIBRATION,1,273,273,staircase,,,0.04353145537136948,0.038734693877551095,0.001,0.004000000000000001,0.4564685446286305,1643,1957,0,,WHITE,,,0,,WHITE,True,CORRECT,1.6227984999986802,1622.7984999986802
5,20260325_140546,D,J,False,CALIBRATION,1,274,274,staircase,,,0.03448301825643246,0.037734693877551094,0.001,0.004000000000000001,0.5344830182564324,1924,1676,0,,BLACK,,,0,,BLACK,True,CORRECT,0.6691322999995464,669.1322999995464
5,20260325_140546,D,J,False,CALIBRATION,1,275,275,staircase,,,0.03324900531980014,0.03673469387755109,0.001,0.004000000000000001,0.5332490053198001,1920,1680,0,,BLACK,,,0,,BLACK,True,CORRECT,0.7179708999992727,717.9708999992727
5,20260325_140546,D,J,False,CALIBRATION,1,276,276,staircase,,,0.021344394233978246,0.03573469387755109,0.001,0.004000000000000001,0.5213443942339783,1877,1723,0,,BLACK,,,0,,BLACK,True,CORRECT,2.9784024999989924,2978.4024999989924
5,20260325_140546,D,J,False,CALIBRATION,1,277,277,staircase,,,0.041947938352552464,0.03473469387755109,0.001,0.004000000000000001,0.45805206164744755,1649,1951,0,,WHITE,,,0,,WHITE,True,CORRECT,1.6138786999999866,1613.8786999999866
5,20260325_140546,D,J,False,CALIBRATION,1,278,278,staircase,,,0.026600467524172285,0.03373469387755109,0.001,0.004000000000000001,0.4733995324758277,1704,1896,0,,WHITE,,,0,,WHITE,True,CORRECT,0.6738146999996388,673.8146999996388
5,20260325_140546,D,J,False,CALIBRATION,1,279,279,staircase,,,0.0308424521384167,0.037734693877551094,0.001,0.004000000000000001,0.4691575478615833,1689,1911,0,,WHITE,,,0,,BLACK,False,INCORRECT,0.7888657999992574,788.8657999992574
5,20260325_140546,D,J,False,CALIBRATION,1,280,280,staircase,,,0.031484366753275136,0.03673469387755109,0.001,0.004000000000000001,0.46851563324672485,1687,1913,0,,WHITE,,,0,,WHITE,True,CORRECT,0.8377848000000085,837.7848000000085
5,20260325_140546,D,J,False,CALIBRATION,1,281,281,staircase,,,0.033910003521479756,0.03573469387755109,0.001,0.004000000000000001,0.5339100035214798,1922,1678,0,,BLACK,,,0,,BLACK,True,CORRECT,0.7560250999995333,756.0250999995333
5,20260325_140546,D,J,False,CALIBRATION,1,282,282,staircase,,,0.03221905505162238,0.03473469387755109,0.001,0.004000000000000001,0.46778094494837763,1684,1916,0,,WHITE,,,0,,WHITE,True,CORRECT,0.7663026999998692,766.3026999998692
5,20260325_140546,D,J,False,CALIBRATION,1,283,283,staircase,,,0.04245238893645051,0.03373469387755109,0.001,0.004000000000000001,0.5424523889364505,1953,1647,0,,BLACK,,,0,,BLACK,True,CORRECT,0.7913834000009956,791.3834000009956
5,20260325_140546,D,J,False,CALIBRATION,1,284,284,staircase,,,0.03736879189205489,0.03273469387755109,0.001,0.004000000000000001,0.5373687918920549,1935,1665,0,,BLACK,,,0,,BLACK,True,CORRECT,0.759655500000008,759.655500000008
5,20260325_140546,D,J,False,CALIBRATION,1,285,285,staircase,,,0.031030032112013717,0.03673469387755109,0.001,0.004000000000000001,0.5310300321120137,1912,1688,0,,BLACK,,,0,,WHITE,False,INCORRECT,1.1315317999997205,1131.5317999997205
5,20260325_140546,D,J,False,CALIBRATION,1,286,286,staircase,,,0.040492110596643795,0.03573469387755109,0.001,0.004000000000000001,0.4595078894033562,1654,1946,0,,WHITE,,,0,,WHITE,True,CORRECT,0.7430131000000983,743.0131000000983
5,20260325_140546,D,J,False,CALIBRATION,1,287,287,staircase,,,0.04988806884951282,0.03473469387755109,0.001,0.004000000000000001,0.5498880688495128,1980,1620,0,,BLACK,,,0,,BLACK,True,CORRECT,0.6194173999992927,619.4173999992927
5,20260325_140546,D,J,False,CALIBRATION,1,288,288,staircase,,,0.03874791630950189,0.03373469387755109,0.001,0.004000000000000001,0.4612520836904981,1661,1939,0,,WHITE,,,0,,WHITE,True,CORRECT,0.8298405999994429,829.8405999994429
5,20260325_140546,D,J,False,CALIBRATION,1,289,289,staircase,,,0.06468677617705339,0.03273469387755109,0.001,0.004000000000000001,0.5646867761770534,2033,1567,0,,BLACK,,,0,,BLACK,True,CORRECT,0.679505699999936,679.505699999936
5,20260325_140546,D,J,False,CALIBRATION,1,290,290,staircase,,,0.04151944487758408,0.03173469387755109,0.001,0.004000000000000001,0.4584805551224159,1651,1949,0,,WHITE,,,0,,WHITE,True,CORRECT,1.2575338000006013,1257.5338000006013
5,20260325_140546,D,J,False,CALIBRATION,1,291,291,staircase,,,0.033033531909720776,0.030734693877551088,0.001,0.004000000000000001,0.5330335319097208,1919,1681,0,,BLACK,,,0,,BLACK,True,CORRECT,0.782789100001537,782.789100001537
5,20260325_140546,D,J,False,CALIBRATION,1,292,292,staircase,,,0.03353452239605682,0.029734693877551087,0.001,0.004000000000000001,0.4664654776039432,1679,1921,0,,WHITE,,,0,,WHITE,True,CORRECT,1.6886611000008998,1688.6611000008998
5,20260325_140546,D,J,False,CALIBRATION,1,293,293,staircase,,,0.04491522045434063,0.028734693877551086,0.001,0.004000000000000001,0.5449152204543406,1962,1638,0,,BLACK,,,0,,BLACK,True,CORRECT,0.7847520000013901,784.7520000013901
5,20260325_140546,D,J,False,CALIBRATION,1,294,294,staircase,,,0.016373198317780627,0.03273469387755109,0.001,0.004000000000000001,0.5163731983177806,1859,1741,0,,BLACK,,,0,,WHITE,False,INCORRECT,0.9093747999995685,909.3747999995685
5,20260325_140546,D,J,False,CALIBRATION,1,295,295,staircase,,,0.04490882370368191,0.03173469387755109,0.001,0.004000000000000001,0.5449088237036819,1962,1638,0,,BLACK,,,0,,BLACK,True,CORRECT,1.761061699999118,1761.061699999118
5,20260325_140546,D,J,False,CALIBRATION,1,296,296,staircase,,,0.015827874201833365,0.030734693877551088,0.001,0.004000000000000001,0.48417212579816665,1743,1857,0,,WHITE,,,0,,WHITE,True,CORRECT,0.8140545999995084,814.0545999995084
5,20260325_140546,D,J,False,CALIBRATION,1,297,297,staircase,,,0.020837898538165797,0.029734693877551087,0.001,0.004000000000000001,0.4791621014618342,1725,1875,0,,WHITE,,,0,,WHITE,True,CORRECT,0.9245774999999412,924.5774999999412
5,20260325_140546,D,J,False,CALIBRATION,1,298,298,staircase,,,0.0405121467784789,0.028734693877551086,0.001,0.004000000000000001,0.5405121467784789,1946,1654,0,,BLACK,,,0,,BLACK,True,CORRECT,0.8931376000000455,893.1376000000455
5,20260325_140546,D,J,False,CALIBRATION,1,299,299,staircase,,,0.03760232752363783,0.027734693877551085,0.001,0.004000000000000001,0.46239767247636215,1665,1935,0,,WHITE,,,0,,WHITE,True,CORRECT,1.298277699999744,1298.277699999744
5,20260325_140546,D,J,False,CALIBRATION,1,300,300,staircase,,,0.019630437649467532,0.026734693877551084,0.001,0.004000000000000001,0.5196304376494675,1871,1729,0,,BLACK,,,0,,BLACK,True,CORRECT,2.0347515999983443,2034.7515999983443
5,20260325_140546,D,J,False,AUTOMATION2,2,1,301,fixed_delta,0.03841730837928436,0.012782208620853738,,,,,0.5411632202086206,1948,1652,1,0.65,BLACK,BLACK,True,0,0.0026000016077887267,BLACK,True,CORRECT,3.5051289000002726,3505.1289000002726
5,20260325_140546,D,J,False,AUTOMATION2,2,2,302,fixed_delta,0.03841730837928436,0.012782208620853738,,,,,0.5004601786836249,1802,1798,1,0.65,BLACK,BLACK,True,0,0.0017000002117129043,WHITE,False,INCORRECT,1.8458204999988084,1845.8204999988084
5,20260325_140546,D,J,False,AUTOMATION2,2,3,303,fixed_delta,0.03841730837928436,0.012782208620853738,,,,,0.5524064191192618,1989,1611,1,0.65,BLACK,BLACK,True,0,0.0017000002117129043,BLACK,True,CORRECT,1.3096793999993679,1309.679399999368
5,20260325_140546,D,J,False,AUTOMATION2,2,4,304,fixed_delta,0.03841730837928436,0.012782208620853738,,,,,0.45073542679882095,1623,1977,1,0.65,WHITE,WHITE,True,0,0.001999998858082108,WHITE,True,CORRECT,0.8337685999995301,833.7685999995301
5,20260325_140546,D,J,False,AUTOMATION2,2,5,305,fixed_delta,0.03841730837928436,0.012782208620853738,,,,,0.54060166153411,1946,1654,1,0.65,BLACK,BLACK,True,0,0.0017000002117129043,BLACK,True,CORRECT,0.9909384000002319,990.9384000002319
5,20260325_140546,D,J,False,AUTOMATION2,2,6,306,fixed_delta,0.03841730837928436,0.012782208620853738,,,,,0.5171191461953258,1862,1738,1,0.65,BLACK,BLACK,True,0,0.0016000012692529708,BLACK,True,CORRECT,2.3500810000005004,2350.0810000005004
5,20260325_140546,D,J,False,AUTOMATION2,2,7,307,fixed_delta,0.03841730837928436,0.012782208620853738,,,,,0.5642079911685814,2031,1569,1,0.65,BLACK,WHITE,False,0,0.0015999994502635673,WHITE,False,INCORRECT,3.2108172999996896,3210.8172999996896
5,20260325_140546,D,J,False,AUTOMATION2,2,8,308,fixed_delta,0.03841730837928436,0.012782208620853738,,,,,0.4716359534877991,1698,1902,1,0.65,WHITE,WHITE,True,0,0.0018999999156221747,WHITE,True,CORRECT,0.841935000000376,841.935000000376
5,20260325_140546,D,J,False,AUTOMATION2,2,9,309,fixed_delta,0.03841730837928436,0.012782208620853738,,,,,0.46645289439618465,1679,1921,1,0.65,WHITE,WHITE,True,0,0.0013000008038943633,WHITE,True,CORRECT,0.7668546000004426,766.8546000004426
5,20260325_140546,D,J,False,AUTOMATION2,2,10,310,fixed_delta,0.03841730837928436,0.012782208620853738,,,,,0.517436539304355,1863,1737,1,0.65,BLACK,BLACK,True,0,0.0015000005078036338,BLACK,True,CORRECT,0.8484081999995396,848.4081999995396
5,20260325_140546,D,J,False,AUTOMATION2,2,11,311,fixed_delta,0.03841730837928436,0.012782208620853738,,,,,0.46235633573777996,1664,1936,1,0.65,WHITE,WHITE,True,0,0.0017000002117129043,WHITE,True,CORRECT,1.4834339000008185,1483.4339000008185
5,20260325_140546,D,J,False,AUTOMATION2,2,12,312,fixed_delta,0.03841730837928436,0.012782208620853738,,,,,0.5505242564928187,1982,1618,1,0.65,BLACK,WHITE,False,0,0.0017999991541728377,BLACK,True,CORRECT,1.3934696999986045,1393.4696999986045
5,20260325_140546,D,J,False,AUTOMATION2,2,13,313,fixed_delta,0.03841730837928436,0.012782208620853738,,,,,0.5367817203330091,1932,1668,1,0.65,BLACK,WHITE,False,0,0.0013000008038943633,WHITE,False,INCORRECT,1.508339199999682,1508.339199999682
5,20260325_140546,D,J,False,AUTOMATION2,2,14,314,fixed_delta,0.03841730837928436,0.012782208620853738,,,,,0.4610163695668231,1660,1940,1,0.65,WHITE,WHITE,True,0,0.0014000015653437003,WHITE,True,CORRECT,0.7423525000012887,742.3525000012887
5,20260325_140546,D,J,False,AUTOMATION2,2,15,315,fixed_delta,0.03841730837928436,0.012782208620853738,,,,,0.45334338988730843,1632,1968,1,0.65,WHITE,BLACK,False,0,0.0017000002117129043,BLACK,False,INCORRECT,2.7918012000009185,2791.8012000009185
5,20260325_140546,D,J,False,AUTOMATION2,2,16,316,fixed_delta,0.03841730837928436,0.012782208620853738,,,,,0.5295121789683115,1906,1694,1,0.65,BLACK,BLACK,True,0,0.0014999986888142303,BLACK,True,CORRECT,1.1219798999991326,1121.9798999991326
5,20260325_140546,D,J,False,AUTOMATION2,2,17,317,fixed_delta,0.03841730837928436,0.012782208620853738,,,,,0.5486807685175572,1975,1625,1,0.65,BLACK,BLACK,True,0,0.0015000005078036338,WHITE,False,INCORRECT,1.297600899999452,1297.600899999452
5,20260325_140546,D,J,False,AUTOMATION2,2,18,318,fixed_delta,0.03841730837928436,0.012782208620853738,,,,,0.527164293768143,1898,1702,1,0.65,BLACK,BLACK,True,0,0.0015000005078036338,WHITE,False,INCORRECT,0.6980108000007021,698.0108000007021
5,20260325_140546,D,J,False,AUTOMATION2,2,19,319,fixed_delta,0.03841730837928436,0.012782208620853738,,,,,0.5522201950499924,1988,1612,1,0.65,BLACK,BLACK,True,0,0.0015000005078036338,BLACK,True,CORRECT,1.110932600000524,1110.932600000524
5,20260325_140546,D,J,False,AUTOMATION2,2,20,320,fixed_delta,0.03841730837928436,0.012782208620853738,,,,,0.5308871457374945,1911,1689,1,0.65,BLACK,BLACK,True,0,0.0016000012692529708,BLACK,True,CORRECT,1.785507200000211,1785.507200000211
5,20260325_140546,D,J,False,AUTOMATION2,2,21,321,fixed_delta,0.03841730837928436,0.012782208620853738,,,,,0.5343538446996731,1924,1676,1,0.65,BLACK,BLACK,True,0,0.0014999986888142303,BLACK,True,CORRECT,1.3412554999995336,1341.2554999995336
5,20260325_140546,D,J,False,AUTOMATION2,2,22,322,fixed_delta,0.03841730837928436,0.012782208620853738,,,,,0.5360816413701425,1930,1670,1,0.65,BLACK,WHITE,False,0,0.0013000008038943633,WHITE,False,INCORRECT,1.2015671000008297,1201.5671000008297
5,20260325_140546,D,J,False,AUTOMATION2,2,23,323,fixed_delta,0.03841730837928436,0.012782208620853738,,,,,0.515263673495976,1855,1745,1,0.65,BLACK,BLACK,True,0,0.0013999997463542968,WHITE,False,INCORRECT,1.1791881000008289,1179.1881000008289
5,20260325_140546,D,J,False,AUTOMATION2,2,24,324,fixed_delta,0.03841730837928436,0.012782208620853738,,,,,0.5497797625721458,1979,1621,1,0.65,BLACK,WHITE,False,0,0.0013999997463542968,BLACK,True,CORRECT,1.493895200001134,1493.895200001134
5,20260325_140546,D,J,False,AUTOMATION2,2,25,325,fixed_delta,0.03841730837928436,0.012782208620853738,,,,,0.5635586593250616,2029,1571,1,0.65,BLACK,BLACK,True,0,0.0017000002117129043,BLACK,True,CORRECT,1.9276793000008183,1927.6793000008183
5,20260325_140546,D,J,False,AUTOMATION2,2,26,326,fixed_delta,0.03841730837928436,0.012782208620853738,,,,,0.45445472546272414,1636,1964,1,0.65,WHITE,BLACK,False,0,0.0015000005078036338,WHITE,True,CORRECT,0.6870118000006187,687.0118000006187
5,20260325_140546,D,J,False,AUTOMATION2,2,27,327,fixed_delta,0.03841730837928436,0.012782208620853738,,,,,0.47968328697562435,1727,1873,1,0.65,WHITE,BLACK,False,0,0.0018999999156221747,BLACK,False,INCORRECT,0.9206367999995564,920.6367999995564
5,20260325_140546,D,J,False,AUTOMATION2,2,28,328,fixed_delta,0.03841730837928436,0.012782208620853738,,,,,0.46861460363494867,1687,1913,1,0.65,WHITE,WHITE,True,0,0.0020000006770715117,WHITE,True,CORRECT,0.9463168000002042,946.3168000002042
5,20260325_140546,D,J,False,AUTOMATION2,2,29,329,fixed_delta,0.03841730837928436,0.012782208620853738,,,,,0.4599521875347147,1656,1944,1,0.65,WHITE,WHITE,True,0,0.0015000005078036338,WHITE,True,CORRECT,0.8898255000003701,889.8255000003701
5,20260325_140546,D,J,False,AUTOMATION2,2,30,330,fixed_delta,0.03841730837928436,0.012782208620853738,,,,,0.5245948105958733,1889,1711,1,0.65,BLACK,BLACK,True,0,0.0017000002117129043,BLACK,True,CORRECT,0.7359101000001829,735.9101000001829
5,20260325_140546,D,J,False,AUTOMATION2,2,31,331,fixed_delta,0.03841730837928436,0.012782208620853738,,,,,0.45925864444826175,1653,1947,1,0.65,WHITE,WHITE,True,0,0.0015000005078036338,WHITE,True,CORRECT,0.6637257000002137,663.7257000002137
5,20260325_140546,D,J,False,AUTOMATION2,2,32,332,fixed_delta,0.03841730837928436,0.012782208620853738,,,,,0.45333781177186505,1632,1968,1,0.65,WHITE,BLACK,False,0,0.0013000008038943633,BLACK,False,INCORRECT,1.579263900001024,1579.263900001024
5,20260325_140546,D,J,False,AUTOMATION2,2,33,333,fixed_delta,0.03841730837928436,0.012782208620853738,,,,,0.5569988440067364,2005,1595,1,0.65,BLACK,WHITE,False,0,0.0013000008038943633,BLACK,True,CORRECT,1.146602900000289,1146.602900000289
5,20260325_140546,D,J,False,AUTOMATION2,2,34,334,fixed_delta,0.03841730837928436,0.012782208620853738,,,,,0.5349763427808945,1926,1674,1,0.65,BLACK,BLACK,True,0,0.0013999997463542968,BLACK,True,CORRECT,1.2297337999989395,1229.7337999989395
5,20260325_140546,D,J,False,AUTOMATION2,2,35,335,fixed_delta,0.03841730837928436,0.012782208620853738,,,,,0.4516392402942831,1626,1974,1,0.65,WHITE,WHITE,True,0,0.0013999997463542968,WHITE,True,CORRECT,0.7078261999995448,707.8261999995448
5,20260325_140546,D,J,False,AUTOMATION2,2,36,336,fixed_delta,0.03841730837928436,0.012782208620853738,,,,,0.5277848352637512,1900,1700,1,0.65,BLACK,BLACK,True,0,0.0015000005078036338,BLACK,True,CORRECT,0.7741110999995726,774.1110999995726
5,20260325_140546,D,J,False,AUTOMATION2,2,37,337,fixed_delta,0.03841730837928436,0.012782208620853738,,,,,0.5262021429801977,1894,1706,1,0.65,BLACK,WHITE,False,0,0.002200000380980782,BLACK,True,CORRECT,0.718166900000142,718.166900000142
5,20260325_140546,D,J,False,AUTOMATION2,2,38,338,fixed_delta,0.03841730837928436,0.012782208620853738,,,,,0.5402249194056473,1945,1655,1,0.65,BLACK,WHITE,False,0,0.0015000005078036338,WHITE,False,INCORRECT,1.079671800000142,1079.671800000142
5,20260325_140546,D,J,False,AUTOMATION2,2,39,339,fixed_delta,0.03841730837928436,0.012782208620853738,,,,,0.4689456499899751,1688,1912,1,0.65,WHITE,WHITE,True,0,0.0015999994502635673,WHITE,True,CORRECT,0.9074175999994623,907.4175999994623
5,20260325_140546,D,J,False,AUTOMATION2,2,40,340,fixed_delta,0.03841730837928436,0.012782208620853738,,,,,0.46195891843540954,1663,1937,1,0.65,WHITE,BLACK,False,0,0.0015000005078036338,WHITE,True,CORRECT,0.7408924999999726,740.8924999999726
5,20260325_140546,D,J,False,AUTOMATION2,2,41,341,fixed_delta,0.03841730837928436,0.012782208620853738,,,,,0.4576057689565486,1647,1953,1,0.65,WHITE,WHITE,True,0,0.0016000012692529708,WHITE,True,CORRECT,0.6453739000007772,645.3739000007772
5,20260325_140546,D,J,False,AUTOMATION2,2,42,342,fixed_delta,0.03841730837928436,0.012782208620853738,,,,,0.5205176120713277,1874,1726,1,0.65,BLACK,BLACK,True,0,0.0015000005078036338,BLACK,True,CORRECT,1.023613600000317,1023.6136000003171
5,20260325_140546,D,J,False,AUTOMATION2,2,43,343,fixed_delta,0.03841730837928436,0.012782208620853738,,,,,0.5154092152044883,1855,1745,1,0.65,BLACK,BLACK,True,0,0.0016999983927235007,WHITE,False,INCORRECT,0.771203999998761,771.203999998761
5,20260325_140546,D,J,False,AUTOMATION2,2,44,344,fixed_delta,0.03841730837928436,0.012782208620853738,,,,,0.4855912435606141,1748,1852,1,0.65,WHITE,WHITE,True,0,0.0014999986888142303,WHITE,True,CORRECT,2.136189299999387,2136.189299999387
5,20260325_140546,D,J,False,AUTOMATION2,2,45,345,fixed_delta,0.03841730837928436,0.012782208620853738,,,,,0.5477318764205863,1972,1628,1,0.65,BLACK,BLACK,True,0,0.0015000005078036338,BLACK,True,CORRECT,0.8270184000011795,827.0184000011795
5,20260325_140546,D,J,False,AUTOMATION2,2,46,346,fixed_delta,0.03841730837928436,0.012782208620853738,,,,,0.524553784615816,1888,1712,1,0.65,BLACK,BLACK,True,0,0.0015999994502635673,BLACK,True,CORRECT,1.9159079999990354,1915.9079999990354
5,20260325_140546,D,J,False,AUTOMATION2,2,47,347,fixed_delta,0.03841730837928436,0.012782208620853738,,,,,0.460089231696975,1656,1944,1,0.65,WHITE,BLACK,False,0,0.0017000002117129043,WHITE,True,CORRECT,0.7740735999996105,774.0735999996105
5,20260325_140546,D,J,False,AUTOMATION2,2,48,348,fixed_delta,0.03841730837928436,0.012782208620853738,,,,,0.5623610632401093,2024,1576,1,0.65,BLACK,WHITE,False,0,0.0015000005078036338,BLACK,True,CORRECT,0.9262926999999763,926.2926999999763
5,20260325_140546,D,J,False,AUTOMATION2,2,49,349,fixed_delta,0.03841730837928436,0.012782208620853738,,,,,0.554047420554724,1995,1605,1,0.65,BLACK,WHITE,False,0,0.0013999997463542968,WHITE,False,INCORRECT,2.008457100000669,2008.457100000669
5,20260325_140546,D,J,False,AUTOMATION2,2,50,350,fixed_delta,0.03841730837928436,0.012782208620853738,,,,,0.45552856570353295,1640,1960,1,0.65,WHITE,WHITE,True,0,0.002200000380980782,WHITE,True,CORRECT,0.7972831000006408,797.2831000006408
5,20260325_140546,D,J,False,AUTOMATION2,2,51,351,fixed_delta,0.03841730837928436,0.012782208620853738,,,,,0.4686935909491364,1687,1913,1,0.65,WHITE,BLACK,False,0,0.0018000009731622413,WHITE,True,CORRECT,0.8826870000011695,882.6870000011695
5,20260325_140546,D,J,False,AUTOMATION2,2,52,352,fixed_delta,0.03841730837928436,0.012782208620853738,,,,,0.5477437013285025,1972,1628,1,0.65,BLACK,WHITE,False,0,0.0017999991541728377,BLACK,True,CORRECT,0.6915920000010374,691.5920000010374
5,20260325_140546,D,J,False,AUTOMATION2,2,53,353,fixed_delta,0.03841730837928436,0.012782208620853738,,,,,0.5532850961221455,1992,1608,1,0.65,BLACK,WHITE,False,0,0.0013000026228837669,BLACK,True,CORRECT,0.8347786000013002,834.7786000013002
5,20260325_140546,D,J,False,AUTOMATION2,2,54,354,fixed_delta,0.03841730837928436,0.012782208620853738,,,,,0.4503247489952675,1621,1979,1,0.65,WHITE,BLACK,False,0,0.0015000005078036338,WHITE,True,CORRECT,0.682155700000294,682.155700000294
5,20260325_140546,D,J,False,AUTOMATION2,2,55,355,fixed_delta,0.03841730837928436,0.012782208620853738,,,,,0.543839867657033,1958,1642,1,0.65,BLACK,WHITE,False,0,0.001400003384333104,BLACK,True,CORRECT,0.6935490000032587,693.5490000032587
5,20260325_140546,D,J,False,AUTOMATION2,2,56,356,fixed_delta,0.03841730837928436,0.012782208620853738,,,,,0.5347082247479624,1925,1675,1,0.65,BLACK,BLACK,True,0,0.0015999976312741637,WHITE,False,INCORRECT,1.590765699998883,1590.765699998883
5,20260325_140546,D,J,False,AUTOMATION2,2,57,357,fixed_delta,0.03841730837928436,0.012782208620853738,,,,,0.5441267461664814,1959,1641,1,0.65,BLACK,WHITE,False,0,0.0016000012692529708,WHITE,False,INCORRECT,2.7263964000012493,2726.3964000012493
5,20260325_140546,D,J,False,AUTOMATION2,2,58,358,fixed_delta,0.03841730837928436,0.012782208620853738,,,,,0.4491373017085163,1617,1983,1,0.65,WHITE,WHITE,True,0,0.0016999983927235007,WHITE,True,CORRECT,0.6380290999986755,638.0290999986755
5,20260325_140546,D,J,False,AUTOMATION2,2,59,359,fixed_delta,0.03841730837928436,0.012782208620853738,,,,,0.5180674869453187,1865,1735,1,0.65,BLACK,BLACK,True,0,0.0016999983927235007,WHITE,False,INCORRECT,0.7747875999993994,774.7875999993994
5,20260325_140546,D,J,False,AUTOMATION2,2,60,360,fixed_delta,0.03841730837928436,0.012782208620853738,,,,,0.5502438085326786,1981,1619,1,0.65,BLACK,BLACK,True,0,0.0014999968698248267,BLACK,True,CORRECT,0.7694348999975773,769.4348999975773
5,20260325_140546,D,J,False,AUTOMATION2,2,61,361,fixed_delta,0.03841730837928436,0.012782208620853738,,,,,0.46421368812117597,1671,1929,1,0.65,WHITE,WHITE,True,0,0.0012999989849049598,WHITE,True,CORRECT,0.6126034000008076,612.6034000008076
5,20260325_140546,D,J,False,AUTOMATION2,2,62,362,fixed_delta,0.03841730837928436,0.012782208620853738,,,,,0.54852806250595,1975,1625,1,0.65,BLACK,BLACK,True,0,0.0013999997463542968,BLACK,True,CORRECT,1.4138824000001478,1413.8824000001478
5,20260325_140546,D,J,False,AUTOMATION2,2,63,363,fixed_delta,0.03841730837928436,0.012782208620853738,,,,,0.4519654384060876,1627,1973,1,0.65,WHITE,WHITE,True,0,0.0018999999156221747,WHITE,True,CORRECT,0.7269833999998809,726.9833999998809
5,20260325_140546,D,J,False,AUTOMATION2,2,64,364,fixed_delta,0.03841730837928436,0.012782208620853738,,,,,0.5391157711246916,1941,1659,1,0.65,BLACK,WHITE,False,0,0.0018999999156221747,WHITE,False,INCORRECT,0.7002862000008463,700.2862000008463
5,20260325_140546,D,J,False,AUTOMATION2,2,65,365,fixed_delta,0.03841730837928436,0.012782208620853738,,,,,0.4551281879648841,1638,1962,1,0.65,WHITE,WHITE,True,0,0.0015000005078036338,WHITE,True,CORRECT,0.6009455999992497,600.9455999992497
5,20260325_140546,D,J,False,AUTOMATION2,2,66,366,fixed_delta,0.03841730837928436,0.012782208620853738,,,,,0.46153152847349255,1662,1938,1,0.65,WHITE,WHITE,True,0,0.0013999997463542968,WHITE,True,CORRECT,0.6237320999971416,623.7320999971416
5,20260325_140546,D,J,False,AUTOMATION2,2,67,367,fixed_delta,0.03841730837928436,0.012782208620853738,,,,,0.44730534880309847,1610,1990,1,0.65,WHITE,BLACK,False,0,0.0016999983927235007,WHITE,True,CORRECT,0.5519702999990841,551.9702999990841
5,20260325_140546,D,J,False,AUTOMATION2,2,68,368,fixed_delta,0.03841730837928436,0.012782208620853738,,,,,0.5132561557852534,1848,1752,1,0.65,BLACK,BLACK,True,0,0.0015999976312741637,WHITE,False,INCORRECT,0.6699966999985918,669.9966999985918
5,20260325_140546,D,J,False,AUTOMATION2,2,69,369,fixed_delta,0.03841730837928436,0.012782208620853738,,,,,0.46311696583749107,1667,1933,1,0.65,WHITE,WHITE,True,0,0.0016000012692529708,WHITE,True,CORRECT,0.6802700000007462,680.2700000007462
5,20260325_140546,D,J,False,AUTOMATION2,2,70,370,fixed_delta,0.03841730837928436,0.012782208620853738,,,,,0.5400040700656503,1944,1656,1,0.65,BLACK,WHITE,False,0,0.0017999991541728377,BLACK,True,CORRECT,0.6516264999991108,651.6264999991108
5,20260325_140546,D,J,False,AUTOMATION2,2,71,371,fixed_delta,0.03841730837928436,0.012782208620853738,,,,,0.4457903510613208,1605,1995,1,0.65,WHITE,WHITE,True,0,0.0013999997463542968,WHITE,True,CORRECT,0.8018200999977125,801.8200999977125
5,20260325_140546,D,J,False,AUTOMATION2,2,72,372,fixed_delta,0.03841730837928436,0.012782208620853738,,,,,0.4504709442736502,1622,1978,1,0.65,WHITE,WHITE,True,0,0.0016000012692529708,WHITE,True,CORRECT,1.0062146000018402,1006.2146000018402
5,20260325_140546,D,J,False,AUTOMATION2,2,73,373,fixed_delta,0.03841730837928436,0.012782208620853738,,,,,0.4402058413899142,1585,2015,1,0.65,WHITE,WHITE,True,0,0.0015000005078036338,WHITE,True,CORRECT,0.7436870999990788,743.6870999990788
5,20260325_140546,D,J,False,AUTOMATION2,2,74,374,fixed_delta,0.03841730837928436,0.012782208620853738,,,,,0.4570584136746044,1645,1955,1,0.65,WHITE,BLACK,False,0,0.0015999976312741637,WHITE,True,CORRECT,0.7449080999977014,744.9080999977014
5,20260325_140546,D,J,False,AUTOMATION2,2,75,375,fixed_delta,0.03841730837928436,0.012782208620853738,,,,,0.45837951122460907,1650,1950,1,0.65,WHITE,WHITE,True,0,0.0015000005078036338,WHITE,True,CORRECT,0.6865179000014905,686.5179000014905
5,20260325_140546,D,J,False,AUTOMATION2,2,76,376,fixed_delta,0.03841730837928436,0.012782208620853738,,,,,0.5294515523630973,1906,1694,1,0.65,BLACK,WHITE,False,0,0.0017999991541728377,BLACK,True,CORRECT,0.9128176999984134,912.8176999984134
5,20260325_140546,D,J,False,AUTOMATION2,2,77,377,fixed_delta,0.03841730837928436,0.012782208620853738,,,,,0.5291322627802997,1905,1695,1,0.65,BLACK,WHITE,False,0,0.0013999997463542968,BLACK,True,CORRECT,0.6690546999998332,669.0546999998332
5,20260325_140546,D,J,False,AUTOMATION2,2,78,378,fixed_delta,0.03841730837928436,0.012782208620853738,,,,,0.45869091504802995,1651,1949,1,0.65,WHITE,WHITE,True,0,0.0015000005078036338,WHITE,True,CORRECT,0.8395325999990746,839.5325999990746
5,20260325_140546,D,J,False,AUTOMATION2,2,79,379,fixed_delta,0.03841730837928436,0.012782208620853738,,,,,0.4423918163774154,1593,2007,1,0.65,WHITE,WHITE,True,0,0.0016000012692529708,WHITE,True,CORRECT,1.3137658999985433,1313.7658999985433
5,20260325_140546,D,J,False,AUTOMATION2,2,80,380,fixed_delta,0.03841730837928436,0.012782208620853738,,,,,0.4606037192335634,1658,1942,1,0.65,WHITE,BLACK,False,0,0.0015000005078036338,BLACK,False,INCORRECT,0.6765011999996204,676.5011999996204
5,20260325_140546,D,J,False,AUTOMATION2,2,81,381,fixed_delta,0.03841730837928436,0.012782208620853738,,,,,0.547722756561512,1972,1628,1,0.65,BLACK,WHITE,False,0,0.0015999976312741637,BLACK,True,CORRECT,0.79944279999836,799.44279999836
5,20260325_140546,D,J,False,AUTOMATION2,2,82,382,fixed_delta,0.03841730837928436,0.012782208620853738,,,,,0.5385329734016476,1939,1661,1,0.65,BLACK,WHITE,False,0,0.0014999968698248267,BLACK,True,CORRECT,1.2216882999964582,1221.6882999964582
5,20260325_140546,D,J,False,AUTOMATION2,2,83,383,fixed_delta,0.03841730837928436,0.012782208620853738,,,,,0.5287454985430283,1903,1697,1,0.65,BLACK,BLACK,True,0,0.001400003384333104,BLACK,True,CORRECT,0.6393912000021373,639.3912000021373
5,20260325_140546,D,J,False,AUTOMATION2,2,84,384,fixed_delta,0.03841730837928436,0.012782208620853738,,,,,0.45810735393106267,1649,1951,1,0.65,WHITE,BLACK,False,0,0.0015000005078036338,WHITE,True,CORRECT,1.1516307000019879,1151.6307000019879
5,20260325_140546,D,J,False,AUTOMATION2,2,85,385,fixed_delta,0.03841730837928436,0.012782208620853738,,,,,0.45457769713868973,1636,1964,1,0.65,WHITE,WHITE,True,0,0.0015000005078036338,WHITE,True,CORRECT,0.8623110000007728,862.3110000007728
5,20260325_140546,D,J,False,AUTOMATION2,2,86,386,fixed_delta,0.03841730837928436,0.012782208620853738,,,,,0.5377164480255598,1936,1664,1,0.65,BLACK,WHITE,False,0,0.0015999976312741637,BLACK,True,CORRECT,0.9890094000002136,989.0094000002136
5,20260325_140546,D,J,False,AUTOMATION2,2,87,387,fixed_delta,0.03841730837928436,0.012782208620853738,,,,,0.4535839312340108,1633,1967,1,0.65,WHITE,BLACK,False,0,0.0016000012692529708,WHITE,True,CORRECT,0.7496017000012216,749.6017000012216
5,20260325_140546,D,J,False,AUTOMATION2,2,88,388,fixed_delta,0.03841730837928436,0.012782208620853738,,,,,0.5451984644020774,1963,1637,1,0.65,BLACK,WHITE,False,0,0.0013999997463542968,BLACK,True,CORRECT,0.9778463000002375,977.8463000002375
5,20260325_140546,D,J,False,AUTOMATION2,2,89,389,fixed_delta,0.03841730837928436,0.012782208620853738,,,,,0.4719430757984449,1699,1901,1,0.65,WHITE,BLACK,False,0,0.0018999999156221747,WHITE,True,CORRECT,0.7344190000003437,734.4190000003437
5,20260325_140546,D,J,False,AUTOMATION2,2,90,390,fixed_delta,0.03841730837928436,0.012782208620853738,,,,,0.44346519199748113,1596,2004,1,0.65,WHITE,BLACK,False,0,0.0015999976312741637,WHITE,True,CORRECT,0.7793771999968158,779.3771999968158
5,20260325_140546,D,J,False,AUTOMATION2,2,91,391,fixed_delta,0.03841730837928436,0.012782208620853738,,,,,0.5408893174408073,1947,1653,1,0.65,BLACK,BLACK,True,0,0.0017000020307023078,BLACK,True,CORRECT,0.9816253999997571,981.6253999997571
5,20260325_140546,D,J,False,AUTOMATION2,2,92,392,fixed_delta,0.03841730837928436,0.012782208620853738,,,,,0.45017444138070173,1621,1979,1,0.65,WHITE,WHITE,True,0,0.0013999997463542968,WHITE,True,CORRECT,0.7139534999987518,713.9534999987518
5,20260325_140546,D,J,False,AUTOMATION2,2,93,393,fixed_delta,0.03841730837928436,0.012782208620853738,,,,,0.4652075129267792,1675,1925,1,0.65,WHITE,WHITE,True,0,0.0013999997463542968,WHITE,True,CORRECT,1.0815250999985437,1081.5250999985437
5,20260325_140546,D,J,False,AUTOMATION2,2,94,394,fixed_delta,0.03841730837928436,0.012782208620853738,,,,,0.4567219150664899,1644,1956,1,0.65,WHITE,BLACK,False,0,0.0015999976312741637,WHITE,True,CORRECT,0.7376579999981914,737.6579999981914
5,20260325_140546,D,J,False,AUTOMATION2,2,95,395,fixed_delta,0.03841730837928436,0.012782208620853738,,,,,0.45195489803948685,1627,1973,1,0.65,WHITE,WHITE,True,0,0.0013000026228837669,WHITE,True,CORRECT,1.406115800000407,1406.115800000407
5,20260325_140546,D,J,False,AUTOMATION2,2,96,396,fixed_delta,0.03841730837928436,0.012782208620853738,,,,,0.5360176204923466,1930,1670,1,0.65,BLACK,BLACK,True,0,0.0015000005078036338,BLACK,True,CORRECT,0.7883564000003389,788.3564000003389
5,20260325_140546,D,J,False,AUTOMATION2,2,97,397,fixed_delta,0.03841730837928436,0.012782208620853738,,,,,0.5305697129308076,1910,1690,1,0.65,BLACK,BLACK,True,0,0.0018999999156221747,BLACK,True,CORRECT,0.6906396000013046,690.6396000013046
5,20260325_140546,D,J,False,AUTOMATION2,2,98,398,fixed_delta,0.03841730837928436,0.012782208620853738,,,,,0.4687701799723074,1688,1912,1,0.65,WHITE,WHITE,True,0,0.0013999997463542968,WHITE,True,CORRECT,0.656823199999053,656.823199999053
5,20260325_140546,D,J,False,AUTOMATION2,2,99,399,fixed_delta,0.03841730837928436,0.012782208620853738,,,,,0.5401203300360886,1944,1656,1,0.65,BLACK,BLACK,True,0,0.0016000012692529708,BLACK,True,CORRECT,0.9595953000025474,959.5953000025474
5,20260325_140546,D,J,False,AUTOMATION2,2,100,400,fixed_delta,0.03841730837928436,0.012782208620853738,,,,,0.4478938951256062,1612,1988,1,0.65,WHITE,BLACK,False,0,0.0021999985619913787,WHITE,True,CORRECT,0.6647641999988991,664.7641999988991
5,20260325_140546,D,J,False,AUTOMATION2,2,101,401,fixed_delta,0.03841730837928436,0.012782208620853738,,,,,0.5214064776174165,1877,1723,1,0.65,BLACK,BLACK,True,0,0.0018999999156221747,BLACK,True,CORRECT,0.8262665999973251,826.2665999973251
5,20260325_140546,D,J,False,AUTOMATION2,2,102,402,fixed_delta,0.03841730837928436,0.012782208620853738,,,,,0.5615848704882613,2022,1578,1,0.65,BLACK,BLACK,True,0,0.0020000006770715117,BLACK,True,CORRECT,0.7983983000012813,798.3983000012813
5,20260325_140546,D,J,False,AUTOMATION2,2,103,403,fixed_delta,0.03841730837928436,0.012782208620853738,,,,,0.5336001744897687,1921,1679,1,0.65,BLACK,WHITE,False,0,0.0012999989849049598,WHITE,False,INCORRECT,0.910273600002256,910.273600002256
5,20260325_140546,D,J,False,AUTOMATION2,2,104,404,fixed_delta,0.03841730837928436,0.012782208620853738,,,,,0.45814905028832814,1649,1951,1,0.65,WHITE,BLACK,False,0,0.0016000012692529708,WHITE,True,CORRECT,0.6588800999998057,658.8800999998057
5,20260325_140546,D,J,False,AUTOMATION2,2,105,405,fixed_delta,0.03841730837928436,0.012782208620853738,,,,,0.462687793023372,1666,1934,1,0.65,WHITE,BLACK,False,0,0.0018999999156221747,WHITE,True,CORRECT,1.382283799997822,1382.283799997822
5,20260325_140546,D,J,False,AUTOMATION2,2,106,406,fixed_delta,0.03841730837928436,0.012782208620853738,,,,,0.525853837000096,1893,1707,1,0.65,BLACK,BLACK,True,0,0.0013999997463542968,BLACK,True,CORRECT,1.0500265999980911,1050.0265999980911
5,20260325_140546,D,J,False,AUTOMATION2,2,107,407,fixed_delta,0.03841730837928436,0.012782208620853738,,,,,0.532850260273518,1918,1682,1,0.65,BLACK,BLACK,True,0,0.0016000012692529708,BLACK,True,CORRECT,0.941828600000008,941.828600000008
5,20260325_140546,D,J,False,AUTOMATION2,2,108,408,fixed_delta,0.03841730837928436,0.012782208620853738,,,,,0.5259586810850616,1893,1707,1,0.65,BLACK,BLACK,True,0,0.0015999976312741637,BLACK,True,CORRECT,1.9634851999981038,1963.4851999981038
5,20260325_140546,D,J,False,AUTOMATION2,2,109,409,fixed_delta,0.03841730837928436,0.012782208620853738,,,,,0.5276089449547201,1899,1701,1,0.65,BLACK,WHITE,False,0,0.0021999985619913787,WHITE,False,INCORRECT,0.7843590999982553,784.3590999982553
5,20260325_140546,D,J,False,AUTOMATION2,2,110,410,fixed_delta,0.03841730837928436,0.012782208620853738,,,,,0.5265958705376658,1896,1704,1,0.65,BLACK,BLACK,True,0,0.0015000005078036338,WHITE,False,INCORRECT,0.8764585999997507,876.4585999997507
5,20260325_140546,D,J,False,AUTOMATION2,2,111,411,fixed_delta,0.03841730837928436,0.012782208620853738,,,,,0.5587710466677889,2012,1588,1,0.65,BLACK,BLACK,True,0,0.0018999999156221747,BLACK,True,CORRECT,1.4558555000003253,1455.8555000003253
5,20260325_140546,D,J,False,AUTOMATION2,2,112,412,fixed_delta,0.03841730837928436,0.012782208620853738,,,,,0.5469879022579072,1969,1631,1,0.65,BLACK,WHITE,False,0,0.0013999997463542968,WHITE,False,INCORRECT,0.9967414999991888,996.7414999991888
5,20260325_140546,D,J,False,AUTOMATION2,2,113,413,fixed_delta,0.03841730837928436,0.012782208620853738,,,,,0.46191078206513414,1663,1937,1,0.65,WHITE,WHITE,True,0,0.0017000020307023078,WHITE,True,CORRECT,0.7502076999990095,750.2076999990095
5,20260325_140546,D,J,False,AUTOMATION2,2,114,414,fixed_delta,0.03841730837928436,0.012782208620853738,,,,,0.5240954756292712,1887,1713,1,0.65,BLACK,WHITE,False,0,0.0013999997463542968,WHITE,False,INCORRECT,1.789734000001772,1789.734000001772
5,20260325_140546,D,J,False,AUTOMATION2,2,115,415,fixed_delta,0.03841730837928436,0.012782208620853738,,,,,0.4624975138125528,1665,1935,1,0.65,WHITE,WHITE,True,0,0.0017999991541728377,WHITE,True,CORRECT,1.0895834999973886,1089.5834999973886
5,20260325_140546,D,J,False,AUTOMATION2,2,116,416,fixed_delta,0.03841730837928436,0.012782208620853738,,,,,0.4669128298385427,1681,1919,1,0.65,WHITE,WHITE,True,0,0.0016999983927235007,WHITE,True,CORRECT,0.711039099998743,711.039099998743
5,20260325_140546,D,J,False,AUTOMATION2,2,117,417,fixed_delta,0.03841730837928436,0.012782208620853738,,,,,0.5291077385128214,1905,1695,1,0.65,BLACK,BLACK,True,0,0.0017999991541728377,BLACK,True,CORRECT,1.2527655999983835,1252.7655999983835
5,20260325_140546,D,J,False,AUTOMATION2,2,118,418,fixed_delta,0.03841730837928436,0.012782208620853738,,,,,0.5395009119938781,1942,1658,1,0.65,BLACK,BLACK,True,0,0.0012999989849049598,BLACK,True,CORRECT,1.0837953999980527,1083.7953999980527
5,20260325_140546,D,J,False,AUTOMATION2,2,119,419,fixed_delta,0.03841730837928436,0.012782208620853738,,,,,0.4754011974934399,1711,1889,1,0.65,WHITE,BLACK,False,0,0.0015000005078036338,WHITE,True,CORRECT,1.1512046000025293,1151.2046000025293
5,20260325_140546,D,J,False,AUTOMATION2,2,120,420,fixed_delta,0.03841730837928436,0.012782208620853738,,,,,0.4447225785381967,1601,1999,1,0.65,WHITE,WHITE,True,0,0.0016000012692529708,WHITE,True,CORRECT,0.8118562999989081,811.8562999989081
5,20260325_140546,D,J,False,AUTOMATION2,2,121,421,fixed_delta,0.03841730837928436,0.012782208620853738,,,,,0.5484952781880842,1975,1625,1,0.65,BLACK,BLACK,True,0,0.0018999999156221747,BLACK,True,CORRECT,0.9167144999992161,916.7144999992161
5,20260325_140546,D,J,False,AUTOMATION2,2,122,422,fixed_delta,0.03841730837928436,0.012782208620853738,,,,,0.4596865369687789,1655,1945,1,0.65,WHITE,BLACK,False,0,0.0020000006770715117,WHITE,True,CORRECT,1.0115230000010342,1011.5230000010342
5,20260325_140546,D,J,False,AUTOMATION2,2,123,423,fixed_delta,0.03841730837928436,0.012782208620853738,,,,,0.4505125597550665,1622,1978,1,0.65,WHITE,WHITE,True,0,0.0012000018614344299,WHITE,True,CORRECT,0.6842457999991893,684.2457999991893
5,20260325_140546,D,J,False,AUTOMATION2,2,124,424,fixed_delta,0.03841730837928436,0.012782208620853738,,,,,0.5651584985683443,2035,1565,1,0.65,BLACK,BLACK,True,0,0.0015000005078036338,BLACK,True,CORRECT,0.671157900000253,671.157900000253
