participant_id,run_timestamp,key_black,key_white,keymap_flip,block,block_idx,trial,global_trial,difficulty_mode,delta_fixed_mean,delta_fixed_sd,delta_stair_realised,delta_stair_mean,delta_step_down_used,delta_step_up_used,vblack_prop,n_vblack,n_vwhite,auto_on,aid_accuracy_setting,stimulus,aid_label,aid_correct,aid_onset_ms,aid_onset_ms_rel,response,correct,feedback,rt_s,rt_ms
2,20260325_120617,D,J,False,AUTOMATION2,3,1,801,fixed_delta,0.04010600706829564,0.013286393218712247,,,,,0.4544745870488763,1636,1964,1,0.65,WHITE,BLACK,False,0,0.003399998604436405,WHITE,True,CORRECT,2.184398199999123,2184.398199999123
2,20260325_120617,D,J,False,AUTOMATION2,3,2,802,fixed_delta,0.04010600706829564,0.013286393218712247,,,,,0.538561163545256,1939,1661,1,0.65,BLACK,BLACK,True,0,0.0021000014385208488,BLACK,True,CORRECT,0.7454878999997163,745.4878999997163
2,20260325_120617,D,J,False,AUTOMATION2,3,3,803,fixed_delta,0.04010600706829564,0.013286393218712247,,,,,0.4836443215441226,1741,1859,1,0.65,WHITE,WHITE,True,0,0.0015999994502635673,WHITE,True,CORRECT,0.5896396999996796,589.6396999996796
2,20260325_120617,D,J,False,AUTOMATION2,3,4,804,fixed_delta,0.04010600706829564,0.013286393218712247,,,,,0.4670285465502935,1681,1919,1,0.65,WHITE,BLACK,False,0,0.0017000002117129043,WHITE,True,CORRECT,0.898376900000585,898.376900000585
2,20260325_120617,D,J,False,AUTOMATION2,3,5,805,fixed_delta,0.04010600706829564,0.013286393218712247,,,,,0.5134707006235816,1848,1752,1,0.65,BLACK,BLACK,True,0,0.0017999991541728377,WHITE,False,INCORRECT,0.6878214999996999,687.8214999996999
2,20260325_120617,D,J,False,AUTOMATION2,3,6,806,fixed_delta,0.04010600706829564,0.013286393218712247,,,,,0.5248355546250942,1889,1711,1,0.65,BLACK,BLACK,True,0,0.0017999991541728377,WHITE,False,INCORRECT,1.111917899999753,1111.917899999753
2,20260325_120617,D,J,False,AUTOMATION2,3,7,807,fixed_delta,0.04010600706829564,0.013286393218712247,,,,,0.47271760742901614,1702,1898,1,0.65,WHITE,BLACK,False,0,0.0017000002117129043,WHITE,True,CORRECT,1.4472487999992154,1447.2487999992154
2,20260325_120617,D,J,False,AUTOMATION2,3,8,808,fixed_delta,0.04010600706829564,0.013286393218712247,,,,,0.5375391125833205,1935,1665,1,0.65,BLACK,WHITE,False,0,0.0021999985619913787,BLACK,True,CORRECT,0.5966517999986536,596.6517999986536
2,20260325_120617,D,J,False,AUTOMATION2,3,9,809,fixed_delta,0.04010600706829564,0.013286393218712247,,,,,0.5338476883434903,1922,1678,1,0.65,BLACK,WHITE,False,0,0.0014999986888142303,WHITE,False,INCORRECT,0.9742315000003146,974.2315000003146
2,20260325_120617,D,J,False,AUTOMATION2,3,10,810,fixed_delta,0.04010600706829564,0.013286393218712247,,,,,0.4442294854478615,1599,2001,1,0.65,WHITE,BLACK,False,0,0.0015000005078036338,WHITE,True,CORRECT,2.551757799999905,2551.757799999905
2,20260325_120617,D,J,False,AUTOMATION2,3,11,811,fixed_delta,0.04010600706829564,0.013286393218712247,,,,,0.46631700963743433,1679,1921,1,0.65,WHITE,WHITE,True,0,0.0015999994502635673,WHITE,True,CORRECT,0.9260560999991867,926.0560999991867
2,20260325_120617,D,J,False,AUTOMATION2,3,12,812,fixed_delta,0.04010600706829564,0.013286393218712247,,,,,0.5501337782215798,1980,1620,1,0.65,BLACK,WHITE,False,0,0.0017999991541728377,BLACK,True,CORRECT,0.9805873000004794,980.5873000004794
2,20260325_120617,D,J,False,AUTOMATION2,3,13,813,fixed_delta,0.04010600706829564,0.013286393218712247,,,,,0.5452705277533343,1963,1637,1,0.65,BLACK,WHITE,False,0,0.0014999986888142303,BLACK,True,CORRECT,1.1808082999996259,1180.808299999626
2,20260325_120617,D,J,False,AUTOMATION2,3,14,814,fixed_delta,0.04010600706829564,0.013286393218712247,,,,,0.45717061429750583,1646,1954,1,0.65,WHITE,WHITE,True,0,0.0016000012692529708,WHITE,True,CORRECT,0.8750417999999627,875.0417999999627
2,20260325_120617,D,J,False,AUTOMATION2,3,15,815,fixed_delta,0.04010600706829564,0.013286393218712247,,,,,0.5288651215330915,1904,1696,1,0.65,BLACK,BLACK,True,0,0.0015000005078036338,BLACK,True,CORRECT,0.6486578000003647,648.6578000003647
2,20260325_120617,D,J,False,AUTOMATION2,3,16,816,fixed_delta,0.04010600706829564,0.013286393218712247,,,,,0.4703390038415742,1693,1907,1,0.65,WHITE,BLACK,False,0,0.0017000002117129043,WHITE,True,CORRECT,1.21079490000011,1210.79490000011
2,20260325_120617,D,J,False,AUTOMATION2,3,17,817,fixed_delta,0.04010600706829564,0.013286393218712247,,,,,0.547229371419802,1970,1630,1,0.65,BLACK,BLACK,True,0,0.0015999994502635673,BLACK,True,CORRECT,0.7416123000002699,741.6123000002699
2,20260325_120617,D,J,False,AUTOMATION2,3,18,818,fixed_delta,0.04010600706829564,0.013286393218712247,,,,,0.4526388929245312,1630,1970,1,0.65,WHITE,WHITE,True,0,0.0017000002117129043,WHITE,True,CORRECT,0.663420099999712,663.420099999712
2,20260325_120617,D,J,False,AUTOMATION2,3,19,819,fixed_delta,0.04010600706829564,0.013286393218712247,,,,,0.5420480236290643,1951,1649,1,0.65,BLACK,BLACK,True,0,0.0015999994502635673,BLACK,True,CORRECT,0.7753300000003946,775.3300000003946
2,20260325_120617,D,J,False,AUTOMATION2,3,20,820,fixed_delta,0.04010600706829564,0.013286393218712247,,,,,0.45598409110815774,1642,1958,1,0.65,WHITE,WHITE,True,0,0.0018000009731622413,WHITE,True,CORRECT,0.8598335000006045,859.8335000006045
2,20260325_120617,D,J,False,AUTOMATION2,3,21,821,fixed_delta,0.04010600706829564,0.013286393218712247,,,,,0.49075303117769437,1767,1833,1,0.65,WHITE,BLACK,False,0,0.0014999986888142303,WHITE,True,CORRECT,1.4704356999991433,1470.4356999991433
2,20260325_120617,D,J,False,AUTOMATION2,3,22,822,fixed_delta,0.04010600706829564,0.013286393218712247,,,,,0.5241073161452048,1887,1713,1,0.65,BLACK,BLACK,True,0,0.002200000380980782,BLACK,True,CORRECT,0.8151697000012064,815.1697000012064
2,20260325_120617,D,J,False,AUTOMATION2,3,23,823,fixed_delta,0.04010600706829564,0.013286393218712247,,,,,0.5483862482963546,1974,1626,1,0.65,BLACK,BLACK,True,0,0.002999999196617864,BLACK,True,CORRECT,0.5238790000003064,523.8790000003064
2,20260325_120617,D,J,False,AUTOMATION2,3,24,824,fixed_delta,0.04010600706829564,0.013286393218712247,,,,,0.5351646157738242,1927,1673,1,0.65,BLACK,BLACK,True,0,0.0017000002117129043,BLACK,True,CORRECT,0.6527898000003916,652.7898000003916
2,20260325_120617,D,J,False,AUTOMATION2,3,25,825,fixed_delta,0.04010600706829564,0.013286393218712247,,,,,0.5448868933093018,1962,1638,1,0.65,BLACK,BLACK,True,0,0.0015999994502635673,BLACK,True,CORRECT,0.7481564999998227,748.1564999998227
2,20260325_120617,D,J,False,AUTOMATION2,3,26,826,fixed_delta,0.04010600706829564,0.013286393218712247,,,,,0.5436162924509971,1957,1643,1,0.65,BLACK,BLACK,True,0,0.0018999999156221747,BLACK,True,CORRECT,0.8351462000009633,835.1462000009633
2,20260325_120617,D,J,False,AUTOMATION2,3,27,827,fixed_delta,0.04010600706829564,0.013286393218712247,,,,,0.45935262495258256,1654,1946,1,0.65,WHITE,WHITE,True,0,0.0018000009731622413,WHITE,True,CORRECT,0.5986040000007051,598.6040000007051
2,20260325_120617,D,J,False,AUTOMATION2,3,28,828,fixed_delta,0.04010600706829564,0.013286393218712247,,,,,0.4625160726000476,1665,1935,1,0.65,WHITE,WHITE,True,0,0.002099999619531445,WHITE,True,CORRECT,1.0392205999996804,1039.2205999996804
2,20260325_120617,D,J,False,AUTOMATION2,3,29,829,fixed_delta,0.04010600706829564,0.013286393218712247,,,,,0.4690689164229521,1689,1911,1,0.65,WHITE,WHITE,True,0,0.0016999983927235007,BLACK,False,INCORRECT,0.6555332999996608,655.5332999996608
2,20260325_120617,D,J,False,AUTOMATION2,3,30,830,fixed_delta,0.04010600706829564,0.013286393218712247,,,,,0.5434330114456745,1956,1644,1,0.65,BLACK,BLACK,True,0,0.0014999986888142303,BLACK,True,CORRECT,1.9060836999997264,1906.0836999997264
2,20260325_120617,D,J,False,AUTOMATION2,3,31,831,fixed_delta,0.04010600706829564,0.013286393218712247,,,,,0.4717912095309069,1698,1902,1,0.65,WHITE,BLACK,False,0,0.0014999986888142303,WHITE,True,CORRECT,1.8090314000000944,1809.0314000000944
2,20260325_120617,D,J,False,AUTOMATION2,3,32,832,fixed_delta,0.04010600706829564,0.013286393218712247,,,,,0.45847715706657016,1651,1949,1,0.65,WHITE,WHITE,True,0,0.0013000008038943633,WHITE,True,CORRECT,0.7743420000006154,774.3420000006154
2,20260325_120617,D,J,False,AUTOMATION2,3,33,833,fixed_delta,0.04010600706829564,0.013286393218712247,,,,,0.5317442975205517,1914,1686,1,0.65,BLACK,WHITE,False,0,0.0018999999156221747,BLACK,True,CORRECT,1.3862155000006169,1386.2155000006169
2,20260325_120617,D,J,False,AUTOMATION2,3,34,834,fixed_delta,0.04010600706829564,0.013286393218712247,,,,,0.5440095535271604,1958,1642,1,0.65,BLACK,BLACK,True,0,0.0015999994502635673,BLACK,True,CORRECT,2.47691180000038,2476.91180000038
2,20260325_120617,D,J,False,AUTOMATION2,3,35,835,fixed_delta,0.04010600706829564,0.013286393218712247,,,,,0.48601275040230113,1750,1850,1,0.65,WHITE,WHITE,True,0,0.0017000002117129043,WHITE,True,CORRECT,1.017616299999645,1017.616299999645
2,20260325_120617,D,J,False,AUTOMATION2,3,36,836,fixed_delta,0.04010600706829564,0.013286393218712247,,,,,0.5473455074478684,1970,1630,1,0.65,BLACK,BLACK,True,0,0.0016999983927235007,BLACK,True,CORRECT,0.8595061999985774,859.5061999985774
2,20260325_120617,D,J,False,AUTOMATION2,3,37,837,fixed_delta,0.04010600706829564,0.013286393218712247,,,,,0.46241187241097254,1665,1935,1,0.65,WHITE,BLACK,False,0,0.002399998265900649,WHITE,True,CORRECT,0.6664088999987143,666.4088999987143
2,20260325_120617,D,J,False,AUTOMATION2,3,38,838,fixed_delta,0.04010600706829564,0.013286393218712247,,,,,0.5602463226338568,2017,1583,1,0.65,BLACK,BLACK,True,0,0.0015999994502635673,BLACK,True,CORRECT,1.1675119000010454,1167.5119000010454
2,20260325_120617,D,J,False,AUTOMATION2,3,39,839,fixed_delta,0.04010600706829564,0.013286393218712247,,,,,0.44326287328431163,1596,2004,1,0.65,WHITE,WHITE,True,0,0.002099999619531445,WHITE,True,CORRECT,0.5919825000000856,591.9825000000856
2,20260325_120617,D,J,False,AUTOMATION2,3,40,840,fixed_delta,0.04010600706829564,0.013286393218712247,,,,,0.5432060478849657,1956,1644,1,0.65,BLACK,BLACK,True,0,0.0017000002117129043,BLACK,True,CORRECT,0.6061219000002893,606.1219000002893
2,20260325_120617,D,J,False,AUTOMATION2,3,41,841,fixed_delta,0.04010600706829564,0.013286393218712247,,,,,0.5454596789748279,1964,1636,1,0.65,BLACK,BLACK,True,0,0.0016000012692529708,WHITE,False,INCORRECT,1.6654683000015211,1665.4683000015211
2,20260325_120617,D,J,False,AUTOMATION2,3,42,842,fixed_delta,0.04010600706829564,0.013286393218712247,,,,,0.5450677630557783,1962,1638,1,0.65,BLACK,BLACK,True,0,0.0020000006770715117,BLACK,True,CORRECT,1.0164872000004834,1016.4872000004834
2,20260325_120617,D,J,False,AUTOMATION2,3,43,843,fixed_delta,0.04010600706829564,0.013286393218712247,,,,,0.4394904341640805,1582,2018,1,0.65,WHITE,WHITE,True,0,0.0017000002117129043,WHITE,True,CORRECT,0.8579155000006722,857.9155000006722
2,20260325_120617,D,J,False,AUTOMATION2,3,44,844,fixed_delta,0.04010600706829564,0.013286393218712247,,,,,0.526136005742652,1894,1706,1,0.65,BLACK,WHITE,False,0,0.002800001311697997,WHITE,False,INCORRECT,0.8364503000011609,836.4503000011609
2,20260325_120617,D,J,False,AUTOMATION2,3,45,845,fixed_delta,0.04010600706829564,0.013286393218712247,,,,,0.5451631622210348,1963,1637,1,0.65,BLACK,WHITE,False,0,0.0018999999156221747,BLACK,True,CORRECT,1.9526528999995207,1952.6528999995207
2,20260325_120617,D,J,False,AUTOMATION2,3,46,846,fixed_delta,0.04010600706829564,0.013286393218712247,,,,,0.535077533381645,1926,1674,1,0.65,BLACK,BLACK,True,0,0.0018999999156221747,WHITE,False,INCORRECT,1.0230193999996118,1023.0193999996118
2,20260325_120617,D,J,False,AUTOMATION2,3,47,847,fixed_delta,0.04010600706829564,0.013286393218712247,,,,,0.5612697034425936,2021,1579,1,0.65,BLACK,BLACK,True,0,0.0018000009731622413,BLACK,True,CORRECT,0.9480286000016349,948.0286000016349
2,20260325_120617,D,J,False,AUTOMATION2,3,48,848,fixed_delta,0.04010600706829564,0.013286393218712247,,,,,0.5479463028470173,1973,1627,1,0.65,BLACK,WHITE,False,0,0.0017000002117129043,WHITE,False,INCORRECT,0.9279478999997082,927.9478999997082
2,20260325_120617,D,J,False,AUTOMATION2,3,49,849,fixed_delta,0.04010600706829564,0.013286393218712247,,,,,0.5483984664274993,1974,1626,1,0.65,BLACK,BLACK,True,0,0.0018000009731622413,WHITE,False,INCORRECT,2.057746300000872,2057.746300000872
2,20260325_120617,D,J,False,AUTOMATION2,3,50,850,fixed_delta,0.04010600706829564,0.013286393218712247,,,,,0.46362364382265875,1669,1931,1,0.65,WHITE,WHITE,True,0,0.0015999994502635673,WHITE,True,CORRECT,0.7938992999988841,793.8992999988841
2,20260325_120617,D,J,False,AUTOMATION2,3,51,851,fixed_delta,0.04010600706829564,0.013286393218712247,,,,,0.45717462959808103,1646,1954,1,0.65,WHITE,WHITE,True,0,0.0017999991541728377,WHITE,True,CORRECT,2.5767204999992828,2576.7204999992828
2,20260325_120617,D,J,False,AUTOMATION2,3,52,852,fixed_delta,0.04010600706829564,0.013286393218712247,,,,,0.5350536493186173,1926,1674,1,0.65,BLACK,WHITE,False,0,0.0018000009731622413,BLACK,True,CORRECT,1.4281331000001956,1428.1331000001956
2,20260325_120617,D,J,False,AUTOMATION2,3,53,853,fixed_delta,0.04010600706829564,0.013286393218712247,,,,,0.5472484801162822,1970,1630,1,0.65,BLACK,BLACK,True,0,0.0017999991541728377,BLACK,True,CORRECT,0.8976442999992287,897.6442999992287
2,20260325_120617,D,J,False,AUTOMATION2,3,54,854,fixed_delta,0.04010600706829564,0.013286393218712247,,,,,0.5152614052017175,1855,1745,1,0.65,BLACK,BLACK,True,0,0.0017000002117129043,BLACK,True,CORRECT,0.7494579000012891,749.4579000012891
2,20260325_120617,D,J,False,AUTOMATION2,3,55,855,fixed_delta,0.04010600706829564,0.013286393218712247,,,,,0.5280356942896408,1901,1699,1,0.65,BLACK,BLACK,True,0,0.0019000017346115783,BLACK,True,CORRECT,0.7207590000016353,720.7590000016353
2,20260325_120617,D,J,False,AUTOMATION2,3,56,856,fixed_delta,0.04010600706829564,0.013286393218712247,,,,,0.4542468387470355,1635,1965,1,0.65,WHITE,BLACK,False,0,0.0022999993234407157,BLACK,False,INCORRECT,0.9767945000003238,976.7945000003238
2,20260325_120617,D,J,False,AUTOMATION2,3,57,857,fixed_delta,0.04010600706829564,0.013286393218712247,,,,,0.4694013193514788,1690,1910,1,0.65,WHITE,BLACK,False,0,0.0013000008038943633,WHITE,True,CORRECT,0.5251177999998617,525.1177999998617
2,20260325_120617,D,J,False,AUTOMATION2,3,58,858,fixed_delta,0.04010600706829564,0.013286393218712247,,,,,0.45368732358517483,1633,1967,1,0.65,WHITE,BLACK,False,0,0.0021999985619913787,WHITE,True,CORRECT,0.6201937999994698,620.1937999994698
2,20260325_120617,D,J,False,AUTOMATION2,3,59,859,fixed_delta,0.04010600706829564,0.013286393218712247,,,,,0.4707372054702414,1695,1905,1,0.65,WHITE,BLACK,False,0,0.0017000002117129043,WHITE,True,CORRECT,2.1727006000000983,2172.7006000000983
2,20260325_120617,D,J,False,AUTOMATION2,3,60,860,fixed_delta,0.04010600706829564,0.013286393218712247,,,,,0.5584042273504904,2010,1590,1,0.65,BLACK,WHITE,False,0,0.0013999997463542968,BLACK,True,CORRECT,0.7723244999997405,772.3244999997405
2,20260325_120617,D,J,False,AUTOMATION2,3,61,861,fixed_delta,0.04010600706829564,0.013286393218712247,,,,,0.5194018706480968,1870,1730,1,0.65,BLACK,BLACK,True,0,0.0016999983927235007,BLACK,True,CORRECT,0.5295104999986506,529.5104999986506
2,20260325_120617,D,J,False,AUTOMATION2,3,62,862,fixed_delta,0.04010600706829564,0.013286393218712247,,,,,0.5382495672991215,1938,1662,1,0.65,BLACK,BLACK,True,0,0.0015000005078036338,BLACK,True,CORRECT,0.6240435999989131,624.0435999989131
2,20260325_120617,D,J,False,AUTOMATION2,3,63,863,fixed_delta,0.04010600706829564,0.013286393218712247,,,,,0.5548744341488886,1998,1602,1,0.65,BLACK,BLACK,True,0,0.0015000005078036338,BLACK,True,CORRECT,0.5579992000002676,557.9992000002676
2,20260325_120617,D,J,False,AUTOMATION2,3,64,864,fixed_delta,0.04010600706829564,0.013286393218712247,,,,,0.4397543643653405,1583,2017,1,0.65,WHITE,BLACK,False,0,0.0017000002117129043,WHITE,True,CORRECT,0.6466856000006374,646.6856000006374
2,20260325_120617,D,J,False,AUTOMATION2,3,65,865,fixed_delta,0.04010600706829564,0.013286393218712247,,,,,0.47190577439645226,1699,1901,1,0.65,WHITE,WHITE,True,0,0.0013999997463542968,WHITE,True,CORRECT,0.6795103000004019,679.5103000004019
2,20260325_120617,D,J,False,AUTOMATION2,3,66,866,fixed_delta,0.04010600706829564,0.013286393218712247,,,,,0.4339292705995172,1562,2038,1,0.65,WHITE,BLACK,False,0,0.0018999999156221747,WHITE,True,CORRECT,0.5495919000004506,549.5919000004506
2,20260325_120617,D,J,False,AUTOMATION2,3,67,867,fixed_delta,0.04010600706829564,0.013286393218712247,,,,,0.5386933813900044,1939,1661,1,0.65,BLACK,WHITE,False,0,0.0012000000424450263,BLACK,True,CORRECT,0.48586149999937334,485.86149999937334
2,20260325_120617,D,J,False,AUTOMATION2,3,68,868,fixed_delta,0.04010600706829564,0.013286393218712247,,,,,0.5303015360082385,1909,1691,1,0.65,BLACK,BLACK,True,0,0.0014999986888142303,BLACK,True,CORRECT,0.5867038999986107,586.7038999986107
2,20260325_120617,D,J,False,AUTOMATION2,3,69,869,fixed_delta,0.04010600706829564,0.013286393218712247,,,,,0.5495645987779222,1978,1622,1,0.65,BLACK,BLACK,True,0,0.0015999994502635673,BLACK,True,CORRECT,0.5115621999993891,511.5621999993891
2,20260325_120617,D,J,False,AUTOMATION2,3,70,870,fixed_delta,0.04010600706829564,0.013286393218712247,,,,,0.5415611596862422,1950,1650,1,0.65,BLACK,BLACK,True,0,0.002200000380980782,BLACK,True,CORRECT,0.5083245999994688,508.3245999994688
2,20260325_120617,D,J,False,AUTOMATION2,3,71,871,fixed_delta,0.04010600706829564,0.013286393218712247,,,,,0.46520146074044194,1675,1925,1,0.65,WHITE,WHITE,True,0,0.0015999994502635673,WHITE,True,CORRECT,0.48688679999941087,486.88679999941087
2,20260325_120617,D,J,False,AUTOMATION2,3,72,872,fixed_delta,0.04010600706829564,0.013286393218712247,,,,,0.45832160685561746,1650,1950,1,0.65,WHITE,WHITE,True,0,0.0017000002117129043,WHITE,True,CORRECT,0.5976188000004186,597.6188000004186
2,20260325_120617,D,J,False,AUTOMATION2,3,73,873,fixed_delta,0.04010600706829564,0.013286393218712247,,,,,0.5283187828820376,1902,1698,1,0.65,BLACK,BLACK,True,0,0.0018000009731622413,WHITE,False,INCORRECT,0.5463001000007353,546.3001000007353
2,20260325_120617,D,J,False,AUTOMATION2,3,74,874,fixed_delta,0.04010600706829564,0.013286393218712247,,,,,0.46256506992545876,1665,1935,1,0.65,WHITE,WHITE,True,0,0.0016999983927235007,WHITE,True,CORRECT,0.8655874999985826,865.5874999985826
2,20260325_120617,D,J,False,AUTOMATION2,3,75,875,fixed_delta,0.04010600706829564,0.013286393218712247,,,,,0.5142300312776124,1851,1749,1,0.65,BLACK,BLACK,True,0,0.0021999985619913787,BLACK,True,CORRECT,0.7113622999986546,711.3622999986546
2,20260325_120617,D,J,False,AUTOMATION2,3,76,876,fixed_delta,0.04010600706829564,0.013286393218712247,,,,,0.48401141632291095,1742,1858,1,0.65,WHITE,BLACK,False,0,0.0017999991541728377,BLACK,False,INCORRECT,0.9032253999994282,903.2253999994282
2,20260325_120617,D,J,False,AUTOMATION2,3,77,877,fixed_delta,0.04010600706829564,0.013286393218712247,,,,,0.5226010451813835,1881,1719,1,0.65,BLACK,BLACK,True,0,0.0018999999156221747,WHITE,False,INCORRECT,0.6505202999996982,650.5202999996982
2,20260325_120617,D,J,False,AUTOMATION2,3,78,878,fixed_delta,0.04010600706829564,0.013286393218712247,,,,,0.4721311963198639,1700,1900,1,0.65,WHITE,BLACK,False,0,0.0018999999156221747,WHITE,True,CORRECT,0.617605999999796,617.605999999796
2,20260325_120617,D,J,False,AUTOMATION2,3,79,879,fixed_delta,0.04010600706829564,0.013286393218712247,,,,,0.4722140468138157,1700,1900,1,0.65,WHITE,WHITE,True,0,0.0018999999156221747,WHITE,True,CORRECT,0.9065112000007503,906.5112000007503
2,20260325_120617,D,J,False,AUTOMATION2,3,80,880,fixed_delta,0.04010600706829564,0.013286393218712247,,,,,0.46283027440438973,1666,1934,1,0.65,WHITE,BLACK,False,0,0.0017000002117129043,BLACK,False,INCORRECT,0.7943348999997397,794.3348999997397
2,20260325_120617,D,J,False,AUTOMATION2,3,81,881,fixed_delta,0.04010600706829564,0.013286393218712247,,,,,0.45150157756520465,1625,1975,1,0.65,WHITE,WHITE,True,0,0.0017999991541728377,WHITE,True,CORRECT,0.6708480999986932,670.8480999986932
2,20260325_120617,D,J,False,AUTOMATION2,3,82,882,fixed_delta,0.04010600706829564,0.013286393218712247,,,,,0.5463950767699793,1967,1633,1,0.65,BLACK,WHITE,False,0,0.0017000002117129043,BLACK,True,CORRECT,0.818741900000532,818.741900000532
2,20260325_120617,D,J,False,AUTOMATION2,3,83,883,fixed_delta,0.04010600706829564,0.013286393218712247,,,,,0.4392124642923686,1581,2019,1,0.65,WHITE,WHITE,True,0,0.0022999993234407157,WHITE,True,CORRECT,0.5898911999993288,589.8911999993288
2,20260325_120617,D,J,False,AUTOMATION2,3,84,884,fixed_delta,0.04010600706829564,0.013286393218712247,,,,,0.4703916940373729,1693,1907,1,0.65,WHITE,BLACK,False,0,0.001999998858082108,BLACK,False,INCORRECT,0.5506430999994336,550.6430999994336
2,20260325_120617,D,J,False,AUTOMATION2,3,85,885,fixed_delta,0.04010600706829564,0.013286393218712247,,,,,0.4701923904011085,1693,1907,1,0.65,WHITE,WHITE,True,0,0.002099999619531445,WHITE,True,CORRECT,0.5615440999990824,561.5440999990824
2,20260325_120617,D,J,False,AUTOMATION2,3,86,886,fixed_delta,0.04010600706829564,0.013286393218712247,,,,,0.45262870819877316,1629,1971,1,0.65,WHITE,BLACK,False,0,0.002099999619531445,WHITE,True,CORRECT,0.5371814999998605,537.1814999998605
2,20260325_120617,D,J,False,AUTOMATION2,3,87,887,fixed_delta,0.04010600706829564,0.013286393218712247,,,,,0.44554931052338353,1604,1996,1,0.65,WHITE,WHITE,True,0,0.0018999999156221747,WHITE,True,CORRECT,1.2715007000006153,1271.5007000006153
2,20260325_120617,D,J,False,AUTOMATION2,3,88,888,fixed_delta,0.04010600706829564,0.013286393218712247,,,,,0.47218657102420125,1700,1900,1,0.65,WHITE,BLACK,False,0,0.0017999991541728377,BLACK,False,INCORRECT,0.9715663999995741,971.5663999995741
2,20260325_120617,D,J,False,AUTOMATION2,3,89,889,fixed_delta,0.04010600706829564,0.013286393218712247,,,,,0.5348844153581349,1926,1674,1,0.65,BLACK,WHITE,False,0,0.002200000380980782,BLACK,True,CORRECT,1.2682311999997182,1268.2311999997182
2,20260325_120617,D,J,False,AUTOMATION2,3,90,890,fixed_delta,0.04010600706829564,0.013286393218712247,,,,,0.4536180295536314,1633,1967,1,0.65,WHITE,WHITE,True,0,0.0020000006770715117,WHITE,True,CORRECT,0.5865071999996871,586.5071999996871
2,20260325_120617,D,J,False,AUTOMATION2,3,91,891,fixed_delta,0.04010600706829564,0.013286393218712247,,,,,0.5407470111811552,1947,1653,1,0.65,BLACK,BLACK,True,0,0.015999999959603883,BLACK,True,CORRECT,0.5811184000012872,581.1184000012872
2,20260325_120617,D,J,False,AUTOMATION2,3,92,892,fixed_delta,0.04010600706829564,0.013286393218712247,,,,,0.5301892624406489,1909,1691,1,0.65,BLACK,BLACK,True,0,0.0022999993234407157,WHITE,False,INCORRECT,1.1624307000001863,1162.4307000001863
2,20260325_120617,D,J,False,AUTOMATION2,3,93,893,fixed_delta,0.04010600706829564,0.013286393218712247,,,,,0.5498151132293975,1979,1621,1,0.65,BLACK,WHITE,False,0,0.0017000002117129043,WHITE,False,INCORRECT,1.2277213000015763,1227.7213000015763
2,20260325_120617,D,J,False,AUTOMATION2,3,94,894,fixed_delta,0.04010600706829564,0.013286393218712247,,,,,0.5244918495172326,1888,1712,1,0.65,BLACK,WHITE,False,0,0.0015999994502635673,WHITE,False,INCORRECT,0.7455098999998881,745.5098999998881
2,20260325_120617,D,J,False,AUTOMATION2,3,95,895,fixed_delta,0.04010600706829564,0.013286393218712247,,,,,0.5443997970929035,1960,1640,1,0.65,BLACK,BLACK,True,0,0.0018999999156221747,WHITE,False,INCORRECT,1.5486557999993238,1548.6557999993238
2,20260325_120617,D,J,False,AUTOMATION2,3,96,896,fixed_delta,0.04010600706829564,0.013286393218712247,,,,,0.45331824397884385,1632,1968,1,0.65,WHITE,BLACK,False,0,0.0017000002117129043,WHITE,True,CORRECT,0.6416697000004206,641.6697000004206
2,20260325_120617,D,J,False,AUTOMATION2,3,97,897,fixed_delta,0.04010600706829564,0.013286393218712247,,,,,0.5412810679593747,1949,1651,1,0.65,BLACK,BLACK,True,0,0.0015999994502635673,BLACK,True,CORRECT,0.586031599999842,586.031599999842
2,20260325_120617,D,J,False,AUTOMATION2,3,98,898,fixed_delta,0.04010600706829564,0.013286393218712247,,,,,0.5350898630995541,1926,1674,1,0.65,BLACK,BLACK,True,0,0.0014999986888142303,BLACK,True,CORRECT,0.5439905999992334,543.9905999992334
2,20260325_120617,D,J,False,AUTOMATION2,3,99,899,fixed_delta,0.04010600706829564,0.013286393218712247,,,,,0.4636030573078788,1669,1931,1,0.65,WHITE,WHITE,True,0,0.0015999994502635673,WHITE,True,CORRECT,0.5734687999993184,573.4687999993184
2,20260325_120617,D,J,False,AUTOMATION2,3,100,900,fixed_delta,0.04010600706829564,0.013286393218712247,,,,,0.4799906404277687,1728,1872,1,0.65,WHITE,WHITE,True,0,0.0017000002117129043,WHITE,True,CORRECT,1.0511029999997845,1051.1029999997845
2,20260325_120617,D,J,False,AUTOMATION2,3,101,901,fixed_delta,0.04010600706829564,0.013286393218712247,,,,,0.49191900738025884,1771,1829,1,0.65,WHITE,BLACK,False,0,0.0015999994502635673,BLACK,False,INCORRECT,0.6669643000004726,666.9643000004726
2,20260325_120617,D,J,False,AUTOMATION2,3,102,902,fixed_delta,0.04010600706829564,0.013286393218712247,,,,,0.47402373215950483,1706,1894,1,0.65,WHITE,BLACK,False,0,0.0015000005078036338,WHITE,True,CORRECT,0.6593537000007927,659.3537000007927
2,20260325_120617,D,J,False,AUTOMATION2,3,103,903,fixed_delta,0.04010600706829564,0.013286393218712247,,,,,0.550029327544716,1980,1620,1,0.65,BLACK,WHITE,False,0,0.0017999991541728377,BLACK,True,CORRECT,0.5920532999989518,592.0532999989518
2,20260325_120617,D,J,False,AUTOMATION2,3,104,904,fixed_delta,0.04010600706829564,0.013286393218712247,,,,,0.4559915455316844,1642,1958,1,0.65,WHITE,WHITE,True,0,0.0013999997463542968,WHITE,True,CORRECT,0.5739391000006435,573.9391000006435
2,20260325_120617,D,J,False,AUTOMATION2,3,105,905,fixed_delta,0.04010600706829564,0.013286393218712247,,,,,0.5362195232481377,1930,1670,1,0.65,BLACK,BLACK,True,0,0.0013999997463542968,BLACK,True,CORRECT,0.5876826999992772,587.6826999992772
2,20260325_120617,D,J,False,AUTOMATION2,3,106,906,fixed_delta,0.04010600706829564,0.013286393218712247,,,,,0.4454642661919693,1604,1996,1,0.65,WHITE,WHITE,True,0,0.0015000005078036338,WHITE,True,CORRECT,0.5877466000001732,587.7466000001732
2,20260325_120617,D,J,False,AUTOMATION2,3,107,907,fixed_delta,0.04010600706829564,0.013286393218712247,,,,,0.5433541599331827,1956,1644,1,0.65,BLACK,BLACK,True,0,0.0018999999156221747,BLACK,True,CORRECT,3.3452369000006,3345.2369000006
2,20260325_120617,D,J,False,AUTOMATION2,3,108,908,fixed_delta,0.04010600706829564,0.013286393218712247,,,,,0.47629738566526836,1715,1885,1,0.65,WHITE,WHITE,True,0,0.0015000005078036338,WHITE,True,CORRECT,0.7953053000001091,795.3053000001091
2,20260325_120617,D,J,False,AUTOMATION2,3,109,909,fixed_delta,0.04010600706829564,0.013286393218712247,,,,,0.5839458385349073,2102,1498,1,0.65,BLACK,BLACK,True,0,0.0017000002117129043,BLACK,True,CORRECT,0.5297178000000713,529.7178000000713
2,20260325_120617,D,J,False,AUTOMATION2,3,110,910,fixed_delta,0.04010600706829564,0.013286393218712247,,,,,0.44364711646886035,1597,2003,1,0.65,WHITE,WHITE,True,0,0.0017000002117129043,WHITE,True,CORRECT,0.522757200000342,522.757200000342
2,20260325_120617,D,J,False,AUTOMATION2,3,111,911,fixed_delta,0.04010600706829564,0.013286393218712247,,,,,0.45137396055205453,1625,1975,1,0.65,WHITE,WHITE,True,0,0.0015000005078036338,WHITE,True,CORRECT,1.5512139000002207,1551.2139000002207
2,20260325_120617,D,J,False,AUTOMATION2,3,112,912,fixed_delta,0.04010600706829564,0.013286393218712247,,,,,0.45545664514383816,1640,1960,1,0.65,WHITE,BLACK,False,0,0.0015000005078036338,WHITE,True,CORRECT,1.2183308000003308,1218.3308000003308
2,20260325_120617,D,J,False,AUTOMATION2,3,113,913,fixed_delta,0.04010600706829564,0.013286393218712247,,,,,0.44162912504950425,1590,2010,1,0.65,WHITE,WHITE,True,0,0.002099999619531445,WHITE,True,CORRECT,1.3012017000000924,1301.2017000000924
2,20260325_120617,D,J,False,AUTOMATION2,3,114,914,fixed_delta,0.04010600706829564,0.013286393218712247,,,,,0.4742251979604103,1707,1893,1,0.65,WHITE,WHITE,True,0,0.0015999994502635673,BLACK,False,INCORRECT,2.569599399999788,2569.599399999788
2,20260325_120617,D,J,False,AUTOMATION2,3,115,915,fixed_delta,0.04010600706829564,0.013286393218712247,,,,,0.479731427814696,1727,1873,1,0.65,WHITE,BLACK,False,0,0.0015000005078036338,WHITE,True,CORRECT,1.6985187999998743,1698.5187999998743
2,20260325_120617,D,J,False,AUTOMATION2,3,116,916,fixed_delta,0.04010600706829564,0.013286393218712247,,,,,0.47195658115425765,1699,1901,1,0.65,WHITE,WHITE,True,0,0.0017000002117129043,WHITE,True,CORRECT,0.504699500001152,504.69950000115205
2,20260325_120617,D,J,False,AUTOMATION2,3,117,917,fixed_delta,0.04010600706829564,0.013286393218712247,,,,,0.4586629912587115,1651,1949,1,0.65,WHITE,WHITE,True,0,0.0013999997463542968,WHITE,True,CORRECT,0.5230808999986039,523.0808999986039
2,20260325_120617,D,J,False,AUTOMATION2,3,118,918,fixed_delta,0.04010600706829564,0.013286393218712247,,,,,0.5390707570579726,1941,1659,1,0.65,BLACK,WHITE,False,0,0.0013999997463542968,BLACK,True,CORRECT,0.7986538999994082,798.6538999994082
2,20260325_120617,D,J,False,AUTOMATION2,3,119,919,fixed_delta,0.04010600706829564,0.013286393218712247,,,,,0.4703128884418284,1693,1907,1,0.65,WHITE,BLACK,False,0,0.0018999999156221747,WHITE,True,CORRECT,0.5403578999994352,540.3578999994352
2,20260325_120617,D,J,False,AUTOMATION2,3,120,920,fixed_delta,0.04010600706829564,0.013286393218712247,,,,,0.5268997173286297,1897,1703,1,0.65,BLACK,WHITE,False,0,0.0012999989849049598,WHITE,False,INCORRECT,0.7062402999999904,706.2402999999904
2,20260325_120617,D,J,False,AUTOMATION2,3,121,921,fixed_delta,0.04010600706829564,0.013286393218712247,,,,,0.48283283976376734,1738,1862,1,0.65,WHITE,WHITE,True,0,0.0015999994502635673,WHITE,True,CORRECT,1.0928495000007388,1092.8495000007388
2,20260325_120617,D,J,False,AUTOMATION2,3,122,922,fixed_delta,0.04010600706829564,0.013286393218712247,,,,,0.4584082231736994,1650,1950,1,0.65,WHITE,WHITE,True,0,0.0018999999156221747,WHITE,True,CORRECT,0.6351990000002843,635.1990000002843
2,20260325_120617,D,J,False,AUTOMATION2,3,123,923,fixed_delta,0.04010600706829564,0.013286393218712247,,,,,0.47182804040685783,1699,1901,1,0.65,WHITE,WHITE,True,0,0.0015999994502635673,WHITE,True,CORRECT,0.7258597000000009,725.8597000000009
2,20260325_120617,D,J,False,AUTOMATION2,3,124,924,fixed_delta,0.04010600706829564,0.013286393218712247,,,,,0.45876226858480385,1652,1948,1,0.65,WHITE,BLACK,False,0,0.0013999997463542968,WHITE,True,CORRECT,0.5993482999983826,599.3482999983826
2,20260325_120617,D,J,False,AUTOMATION2,3,125,925,fixed_delta,0.04010600706829564,0.013286393218712247,,,,,0.45007298638397186,1620,1980,1,0.65,WHITE,WHITE,True,0,0.0012999989849049598,BLACK,False,INCORRECT,0.554303599999912,554.303599999912
2,20260325_120617,D,J,False,AUTOMATION2,3,126,926,fixed_delta,0.04010600706829564,0.013286393218712247,,,,,0.4677212510755785,1684,1916,1,0.65,WHITE,WHITE,True,0,0.0017000002117129043,WHITE,True,CORRECT,0.7841879999996308,784.1879999996308
2,20260325_120617,D,J,False,AUTOMATION2,3,127,927,fixed_delta,0.04010600706829564,0.013286393218712247,,,,,0.4530313214296514,1631,1969,1,0.65,WHITE,WHITE,True,0,0.0018999999156221747,WHITE,True,CORRECT,1.7210448000005272,1721.0448000005272
2,20260325_120617,D,J,False,AUTOMATION2,3,128,928,fixed_delta,0.04010600706829564,0.013286393218712247,,,,,0.45552206047381133,1640,1960,1,0.65,WHITE,WHITE,True,0,0.0015000005078036338,WHITE,True,CORRECT,0.7468558999989909,746.8558999989909
2,20260325_120617,D,J,False,AUTOMATION2,3,129,929,fixed_delta,0.04010600706829564,0.013286393218712247,,,,,0.5412982411894557,1949,1651,1,0.65,BLACK,BLACK,True,0,0.0018999999156221747,BLACK,True,CORRECT,0.6228283000000374,622.8283000000374
2,20260325_120617,D,J,False,AUTOMATION2,3,130,930,fixed_delta,0.04010600706829564,0.013286393218712247,,,,,0.5352122023433843,1927,1673,1,0.65,BLACK,WHITE,False,0,0.0018999999156221747,WHITE,False,INCORRECT,0.6015913999999611,601.5913999999611
2,20260325_120617,D,J,False,AUTOMATION2,3,131,931,fixed_delta,0.04010600706829564,0.013286393218712247,,,,,0.4916478547690707,1770,1830,1,0.65,WHITE,BLACK,False,0,0.0016000012692529708,WHITE,True,CORRECT,2.509222200000295,2509.222200000295
2,20260325_120617,D,J,False,AUTOMATION2,3,132,932,fixed_delta,0.04010600706829564,0.013286393218712247,,,,,0.45826856878004385,1650,1950,1,0.65,WHITE,BLACK,False,0,0.0015999994502635673,WHITE,True,CORRECT,1.0800411000000167,1080.0411000000167
2,20260325_120617,D,J,False,AUTOMATION2,3,133,933,fixed_delta,0.04010600706829564,0.013286393218712247,,,,,0.44641420164160595,1607,1993,1,0.65,WHITE,WHITE,True,0,0.0012999989849049598,WHITE,True,CORRECT,0.5428267999996024,542.8267999996024
2,20260325_120617,D,J,False,AUTOMATION2,3,134,934,fixed_delta,0.04010600706829564,0.013286393218712247,,,,,0.5546579233347488,1997,1603,1,0.65,BLACK,WHITE,False,0,0.0017000002117129043,BLACK,True,CORRECT,0.5456730000005336,545.6730000005336
2,20260325_120617,D,J,False,AUTOMATION2,3,135,935,fixed_delta,0.04010600706829564,0.013286393218712247,,,,,0.5393284558555947,1942,1658,1,0.65,BLACK,WHITE,False,0,0.0015000005078036338,BLACK,True,CORRECT,0.7188650999996753,718.8650999996753
2,20260325_120617,D,J,False,AUTOMATION2,3,136,936,fixed_delta,0.04010600706829564,0.013286393218712247,,,,,0.4721005777166185,1700,1900,1,0.65,WHITE,BLACK,False,0,0.0015999994502635673,WHITE,True,CORRECT,0.6671902999987651,667.1902999987651
2,20260325_120617,D,J,False,AUTOMATION2,3,137,937,fixed_delta,0.04010600706829564,0.013286393218712247,,,,,0.532691473225074,1918,1682,1,0.65,BLACK,BLACK,True,0,0.0012000000424450263,BLACK,True,CORRECT,0.5867493000005197,586.7493000005197
2,20260325_120617,D,J,False,AUTOMATION2,3,138,938,fixed_delta,0.04010600706829564,0.013286393218712247,,,,,0.5287856610863706,1904,1696,1,0.65,BLACK,BLACK,True,0,0.0015999994502635673,WHITE,False,INCORRECT,0.5147161999993841,514.7161999993841
2,20260325_120617,D,J,False,AUTOMATION2,3,139,939,fixed_delta,0.04010600706829564,0.013286393218712247,,,,,0.4505556609453183,1622,1978,1,0.65,WHITE,BLACK,False,0,0.0014999986888142303,WHITE,True,CORRECT,0.5736219999998866,573.6219999998866
2,20260325_120617,D,J,False,AUTOMATION2,3,140,940,fixed_delta,0.04010600706829564,0.013286393218712247,,,,,0.5533638454307843,1992,1608,1,0.65,BLACK,BLACK,True,0,0.0013999997463542968,BLACK,True,CORRECT,0.4890917000011541,489.0917000011541
2,20260325_120617,D,J,False,AUTOMATION2,3,141,941,fixed_delta,0.04010600706829564,0.013286393218712247,,,,,0.45980772396936853,1655,1945,1,0.65,WHITE,BLACK,False,0,0.0016999983927235007,WHITE,True,CORRECT,2.4994826999991346,2499.4826999991346
2,20260325_120617,D,J,False,AUTOMATION2,3,142,942,fixed_delta,0.04010600706829564,0.013286393218712247,,,,,0.4529825961274997,1631,1969,1,0.65,WHITE,WHITE,True,0,0.0013000008038943633,WHITE,True,CORRECT,2.227683799999795,2227.683799999795
2,20260325_120617,D,J,False,AUTOMATION2,3,143,943,fixed_delta,0.04010600706829564,0.013286393218712247,,,,,0.5350574312727305,1926,1674,1,0.65,BLACK,WHITE,False,0,0.0013999997463542968,BLACK,True,CORRECT,1.3163008999999875,1316.3008999999875
2,20260325_120617,D,J,False,AUTOMATION2,3,144,944,fixed_delta,0.04010600706829564,0.013286393218712247,,,,,0.5158917668377208,1857,1743,1,0.65,BLACK,WHITE,False,0,0.0017000002117129043,WHITE,False,INCORRECT,3.1523264999996172,3152.326499999617
2,20260325_120617,D,J,False,AUTOMATION2,3,145,945,fixed_delta,0.04010600706829564,0.013286393218712247,,,,,0.4627349231115367,1666,1934,1,0.65,WHITE,WHITE,True,0,0.0014999986888142303,BLACK,False,INCORRECT,0.9219421999987389,921.9421999987389
2,20260325_120617,D,J,False,AUTOMATION2,3,146,946,fixed_delta,0.04010600706829564,0.013286393218712247,,,,,0.5323398911014889,1916,1684,1,0.65,BLACK,BLACK,True,0,0.0013999997463542968,BLACK,True,CORRECT,0.687941400001364,687.941400001364
2,20260325_120617,D,J,False,AUTOMATION2,3,147,947,fixed_delta,0.04010600706829564,0.013286393218712247,,,,,0.44143235022082267,1589,2011,1,0.65,WHITE,BLACK,False,0,0.001999998858082108,WHITE,True,CORRECT,0.656343000000561,656.343000000561
2,20260325_120617,D,J,False,AUTOMATION2,3,148,948,fixed_delta,0.04010600706829564,0.013286393218712247,,,,,0.5307908230384497,1911,1689,1,0.65,BLACK,BLACK,True,0,0.0018000009731622413,BLACK,True,CORRECT,2.54484070000035,2544.84070000035
2,20260325_120617,D,J,False,AUTOMATION2,3,149,949,fixed_delta,0.04010600706829564,0.013286393218712247,,,,,0.5459191293470419,1965,1635,1,0.65,BLACK,BLACK,True,0,0.0013000008038943633,WHITE,False,INCORRECT,1.1977437000005011,1197.7437000005011
2,20260325_120617,D,J,False,AUTOMATION2,3,150,950,fixed_delta,0.04010600706829564,0.013286393218712247,,,,,0.5561677340828677,2002,1598,1,0.65,BLACK,BLACK,True,0,0.0013999997463542968,BLACK,True,CORRECT,0.8681020000003628,868.1020000003628
2,20260325_120617,D,J,False,AUTOMATION2,3,151,951,fixed_delta,0.04010600706829564,0.013286393218712247,,,,,0.46479692965784086,1673,1927,1,0.65,WHITE,BLACK,False,0,0.0016000012692529708,WHITE,True,CORRECT,0.7569350000012491,756.9350000012491
2,20260325_120617,D,J,False,AUTOMATION2,3,152,952,fixed_delta,0.04010600706829564,0.013286393218712247,,,,,0.473736898428399,1705,1895,1,0.65,WHITE,BLACK,False,0,0.0018000009731622413,BLACK,False,INCORRECT,1.2186292999995203,1218.6292999995203
2,20260325_120617,D,J,False,AUTOMATION2,3,153,953,fixed_delta,0.04010600706829564,0.013286393218712247,,,,,0.5335035659566101,1921,1679,1,0.65,BLACK,BLACK,True,0,0.0012999989849049598,BLACK,True,CORRECT,0.8775527999987389,877.5527999987389
2,20260325_120617,D,J,False,AUTOMATION2,3,154,954,fixed_delta,0.04010600706829564,0.013286393218712247,,,,,0.5302261041463373,1909,1691,1,0.65,BLACK,BLACK,True,0,0.0018000009731622413,BLACK,True,CORRECT,0.5451912000007724,545.1912000007724
2,20260325_120617,D,J,False,AUTOMATION2,3,155,955,fixed_delta,0.04010600706829564,0.013286393218712247,,,,,0.5496647491292627,1979,1621,1,0.65,BLACK,WHITE,False,0,0.0013999997463542968,BLACK,True,CORRECT,0.8819315999990067,881.9315999990067
2,20260325_120617,D,J,False,AUTOMATION2,3,156,956,fixed_delta,0.04010600706829564,0.013286393218712247,,,,,0.47012116242055074,1692,1908,1,0.65,WHITE,WHITE,True,0,0.0013999997463542968,WHITE,True,CORRECT,0.6298989000006259,629.8989000006259
2,20260325_120617,D,J,False,AUTOMATION2,3,157,957,fixed_delta,0.04010600706829564,0.013286393218712247,,,,,0.5447342548386214,1961,1639,1,0.65,BLACK,BLACK,True,0,0.0015999994502635673,BLACK,True,CORRECT,0.7823566999995819,782.3566999995819
2,20260325_120617,D,J,False,AUTOMATION2,3,158,958,fixed_delta,0.04010600706829564,0.013286393218712247,,,,,0.4754176327287067,1712,1888,1,0.65,WHITE,BLACK,False,0,0.0015000005078036338,WHITE,True,CORRECT,1.3283783000006224,1328.3783000006224
2,20260325_120617,D,J,False,AUTOMATION2,3,159,959,fixed_delta,0.04010600706829564,0.013286393218712247,,,,,0.4583477642433145,1650,1950,1,0.65,WHITE,BLACK,False,0,0.0015000005078036338,WHITE,True,CORRECT,0.568505000001096,568.505000001096
2,20260325_120617,D,J,False,AUTOMATION2,3,160,960,fixed_delta,0.04010600706829564,0.013286393218712247,,,,,0.560856451659483,2019,1581,1,0.65,BLACK,BLACK,True,0,0.0013999997463542968,BLACK,True,CORRECT,0.4977698999991844,497.7698999991844
2,20260325_120617,D,J,False,AUTOMATION2,3,161,961,fixed_delta,0.04010600706829564,0.013286393218712247,,,,,0.45294518729479943,1631,1969,1,0.65,WHITE,WHITE,True,0,0.0017000002117129043,WHITE,True,CORRECT,0.616533200000049,616.533200000049
2,20260325_120617,D,J,False,AUTOMATION2,3,162,962,fixed_delta,0.04010600706829564,0.013286393218712247,,,,,0.5429523765518769,1955,1645,1,0.65,BLACK,BLACK,True,0,0.0017000002117129043,BLACK,True,CORRECT,1.2746252000015375,1274.6252000015375
2,20260325_120617,D,J,False,AUTOMATION2,3,163,963,fixed_delta,0.04010600706829564,0.013286393218712247,,,,,0.45543542591193653,1640,1960,1,0.65,WHITE,BLACK,False,0,0.0014000015653437003,WHITE,True,CORRECT,0.6219527000012022,621.9527000012022
2,20260325_120617,D,J,False,AUTOMATION2,3,164,964,fixed_delta,0.04010600706829564,0.013286393218712247,,,,,0.4514122854598387,1625,1975,1,0.65,WHITE,BLACK,False,0,0.0013999997463542968,WHITE,True,CORRECT,0.573932600000262,573.932600000262
2,20260325_120617,D,J,False,AUTOMATION2,3,165,965,fixed_delta,0.04010600706829564,0.013286393218712247,,,,,0.46268103681210926,1666,1934,1,0.65,WHITE,WHITE,True,0,0.0015000005078036338,WHITE,True,CORRECT,0.574725500000568,574.725500000568
2,20260325_120617,D,J,False,AUTOMATION2,3,166,966,fixed_delta,0.04010600706829564,0.013286393218712247,,,,,0.4625253901597515,1665,1935,1,0.65,WHITE,BLACK,False,0,0.0018000009731622413,WHITE,True,CORRECT,0.7367922000012186,736.7922000012186
2,20260325_120617,D,J,False,AUTOMATION2,3,167,967,fixed_delta,0.04010600706829564,0.013286393218712247,,,,,0.4607191252014622,1659,1941,1,0.65,WHITE,BLACK,False,0,0.0015999994502635673,WHITE,True,CORRECT,0.5695242000001599,569.5242000001599
2,20260325_120617,D,J,False,AUTOMATION2,3,168,968,fixed_delta,0.04010600706829564,0.013286393218712247,,,,,0.5496580099844977,1979,1621,1,0.65,BLACK,WHITE,False,0,0.0016000012692529708,WHITE,False,INCORRECT,0.8832849999998871,883.2849999998871
2,20260325_120617,D,J,False,AUTOMATION2,3,169,969,fixed_delta,0.04010600706829564,0.013286393218712247,,,,,0.5387171426064686,1939,1661,1,0.65,BLACK,BLACK,True,0,0.0015000005078036338,WHITE,False,INCORRECT,0.6759261000006518,675.9261000006518
2,20260325_120617,D,J,False,AUTOMATION2,3,170,970,fixed_delta,0.04010600706829564,0.013286393218712247,,,,,0.4748170792203812,1709,1891,1,0.65,WHITE,WHITE,True,0,0.0013999997463542968,WHITE,True,CORRECT,2.975882000000638,2975.882000000638
2,20260325_120617,D,J,False,AUTOMATION2,3,171,971,fixed_delta,0.04010600706829564,0.013286393218712247,,,,,0.4501123179636895,1620,1980,1,0.65,WHITE,WHITE,True,0,0.0017000002117129043,BLACK,False,INCORRECT,1.0552774999996473,1055.2774999996473
2,20260325_120617,D,J,False,AUTOMATION2,3,172,972,fixed_delta,0.04010600706829564,0.013286393218712247,,,,,0.5559303305965981,2001,1599,1,0.65,BLACK,BLACK,True,0,0.0013999997463542968,BLACK,True,CORRECT,0.7928109999993467,792.8109999993467
2,20260325_120617,D,J,False,AUTOMATION2,3,173,973,fixed_delta,0.04010600706829564,0.013286393218712247,,,,,0.5440848834381015,1959,1641,1,0.65,BLACK,BLACK,True,0,0.0013999997463542968,BLACK,True,CORRECT,1.1532888999990973,1153.2888999990973
2,20260325_120617,D,J,False,AUTOMATION2,3,174,974,fixed_delta,0.04010600706829564,0.013286393218712247,,,,,0.5383485185499016,1938,1662,1,0.65,BLACK,BLACK,True,0,0.0015999994502635673,BLACK,True,CORRECT,1.6040845999996236,1604.0845999996236
2,20260325_120617,D,J,False,AUTOMATION2,3,175,975,fixed_delta,0.04010600706829564,0.013286393218712247,,,,,0.469229297888471,1689,1911,1,0.65,WHITE,WHITE,True,0,0.001999998858082108,WHITE,True,CORRECT,1.578870100000131,1578.870100000131
2,20260325_120617,D,J,False,AUTOMATION2,3,176,976,fixed_delta,0.04010600706829564,0.013286393218712247,,,,,0.4574175518426856,1647,1953,1,0.65,WHITE,WHITE,True,0,0.0015000005078036338,WHITE,True,CORRECT,1.2350418999994872,1235.0418999994872
2,20260325_120617,D,J,False,AUTOMATION2,3,177,977,fixed_delta,0.04010600706829564,0.013286393218712247,,,,,0.4650541747117178,1674,1926,1,0.65,WHITE,WHITE,True,0,0.002200000380980782,WHITE,True,CORRECT,2.115577000000485,2115.577000000485
2,20260325_120617,D,J,False,AUTOMATION2,3,178,978,fixed_delta,0.04010600706829564,0.013286393218712247,,,,,0.5427956782206873,1954,1646,1,0.65,BLACK,BLACK,True,0,0.0017000002117129043,WHITE,False,INCORRECT,1.5639296999997896,1563.9296999997896
2,20260325_120617,D,J,False,AUTOMATION2,3,179,979,fixed_delta,0.04010600706829564,0.013286393218712247,,,,,0.445554450335253,1604,1996,1,0.65,WHITE,BLACK,False,0,0.0015999994502635673,WHITE,True,CORRECT,1.4476703999989695,1447.6703999989695
2,20260325_120617,D,J,False,AUTOMATION2,3,180,980,fixed_delta,0.04010600706829564,0.013286393218712247,,,,,0.430883038380626,1551,2049,1,0.65,WHITE,WHITE,True,0,0.0018999999156221747,WHITE,True,CORRECT,0.7333947999995871,733.3947999995871
2,20260325_120617,D,J,False,AUTOMATION2,3,181,981,fixed_delta,0.04010600706829564,0.013286393218712247,,,,,0.454149047960772,1635,1965,1,0.65,WHITE,BLACK,False,0,0.0018999999156221747,WHITE,True,CORRECT,0.5268224000010377,526.8224000010377
2,20260325_120617,D,J,False,AUTOMATION2,3,182,982,fixed_delta,0.04010600706829564,0.013286393218712247,,,,,0.44156744032538175,1590,2010,1,0.65,WHITE,BLACK,False,0,0.0014999986888142303,WHITE,True,CORRECT,0.4771885999998631,477.1885999998631
2,20260325_120617,D,J,False,AUTOMATION2,3,183,983,fixed_delta,0.04010600706829564,0.013286393218712247,,,,,0.5338838730483457,1922,1678,1,0.65,BLACK,BLACK,True,0,0.0017000002117129043,BLACK,True,CORRECT,1.437821299999996,1437.821299999996
2,20260325_120617,D,J,False,AUTOMATION2,3,184,984,fixed_delta,0.04010600706829564,0.013286393218712247,,,,,0.44843771281448075,1614,1986,1,0.65,WHITE,BLACK,False,0,0.0018999999156221747,WHITE,True,CORRECT,0.5933557999996992,593.3557999996992
2,20260325_120617,D,J,False,AUTOMATION2,3,185,985,fixed_delta,0.04010600706829564,0.013286393218712247,,,,,0.529821168289974,1907,1693,1,0.65,BLACK,BLACK,True,0,0.0012999989849049598,WHITE,False,INCORRECT,0.5287809999990714,528.7809999990714
2,20260325_120617,D,J,False,AUTOMATION2,3,186,986,fixed_delta,0.04010600706829564,0.013286393218712247,,,,,0.5557211617495655,2001,1599,1,0.65,BLACK,BLACK,True,0,0.0015999994502635673,BLACK,True,CORRECT,0.5895973999995476,589.5973999995476
2,20260325_120617,D,J,False,AUTOMATION2,3,187,987,fixed_delta,0.04010600706829564,0.013286393218712247,,,,,0.45220365123483075,1628,1972,1,0.65,WHITE,BLACK,False,0,0.0013999997463542968,WHITE,True,CORRECT,0.4996621000009327,499.6621000009327
2,20260325_120617,D,J,False,AUTOMATION2,3,188,988,fixed_delta,0.04010600706829564,0.013286393218712247,,,,,0.4584321866703386,1650,1950,1,0.65,WHITE,WHITE,True,0,0.0017000002117129043,WHITE,True,CORRECT,0.8272223999993003,827.2223999993003
2,20260325_120617,D,J,False,AUTOMATION2,3,189,989,fixed_delta,0.04010600706829564,0.013286393218712247,,,,,0.5497846926191163,1979,1621,1,0.65,BLACK,WHITE,False,0,0.0018999999156221747,BLACK,True,CORRECT,0.441275900000619,441.275900000619
2,20260325_120617,D,J,False,AUTOMATION2,3,190,990,fixed_delta,0.04010600706829564,0.013286393218712247,,,,,0.4690550547308058,1689,1911,1,0.65,WHITE,BLACK,False,0,0.0017000002117129043,WHITE,True,CORRECT,3.24245080000037,3242.45080000037
2,20260325_120617,D,J,False,AUTOMATION2,3,191,991,fixed_delta,0.04010600706829564,0.013286393218712247,,,,,0.45088854411760954,1623,1977,1,0.65,WHITE,BLACK,False,0,0.0015000005078036338,WHITE,True,CORRECT,2.070621700000629,2070.621700000629
2,20260325_120617,D,J,False,AUTOMATION2,3,192,992,fixed_delta,0.04010600706829564,0.013286393218712247,,,,,0.46748544992333363,1683,1917,1,0.65,WHITE,WHITE,True,0,0.0015999994502635673,WHITE,True,CORRECT,0.600971899999422,600.971899999422
2,20260325_120617,D,J,False,AUTOMATION2,3,193,993,fixed_delta,0.04010600706829564,0.013286393218712247,,,,,0.5594038821411338,2014,1586,1,0.65,BLACK,BLACK,True,0,0.0020000006770715117,BLACK,True,CORRECT,0.5237342000000353,523.7342000000353
2,20260325_120617,D,J,False,AUTOMATION2,3,194,994,fixed_delta,0.04010600706829564,0.013286393218712247,,,,,0.5405627694006712,1946,1654,1,0.65,BLACK,BLACK,True,0,0.0016000012692529708,BLACK,True,CORRECT,0.745406500000172,745.406500000172
2,20260325_120617,D,J,False,AUTOMATION2,3,195,995,fixed_delta,0.04010600706829564,0.013286393218712247,,,,,0.4584843976489114,1651,1949,1,0.65,WHITE,WHITE,True,0,0.0020000006770715117,WHITE,True,CORRECT,0.7541531000006216,754.1531000006216
2,20260325_120617,D,J,False,AUTOMATION2,3,196,996,fixed_delta,0.04010600706829564,0.013286393218712247,,,,,0.5388580470351935,1940,1660,1,0.65,BLACK,BLACK,True,0,0.0018999999156221747,WHITE,False,INCORRECT,0.5950783999996929,595.0783999996929
2,20260325_120617,D,J,False,AUTOMATION2,3,197,997,fixed_delta,0.04010600706829564,0.013286393218712247,,,,,0.4771073946218282,1718,1882,1,0.65,WHITE,WHITE,True,0,0.0015000005078036338,WHITE,True,CORRECT,4.144744000001083,4144.744000001083
2,20260325_120617,D,J,False,AUTOMATION2,3,198,998,fixed_delta,0.04010600706829564,0.013286393218712247,,,,,0.4318124987929292,1555,2045,1,0.65,WHITE,BLACK,False,0,0.0015999994502635673,WHITE,True,CORRECT,0.8811086999994586,881.1086999994586
2,20260325_120617,D,J,False,AUTOMATION2,3,199,999,fixed_delta,0.04010600706829564,0.013286393218712247,,,,,0.44775126521048014,1612,1988,1,0.65,WHITE,WHITE,True,0,0.0014999986888142303,WHITE,True,CORRECT,1.7368878999986919,1736.8878999986919
2,20260325_120617,D,J,False,AUTOMATION2,3,200,1000,fixed_delta,0.04010600706829564,0.013286393218712247,,,,,0.4325816554301978,1557,2043,1,0.65,WHITE,WHITE,True,0,0.0015000005078036338,WHITE,True,CORRECT,0.578668000000107,578.668000000107
2,20260325_120617,D,J,False,AUTOMATION2,3,201,1001,fixed_delta,0.04010600706829564,0.013286393218712247,,,,,0.4421657078179349,1592,2008,1,0.65,WHITE,BLACK,False,0,0.0017000002117129043,WHITE,True,CORRECT,0.764758700001039,764.758700001039
2,20260325_120617,D,J,False,AUTOMATION2,3,202,1002,fixed_delta,0.04010600706829564,0.013286393218712247,,,,,0.46712459068513984,1682,1918,1,0.65,WHITE,WHITE,True,0,0.0018999999156221747,WHITE,True,CORRECT,1.0213622999999643,1021.3622999999643
2,20260325_120617,D,J,False,AUTOMATION2,3,203,1003,fixed_delta,0.04010600706829564,0.013286393218712247,,,,,0.5207983579412745,1875,1725,1,0.65,BLACK,BLACK,True,0,0.002099999619531445,BLACK,True,CORRECT,0.4775840000002063,477.5840000002063
2,20260325_120617,D,J,False,AUTOMATION2,3,204,1004,fixed_delta,0.04010600706829564,0.013286393218712247,,,,,0.56159087492062,2022,1578,1,0.65,BLACK,WHITE,False,0,0.0017999991541728377,BLACK,True,CORRECT,1.0447284999991098,1044.7284999991098
2,20260325_120617,D,J,False,AUTOMATION2,3,205,1005,fixed_delta,0.04010600706829564,0.013286393218712247,,,,,0.5411178246033198,1948,1652,1,0.65,BLACK,WHITE,False,0,0.0014999986888142303,WHITE,False,INCORRECT,0.9820112999987032,982.0112999987032
2,20260325_120617,D,J,False,AUTOMATION2,3,206,1006,fixed_delta,0.04010600706829564,0.013286393218712247,,,,,0.5625251955499225,2025,1575,1,0.65,BLACK,BLACK,True,0,0.0017000002117129043,BLACK,True,CORRECT,0.5891148999999132,589.1148999999132
2,20260325_120617,D,J,False,AUTOMATION2,3,207,1007,fixed_delta,0.04010600706829564,0.013286393218712247,,,,,0.45293222740464956,1631,1969,1,0.65,WHITE,BLACK,False,0,0.0017999991541728377,WHITE,True,CORRECT,0.6651858999994147,665.1858999994147
2,20260325_120617,D,J,False,AUTOMATION2,3,208,1008,fixed_delta,0.04010600706829564,0.013286393218712247,,,,,0.45125142742750024,1625,1975,1,0.65,WHITE,WHITE,True,0,0.0017999991541728377,WHITE,True,CORRECT,0.6622926000000007,662.2926000000007
2,20260325_120617,D,J,False,AUTOMATION2,3,209,1009,fixed_delta,0.04010600706829564,0.013286393218712247,,,,,0.542849175431966,1954,1646,1,0.65,BLACK,WHITE,False,0,0.0014999986888142303,BLACK,True,CORRECT,0.6997372999994695,699.7372999994695
2,20260325_120617,D,J,False,AUTOMATION2,3,210,1010,fixed_delta,0.04010600706829564,0.013286393218712247,,,,,0.4651475712137487,1675,1925,1,0.65,WHITE,WHITE,True,0,0.0013999997463542968,WHITE,True,CORRECT,0.7806822000002285,780.6822000002285
2,20260325_120617,D,J,False,AUTOMATION2,3,211,1011,fixed_delta,0.04010600706829564,0.013286393218712247,,,,,0.4569421513826691,1645,1955,1,0.65,WHITE,WHITE,True,0,0.0013999997463542968,WHITE,True,CORRECT,0.7927201000002242,792.7201000002242
2,20260325_120617,D,J,False,AUTOMATION2,3,212,1012,fixed_delta,0.04010600706829564,0.013286393218712247,,,,,0.45101004059814753,1624,1976,1,0.65,WHITE,WHITE,True,0,0.0013999997463542968,WHITE,True,CORRECT,0.5333633000009286,533.3633000009286
2,20260325_120617,D,J,False,AUTOMATION2,3,213,1013,fixed_delta,0.04010600706829564,0.013286393218712247,,,,,0.5305499435300587,1910,1690,1,0.65,BLACK,BLACK,True,0,0.0018000009731622413,BLACK,True,CORRECT,0.512523000001238,512.523000001238
2,20260325_120617,D,J,False,AUTOMATION2,3,214,1014,fixed_delta,0.04010600706829564,0.013286393218712247,,,,,0.5431745411629244,1955,1645,1,0.65,BLACK,WHITE,False,0,0.0018999999156221747,WHITE,False,INCORRECT,0.7189537999984168,718.9537999984168
2,20260325_120617,D,J,False,AUTOMATION2,3,215,1015,fixed_delta,0.04010600706829564,0.013286393218712247,,,,,0.46993469558060125,1692,1908,1,0.65,WHITE,WHITE,True,0,0.0013000008038943633,WHITE,True,CORRECT,0.6599763000012899,659.9763000012899
2,20260325_120617,D,J,False,AUTOMATION2,3,216,1016,fixed_delta,0.04010600706829564,0.013286393218712247,,,,,0.5416394205660462,1950,1650,1,0.65,BLACK,BLACK,True,0,0.0024000000848900527,BLACK,True,CORRECT,0.7502710999997362,750.2710999997362
2,20260325_120617,D,J,False,AUTOMATION2,3,217,1017,fixed_delta,0.04010600706829564,0.013286393218712247,,,,,0.5373572885998307,1934,1666,1,0.65,BLACK,WHITE,False,0,0.0014000015653437003,BLACK,True,CORRECT,0.9715269000007538,971.5269000007538
2,20260325_120617,D,J,False,AUTOMATION2,3,218,1018,fixed_delta,0.04010600706829564,0.013286393218712247,,,,,0.4414313017743401,1589,2011,1,0.65,WHITE,WHITE,True,0,0.0010999992809956893,WHITE,True,CORRECT,0.662727699998868,662.727699998868
2,20260325_120617,D,J,False,AUTOMATION2,3,219,1019,fixed_delta,0.04010600706829564,0.013286393218712247,,,,,0.5291781634238487,1905,1695,1,0.65,BLACK,WHITE,False,0,0.0013000008038943633,WHITE,False,INCORRECT,0.7371190000012575,737.1190000012575
2,20260325_120617,D,J,False,AUTOMATION2,3,220,1020,fixed_delta,0.04010600706829564,0.013286393218712247,,,,,0.4458598583159101,1605,1995,1,0.65,WHITE,WHITE,True,0,0.0013999997463542968,WHITE,True,CORRECT,0.977236400000038,977.236400000038
2,20260325_120617,D,J,False,AUTOMATION2,3,221,1021,fixed_delta,0.04010600706829564,0.013286393218712247,,,,,0.5282150355039402,1902,1698,1,0.65,BLACK,WHITE,False,0,0.0017999991541728377,BLACK,True,CORRECT,0.4332391000007192,433.2391000007192
2,20260325_120617,D,J,False,AUTOMATION2,3,222,1022,fixed_delta,0.04010600706829564,0.013286393218712247,,,,,0.5560073793150928,2002,1598,1,0.65,BLACK,BLACK,True,0,0.0013999997463542968,BLACK,True,CORRECT,0.5459733999996388,545.9733999996388
2,20260325_120617,D,J,False,AUTOMATION2,3,223,1023,fixed_delta,0.04010600706829564,0.013286393218712247,,,,,0.5231621744924039,1883,1717,1,0.65,BLACK,WHITE,False,0,0.0016000012692529708,BLACK,True,CORRECT,1.6618463000013435,1661.8463000013435
2,20260325_120617,D,J,False,AUTOMATION2,3,224,1024,fixed_delta,0.04010600706829564,0.013286393218712247,,,,,0.5560621497646209,2002,1598,1,0.65,BLACK,BLACK,True,0,0.0020000006770715117,BLACK,True,CORRECT,1.079691200000525,1079.691200000525
2,20260325_120617,D,J,False,AUTOMATION2,3,225,1025,fixed_delta,0.04010600706829564,0.013286393218712247,,,,,0.45529803919472434,1639,1961,1,0.65,WHITE,WHITE,True,0,0.0013000008038943633,WHITE,True,CORRECT,0.5960226000006514,596.0226000006514
2,20260325_120617,D,J,False,AUTOMATION2,3,226,1026,fixed_delta,0.04010600706829564,0.013286393218712247,,,,,0.45496059641911957,1638,1962,1,0.65,WHITE,WHITE,True,0,0.0012999989849049598,WHITE,True,CORRECT,0.6948362999992241,694.8362999992241
2,20260325_120617,D,J,False,AUTOMATION2,3,227,1027,fixed_delta,0.04010600706829564,0.013286393218712247,,,,,0.5260310392252078,1894,1706,1,0.65,BLACK,WHITE,False,0,0.0016000012692529708,BLACK,True,CORRECT,0.9280825000005279,928.082500000528
2,20260325_120617,D,J,False,AUTOMATION2,3,228,1028,fixed_delta,0.04010600706829564,0.013286393218712247,,,,,0.47559751541798856,1712,1888,1,0.65,WHITE,WHITE,True,0,0.0013999997463542968,BLACK,False,INCORRECT,0.676232700001492,676.232700001492
2,20260325_120617,D,J,False,AUTOMATION2,3,229,1029,fixed_delta,0.04010600706829564,0.013286393218712247,,,,,0.4652843806057517,1675,1925,1,0.65,WHITE,WHITE,True,0,0.0015000005078036338,WHITE,True,CORRECT,0.5847720000001573,584.7720000001573
2,20260325_120617,D,J,False,AUTOMATION2,3,230,1030,fixed_delta,0.04010600706829564,0.013286393218712247,,,,,0.4818238340795728,1735,1865,1,0.65,WHITE,WHITE,True,0,0.0017999991541728377,WHITE,True,CORRECT,0.6759363999990455,675.9363999990455
2,20260325_120617,D,J,False,AUTOMATION2,3,231,1031,fixed_delta,0.04010600706829564,0.013286393218712247,,,,,0.5524663932184248,1989,1611,1,0.65,BLACK,WHITE,False,0,0.0013999997463542968,BLACK,True,CORRECT,0.5704915999995137,570.4915999995137
2,20260325_120617,D,J,False,AUTOMATION2,3,232,1032,fixed_delta,0.04010600706829564,0.013286393218712247,,,,,0.5343315940224651,1924,1676,1,0.65,BLACK,WHITE,False,0,0.0018999999156221747,BLACK,True,CORRECT,0.9068019999995158,906.8019999995158
2,20260325_120617,D,J,False,AUTOMATION2,3,233,1033,fixed_delta,0.04010600706829564,0.013286393218712247,,,,,0.5425770253105504,1953,1647,1,0.65,BLACK,BLACK,True,0,0.0017000002117129043,BLACK,True,CORRECT,0.7701772000000346,770.1772000000346
2,20260325_120617,D,J,False,AUTOMATION2,3,234,1034,fixed_delta,0.04010600706829564,0.013286393218712247,,,,,0.542203719190042,1952,1648,1,0.65,BLACK,WHITE,False,0,0.0017999991541728377,BLACK,True,CORRECT,0.7054023999990022,705.4023999990022
2,20260325_120617,D,J,False,AUTOMATION2,3,235,1035,fixed_delta,0.04010600706829564,0.013286393218712247,,,,,0.4647401576446684,1673,1927,1,0.65,WHITE,WHITE,True,0,0.0015000005078036338,WHITE,True,CORRECT,0.7077836999997089,707.7836999997089
2,20260325_120617,D,J,False,AUTOMATION2,3,236,1036,fixed_delta,0.04010600706829564,0.013286393218712247,,,,,0.47087473669154356,1695,1905,1,0.65,WHITE,WHITE,True,0,0.0015999994502635673,BLACK,False,INCORRECT,0.7303226999993058,730.3226999993058
2,20260325_120617,D,J,False,AUTOMATION2,3,237,1037,fixed_delta,0.04010600706829564,0.013286393218712247,,,,,0.4823118797575386,1736,1864,1,0.65,WHITE,BLACK,False,0,0.0021000014385208488,WHITE,True,CORRECT,1.197416000000885,1197.416000000885
2,20260325_120617,D,J,False,AUTOMATION2,3,238,1038,fixed_delta,0.04010600706829564,0.013286393218712247,,,,,0.4654796285851327,1676,1924,1,0.65,WHITE,BLACK,False,0,0.0017000002117129043,WHITE,True,CORRECT,0.9087966999995842,908.7966999995842
2,20260325_120617,D,J,False,AUTOMATION2,3,239,1039,fixed_delta,0.04010600706829564,0.013286393218712247,,,,,0.5372864946309862,1934,1666,1,0.65,BLACK,WHITE,False,0,0.0014999986888142303,BLACK,True,CORRECT,0.8048241999986203,804.8241999986203
2,20260325_120617,D,J,False,AUTOMATION2,3,240,1040,fixed_delta,0.04010600706829564,0.013286393218712247,,,,,0.5269851210345492,1897,1703,1,0.65,BLACK,WHITE,False,0,0.0013999997463542968,BLACK,True,CORRECT,0.822236799998791,822.236799998791
2,20260325_120617,D,J,False,AUTOMATION2,3,241,1041,fixed_delta,0.04010600706829564,0.013286393218712247,,,,,0.543521847701444,1957,1643,1,0.65,BLACK,BLACK,True,0,0.0017999991541728377,BLACK,True,CORRECT,0.6064203999994788,606.4203999994788
2,20260325_120617,D,J,False,AUTOMATION2,3,242,1042,fixed_delta,0.04010600706829564,0.013286393218712247,,,,,0.4317889334047794,1554,2046,1,0.65,WHITE,BLACK,False,0,0.002200000380980782,WHITE,True,CORRECT,0.6624713000001066,662.4713000001066
2,20260325_120617,D,J,False,AUTOMATION2,3,243,1043,fixed_delta,0.04010600706829564,0.013286393218712247,,,,,0.5503889936282805,1981,1619,1,0.65,BLACK,WHITE,False,0,0.002200000380980782,BLACK,True,CORRECT,0.603391399999964,603.391399999964
2,20260325_120617,D,J,False,AUTOMATION2,3,244,1044,fixed_delta,0.04010600706829564,0.013286393218712247,,,,,0.4625585631902814,1665,1935,1,0.65,WHITE,BLACK,False,0,0.0016999983927235007,WHITE,True,CORRECT,1.1053893999996944,1105.3893999996944
2,20260325_120617,D,J,False,AUTOMATION2,3,245,1045,fixed_delta,0.04010600706829564,0.013286393218712247,,,,,0.4608726575097784,1659,1941,1,0.65,WHITE,BLACK,False,0,0.0015000005078036338,WHITE,True,CORRECT,0.5913099000008515,591.3099000008515
2,20260325_120617,D,J,False,AUTOMATION2,3,246,1046,fixed_delta,0.04010600706829564,0.013286393218712247,,,,,0.542584622785608,1953,1647,1,0.65,BLACK,BLACK,True,0,0.0015000005078036338,BLACK,True,CORRECT,0.5142792000006011,514.2792000006011
2,20260325_120617,D,J,False,AUTOMATION2,3,247,1047,fixed_delta,0.04010600706829564,0.013286393218712247,,,,,0.5233461962936501,1884,1716,1,0.65,BLACK,BLACK,True,0,0.0015999994502635673,BLACK,True,CORRECT,0.5320780999991257,532.0780999991257
2,20260325_120617,D,J,False,AUTOMATION2,3,248,1048,fixed_delta,0.04010600706829564,0.013286393218712247,,,,,0.5235057619726258,1885,1715,1,0.65,BLACK,WHITE,False,0,0.0018999999156221747,BLACK,True,CORRECT,1.2715516999996908,1271.5516999996908
2,20260325_120617,D,J,False,AUTOMATION2,3,249,1049,fixed_delta,0.04010600706829564,0.013286393218712247,,,,,0.4373958012739372,1575,2025,1,0.65,WHITE,BLACK,False,0,0.0014999986888142303,BLACK,False,INCORRECT,0.8605251999997563,860.5251999997563
2,20260325_120617,D,J,False,AUTOMATION2,3,250,1050,fixed_delta,0.04010600706829564,0.013286393218712247,,,,,0.47127682847864194,1697,1903,1,0.65,WHITE,WHITE,True,0,0.0015999994502635673,WHITE,True,CORRECT,0.6349900999994134,634.9900999994134
2,20260325_120617,D,J,False,AUTOMATION2,3,251,1051,fixed_delta,0.04010600706829564,0.013286393218712247,,,,,0.5399590093010812,1944,1656,1,0.65,BLACK,BLACK,True,0,0.0012000000424450263,BLACK,True,CORRECT,0.6198243999988335,619.8243999988335
2,20260325_120617,D,J,False,AUTOMATION2,3,252,1052,fixed_delta,0.04010600706829564,0.013286393218712247,,,,,0.5335820610638481,1921,1679,1,0.65,BLACK,BLACK,True,0,0.0013999997463542968,BLACK,True,CORRECT,0.7496121999993193,749.6121999993193
2,20260325_120617,D,J,False,AUTOMATION2,3,253,1053,fixed_delta,0.04010600706829564,0.013286393218712247,,,,,0.46873015018298436,1687,1913,1,0.65,WHITE,BLACK,False,0,0.0015999994502635673,BLACK,False,INCORRECT,0.5738426999996591,573.8426999996591
2,20260325_120617,D,J,False,AUTOMATION2,3,254,1054,fixed_delta,0.04010600706829564,0.013286393218712247,,,,,0.48816240631880536,1757,1843,1,0.65,WHITE,WHITE,True,0,0.0013999997463542968,BLACK,False,INCORRECT,0.8329028999996808,832.9028999996808
2,20260325_120617,D,J,False,AUTOMATION2,3,255,1055,fixed_delta,0.04010600706829564,0.013286393218712247,,,,,0.44857632015234505,1615,1985,1,0.65,WHITE,WHITE,True,0,0.0016000012692529708,WHITE,True,CORRECT,0.5461542000011832,546.1542000011832
2,20260325_120617,D,J,False,AUTOMATION2,3,256,1056,fixed_delta,0.04010600706829564,0.013286393218712247,,,,,0.4418977727361778,1591,2009,1,0.65,WHITE,BLACK,False,0,0.0016000012692529708,WHITE,True,CORRECT,0.4718162000008306,471.8162000008306
2,20260325_120617,D,J,False,AUTOMATION2,3,257,1057,fixed_delta,0.04010600706829564,0.013286393218712247,,,,,0.5416881609914111,1950,1650,1,0.65,BLACK,BLACK,True,0,0.0012999989849049598,BLACK,True,CORRECT,0.5549786999999924,554.9786999999924
2,20260325_120617,D,J,False,AUTOMATION2,3,258,1058,fixed_delta,0.04010600706829564,0.013286393218712247,,,,,0.5359981963985581,1930,1670,1,0.65,BLACK,BLACK,True,0,0.0015000005078036338,BLACK,True,CORRECT,0.593457999999373,593.457999999373
2,20260325_120617,D,J,False,AUTOMATION2,3,259,1059,fixed_delta,0.04010600706829564,0.013286393218712247,,,,,0.4682034710105727,1686,1914,1,0.65,WHITE,BLACK,False,0,0.0020000006770715117,WHITE,True,CORRECT,0.4858851000008144,485.8851000008144
2,20260325_120617,D,J,False,AUTOMATION2,3,260,1060,fixed_delta,0.04010600706829564,0.013286393218712247,,,,,0.5707458911028563,2055,1545,1,0.65,BLACK,WHITE,False,0,0.0017000002117129043,BLACK,True,CORRECT,1.4930242000009457,1493.0242000009457
2,20260325_120617,D,J,False,AUTOMATION2,3,261,1061,fixed_delta,0.04010600706829564,0.013286393218712247,,,,,0.4622337000827871,1664,1936,1,0.65,WHITE,WHITE,True,0,0.0015000005078036338,BLACK,False,INCORRECT,0.8249878999995417,824.9878999995417
2,20260325_120617,D,J,False,AUTOMATION2,3,262,1062,fixed_delta,0.04010600706829564,0.013286393218712247,,,,,0.554741331327837,1997,1603,1,0.65,BLACK,BLACK,True,0,0.0017000002117129043,WHITE,False,INCORRECT,0.8021610000014334,802.1610000014334
2,20260325_120617,D,J,False,AUTOMATION2,3,263,1063,fixed_delta,0.04010600706829564,0.013286393218712247,,,,,0.4683117273050346,1686,1914,1,0.65,WHITE,WHITE,True,0,0.0017000002117129043,WHITE,True,CORRECT,2.4745975000005274,2474.5975000005274
2,20260325_120617,D,J,False,AUTOMATION2,3,264,1064,fixed_delta,0.04010600706829564,0.013286393218712247,,,,,0.5410132078607808,1948,1652,1,0.65,BLACK,BLACK,True,0,0.0022999993234407157,BLACK,True,CORRECT,0.8809494999986782,880.9494999986782
2,20260325_120617,D,J,False,AUTOMATION2,3,265,1065,fixed_delta,0.04010600706829564,0.013286393218712247,,,,,0.5396350186123281,1943,1657,1,0.65,BLACK,WHITE,False,0,0.0016000012692529708,BLACK,True,CORRECT,1.2951514000014868,1295.1514000014868
2,20260325_120617,D,J,False,AUTOMATION2,3,266,1066,fixed_delta,0.04010600706829564,0.013286393218712247,,,,,0.4521914998045839,1628,1972,1,0.65,WHITE,WHITE,True,0,0.0020000006770715117,WHITE,True,CORRECT,0.5908862000014778,590.8862000014778
2,20260325_120617,D,J,False,AUTOMATION2,3,267,1067,fixed_delta,0.04010600706829564,0.013286393218712247,,,,,0.5464773111068136,1967,1633,1,0.65,BLACK,BLACK,True,0,0.0018999999156221747,WHITE,False,INCORRECT,2.627174400000513,2627.174400000513
2,20260325_120617,D,J,False,AUTOMATION2,3,268,1068,fixed_delta,0.04010600706829564,0.013286393218712247,,,,,0.534085327710504,1923,1677,1,0.65,BLACK,BLACK,True,0,0.0015999994502635673,BLACK,True,CORRECT,1.8856584999994084,1885.6584999994084
2,20260325_120617,D,J,False,AUTOMATION2,3,269,1069,fixed_delta,0.04010600706829564,0.013286393218712247,,,,,0.4673014446557426,1682,1918,1,0.65,WHITE,BLACK,False,0,0.0015999994502635673,WHITE,True,CORRECT,0.871025099999315,871.025099999315
2,20260325_120617,D,J,False,AUTOMATION2,3,270,1070,fixed_delta,0.04010600706829564,0.013286393218712247,,,,,0.4667974184867052,1680,1920,1,0.65,WHITE,BLACK,False,0,0.0015000005078036338,WHITE,True,CORRECT,0.5095142000009218,509.51420000092185
2,20260325_120617,D,J,False,AUTOMATION2,3,271,1071,fixed_delta,0.04010600706829564,0.013286393218712247,,,,,0.528944811101526,1904,1696,1,0.65,BLACK,BLACK,True,0,0.0013000008038943633,BLACK,True,CORRECT,0.5628943000010622,562.8943000010622
2,20260325_120617,D,J,False,AUTOMATION2,3,272,1072,fixed_delta,0.04010600706829564,0.013286393218712247,,,,,0.5429802024258561,1955,1645,1,0.65,BLACK,WHITE,False,0,0.0015999994502635673,WHITE,False,INCORRECT,0.6603170999987924,660.3170999987924
2,20260325_120617,D,J,False,AUTOMATION2,3,273,1073,fixed_delta,0.04010600706829564,0.013286393218712247,,,,,0.4669106099188779,1681,1919,1,0.65,WHITE,WHITE,True,0,0.0015000005078036338,WHITE,True,CORRECT,0.6152208999992581,615.2208999992581
2,20260325_120617,D,J,False,AUTOMATION2,3,274,1074,fixed_delta,0.04010600706829564,0.013286393218712247,,,,,0.539360958114514,1942,1658,1,0.65,BLACK,BLACK,True,0,0.0014000015653437003,BLACK,True,CORRECT,1.090683500000523,1090.683500000523
2,20260325_120617,D,J,False,AUTOMATION2,3,275,1075,fixed_delta,0.04010600706829564,0.013286393218712247,,,,,0.5303192561968516,1909,1691,1,0.65,BLACK,WHITE,False,0,0.0018999999156221747,WHITE,False,INCORRECT,0.7259343000005174,725.9343000005174
2,20260325_120617,D,J,False,AUTOMATION2,3,276,1076,fixed_delta,0.04010600706829564,0.013286393218712247,,,,,0.5343060159846319,1924,1676,1,0.65,BLACK,BLACK,True,0,0.0016000012692529708,BLACK,True,CORRECT,0.6771265000006679,677.1265000006679
2,20260325_120617,D,J,False,AUTOMATION2,3,277,1077,fixed_delta,0.04010600706829564,0.013286393218712247,,,,,0.5478940121930927,1972,1628,1,0.65,BLACK,BLACK,True,0,0.0015999994502635673,BLACK,True,CORRECT,0.5031054999999469,503.1054999999469
2,20260325_120617,D,J,False,AUTOMATION2,3,278,1078,fixed_delta,0.04010600706829564,0.013286393218712247,,,,,0.5221539895419197,1880,1720,1,0.65,BLACK,WHITE,False,0,0.0015000005078036338,BLACK,True,CORRECT,0.6083534999997937,608.3534999997937
2,20260325_120617,D,J,False,AUTOMATION2,3,279,1079,fixed_delta,0.04010600706829564,0.013286393218712247,,,,,0.4584963868724322,1651,1949,1,0.65,WHITE,WHITE,True,0,0.0015999994502635673,BLACK,False,INCORRECT,0.7221582000001945,722.1582000001945
2,20260325_120617,D,J,False,AUTOMATION2,3,280,1080,fixed_delta,0.04010600706829564,0.013286393218712247,,,,,0.5330654575151171,1919,1681,1,0.65,BLACK,BLACK,True,0,0.0024000000848900527,BLACK,True,CORRECT,0.6350803000004817,635.0803000004817
2,20260325_120617,D,J,False,AUTOMATION2,3,281,1081,fixed_delta,0.04010600706829564,0.013286393218712247,,,,,0.45630538754804767,1643,1957,1,0.65,WHITE,WHITE,True,0,0.0015000005078036338,WHITE,True,CORRECT,0.6071213000013813,607.1213000013813
2,20260325_120617,D,J,False,AUTOMATION2,3,282,1082,fixed_delta,0.04010600706829564,0.013286393218712247,,,,,0.5439223433610476,1958,1642,1,0.65,BLACK,BLACK,True,0,0.0015000005078036338,BLACK,True,CORRECT,0.602425500001118,602.425500001118
2,20260325_120617,D,J,False,AUTOMATION2,3,283,1083,fixed_delta,0.04010600706829564,0.013286393218712247,,,,,0.4785357818126247,1723,1877,1,0.65,WHITE,BLACK,False,0,0.0018000009731622413,WHITE,True,CORRECT,1.375722600001609,1375.722600001609
2,20260325_120617,D,J,False,AUTOMATION2,3,284,1084,fixed_delta,0.04010600706829564,0.013286393218712247,,,,,0.4617148823940886,1662,1938,1,0.65,WHITE,BLACK,False,0,0.0015000005078036338,WHITE,True,CORRECT,0.5818859999999404,581.8859999999404
2,20260325_120617,D,J,False,AUTOMATION2,3,285,1085,fixed_delta,0.04010600706829564,0.013286393218712247,,,,,0.5332985536546927,1920,1680,1,0.65,BLACK,BLACK,True,0,0.0014999986888142303,BLACK,True,CORRECT,0.53180489999977,531.80489999977
2,20260325_120617,D,J,False,AUTOMATION2,3,286,1086,fixed_delta,0.04010600706829564,0.013286393218712247,,,,,0.5566107989660624,2004,1596,1,0.65,BLACK,BLACK,True,0,0.001999998858082108,BLACK,True,CORRECT,1.4196388999989722,1419.6388999989722
2,20260325_120617,D,J,False,AUTOMATION2,3,287,1087,fixed_delta,0.04010600706829564,0.013286393218712247,,,,,0.448457223427632,1614,1986,1,0.65,WHITE,WHITE,True,0,0.0018000009731622413,WHITE,True,CORRECT,0.8341560999997455,834.1560999997455
2,20260325_120617,D,J,False,AUTOMATION2,3,288,1088,fixed_delta,0.04010600706829564,0.013286393218712247,,,,,0.4669410962569009,1681,1919,1,0.65,WHITE,WHITE,True,0,0.0015000005078036338,WHITE,True,CORRECT,0.7261047000010876,726.1047000010876
2,20260325_120617,D,J,False,AUTOMATION2,3,289,1089,fixed_delta,0.04010600706829564,0.013286393218712247,,,,,0.44785077073917373,1612,1988,1,0.65,WHITE,WHITE,True,0,0.0013999997463542968,WHITE,True,CORRECT,0.49946449999879405,499.46449999879405
2,20260325_120617,D,J,False,AUTOMATION2,3,290,1090,fixed_delta,0.04010600706829564,0.013286393218712247,,,,,0.4648735414357525,1674,1926,1,0.65,WHITE,BLACK,False,0,0.0017999991541728377,WHITE,True,CORRECT,1.194559699999445,1194.559699999445
2,20260325_120617,D,J,False,AUTOMATION2,3,291,1091,fixed_delta,0.04010600706829564,0.013286393218712247,,,,,0.5476393772182855,1972,1628,1,0.65,BLACK,BLACK,True,0,0.0017000002117129043,BLACK,True,CORRECT,0.6887359000011202,688.7359000011202
2,20260325_120617,D,J,False,AUTOMATION2,3,292,1092,fixed_delta,0.04010600706829564,0.013286393218712247,,,,,0.46997189182748134,1692,1908,1,0.65,WHITE,WHITE,True,0,0.0017000002117129043,WHITE,True,CORRECT,0.5976855999997497,597.6855999997497
2,20260325_120617,D,J,False,AUTOMATION2,3,293,1093,fixed_delta,0.04010600706829564,0.013286393218712247,,,,,0.48193813331334845,1735,1865,1,0.65,WHITE,BLACK,False,0,0.0015999994502635673,WHITE,True,CORRECT,0.7532916000000114,753.2916000000114
2,20260325_120617,D,J,False,AUTOMATION2,3,294,1094,fixed_delta,0.04010600706829564,0.013286393218712247,,,,,0.4666859763493855,1680,1920,1,0.65,WHITE,WHITE,True,0,0.0013999997463542968,WHITE,True,CORRECT,0.7345695000003616,734.5695000003616
2,20260325_120617,D,J,False,AUTOMATION2,3,295,1095,fixed_delta,0.04010600706829564,0.013286393218712247,,,,,0.5587175757042222,2011,1589,1,0.65,BLACK,BLACK,True,0,0.0017000002117129043,BLACK,True,CORRECT,0.6755921000003582,675.5921000003582
2,20260325_120617,D,J,False,AUTOMATION2,3,296,1096,fixed_delta,0.04010600706829564,0.013286393218712247,,,,,0.5041609176484176,1815,1785,1,0.65,BLACK,BLACK,True,0,0.0015999994502635673,WHITE,False,INCORRECT,0.8357409999989613,835.7409999989613
2,20260325_120617,D,J,False,AUTOMATION2,3,297,1097,fixed_delta,0.04010600706829564,0.013286393218712247,,,,,0.5363705402173032,1931,1669,1,0.65,BLACK,BLACK,True,0,0.0017999991541728377,BLACK,True,CORRECT,0.7208833999993658,720.8833999993658
2,20260325_120617,D,J,False,AUTOMATION2,3,298,1098,fixed_delta,0.04010600706829564,0.013286393218712247,,,,,0.5545152349028146,1996,1604,1,0.65,BLACK,WHITE,False,0,0.001999998858082108,WHITE,False,INCORRECT,0.6623213999992004,662.3213999992004
2,20260325_120617,D,J,False,AUTOMATION2,3,299,1099,fixed_delta,0.04010600706829564,0.013286393218712247,,,,,0.540215097528216,1945,1655,1,0.65,BLACK,WHITE,False,0,0.0015000005078036338,WHITE,False,INCORRECT,1.1876718000003166,1187.6718000003166
2,20260325_120617,D,J,False,AUTOMATION2,3,300,1100,fixed_delta,0.04010600706829564,0.013286393218712247,,,,,0.46659664563462516,1680,1920,1,0.65,WHITE,WHITE,True,0,0.0017000002117129043,WHITE,True,CORRECT,0.7468811999988247,746.8811999988247
2,20260325_120617,D,J,False,AUTOMATION2,3,301,1101,fixed_delta,0.04010600706829564,0.013286393218712247,,,,,0.5384628560172879,1938,1662,1,0.65,BLACK,BLACK,True,0,0.0015999994502635673,BLACK,True,CORRECT,0.5805313999990176,580.5313999990176
2,20260325_120617,D,J,False,AUTOMATION2,3,302,1102,fixed_delta,0.04010600706829564,0.013286393218712247,,,,,0.446766974069044,1608,1992,1,0.65,WHITE,WHITE,True,0,0.0015000005078036338,WHITE,True,CORRECT,0.6044543000007252,604.4543000007252
2,20260325_120617,D,J,False,AUTOMATION2,3,303,1103,fixed_delta,0.04010600706829564,0.013286393218712247,,,,,0.5431184047457482,1955,1645,1,0.65,BLACK,WHITE,False,0,0.0013999997463542968,WHITE,False,INCORRECT,0.549095500000476,549.095500000476
2,20260325_120617,D,J,False,AUTOMATION2,3,304,1104,fixed_delta,0.04010600706829564,0.013286393218712247,,,,,0.5383523318538053,1938,1662,1,0.65,BLACK,BLACK,True,0,0.0013999997463542968,WHITE,False,INCORRECT,1.0076131999994686,1007.6131999994686
2,20260325_120617,D,J,False,AUTOMATION2,3,305,1105,fixed_delta,0.04010600706829564,0.013286393218712247,,,,,0.5215447205163153,1878,1722,1,0.65,BLACK,WHITE,False,0,0.0018000009731622413,BLACK,True,CORRECT,0.516627700000754,516.627700000754
2,20260325_120617,D,J,False,AUTOMATION2,3,306,1106,fixed_delta,0.04010600706829564,0.013286393218712247,,,,,0.5485892513007632,1975,1625,1,0.65,BLACK,BLACK,True,0,0.0015000005078036338,BLACK,True,CORRECT,0.47396760000083304,473.96760000083304
2,20260325_120617,D,J,False,AUTOMATION2,3,307,1107,fixed_delta,0.04010600706829564,0.013286393218712247,,,,,0.4899423715949409,1764,1836,1,0.65,WHITE,BLACK,False,0,0.002099999619531445,WHITE,True,CORRECT,2.67569739999999,2675.69739999999
2,20260325_120617,D,J,False,AUTOMATION2,3,308,1108,fixed_delta,0.04010600706829564,0.013286393218712247,,,,,0.5826708327099553,2098,1502,1,0.65,BLACK,BLACK,True,0,0.0014999986888142303,BLACK,True,CORRECT,0.6401781999993545,640.1781999993545
2,20260325_120617,D,J,False,AUTOMATION2,3,309,1109,fixed_delta,0.04010600706829564,0.013286393218712247,,,,,0.4545244241722958,1636,1964,1,0.65,WHITE,WHITE,True,0,0.0017000002117129043,WHITE,True,CORRECT,0.6349030999990646,634.9030999990646
2,20260325_120617,D,J,False,AUTOMATION2,3,310,1110,fixed_delta,0.04010600706829564,0.013286393218712247,,,,,0.5450247752003816,1962,1638,1,0.65,BLACK,BLACK,True,0,0.0015999994502635673,BLACK,True,CORRECT,0.5743060999993759,574.3060999993759
2,20260325_120617,D,J,False,AUTOMATION2,3,311,1111,fixed_delta,0.04010600706829564,0.013286393218712247,,,,,0.5205453190834347,1874,1726,1,0.65,BLACK,BLACK,True,0,0.0015000005078036338,BLACK,True,CORRECT,1.0720199999996112,1072.0199999996112
2,20260325_120617,D,J,False,AUTOMATION2,3,312,1112,fixed_delta,0.04010600706829564,0.013286393218712247,,,,,0.5269181571959507,1897,1703,1,0.65,BLACK,WHITE,False,0,0.0017000002117129043,BLACK,True,CORRECT,0.48702330000014626,487.02330000014626
2,20260325_120617,D,J,False,AUTOMATION2,3,313,1113,fixed_delta,0.04010600706829564,0.013286393218712247,,,,,0.4922060145438506,1772,1828,1,0.65,WHITE,BLACK,False,0,0.0015000005078036338,WHITE,True,CORRECT,0.6258926999998948,625.8926999998948
2,20260325_120617,D,J,False,AUTOMATION2,3,314,1114,fixed_delta,0.04010600706829564,0.013286393218712247,,,,,0.4539485532523876,1634,1966,1,0.65,WHITE,BLACK,False,0,0.0015000005078036338,WHITE,True,CORRECT,0.5030079999996815,503.0079999996815
2,20260325_120617,D,J,False,AUTOMATION2,3,315,1115,fixed_delta,0.04010600706829564,0.013286393218712247,,,,,0.45968231560856976,1655,1945,1,0.65,WHITE,WHITE,True,0,0.0015999994502635673,WHITE,True,CORRECT,0.458233499999551,458.233499999551
2,20260325_120617,D,J,False,AUTOMATION2,3,316,1116,fixed_delta,0.04010600706829564,0.013286393218712247,,,,,0.5223941213505644,1881,1719,1,0.65,BLACK,WHITE,False,0,0.0017999991541728377,BLACK,True,CORRECT,0.5950360000006185,595.0360000006185
2,20260325_120617,D,J,False,AUTOMATION2,3,317,1117,fixed_delta,0.04010600706829564,0.013286393218712247,,,,,0.4566317468729776,1644,1956,1,0.65,WHITE,BLACK,False,0,0.0015999994502635673,WHITE,True,CORRECT,0.6182422000001679,618.2422000001679
2,20260325_120617,D,J,False,AUTOMATION2,3,318,1118,fixed_delta,0.04010600706829564,0.013286393218712247,,,,,0.43380628981217256,1562,2038,1,0.65,WHITE,WHITE,True,0,0.0015000005078036338,BLACK,False,INCORRECT,1.6126325000004726,1612.6325000004726
2,20260325_120617,D,J,False,AUTOMATION2,3,319,1119,fixed_delta,0.04010600706829564,0.013286393218712247,,,,,0.48051270772155186,1730,1870,1,0.65,WHITE,WHITE,True,0,0.0018999999156221747,WHITE,True,CORRECT,0.4050502999998571,405.0502999998571
2,20260325_120617,D,J,False,AUTOMATION2,3,320,1120,fixed_delta,0.04010600706829564,0.013286393218712247,,,,,0.4528742701579494,1630,1970,1,0.65,WHITE,BLACK,False,0,0.0013999997463542968,WHITE,True,CORRECT,0.6498859999992419,649.8859999992419
2,20260325_120617,D,J,False,AUTOMATION2,3,321,1121,fixed_delta,0.04010600706829564,0.013286393218712247,,,,,0.4475685074214738,1611,1989,1,0.65,WHITE,BLACK,False,0,0.0012000000424450263,WHITE,True,CORRECT,0.6336878999991313,633.6878999991313
2,20260325_120617,D,J,False,AUTOMATION2,3,322,1122,fixed_delta,0.04010600706829564,0.013286393218712247,,,,,0.4260744659132112,1534,2066,1,0.65,WHITE,WHITE,True,0,0.0013000008038943633,WHITE,True,CORRECT,0.5766483999996126,576.6483999996126
2,20260325_120617,D,J,False,AUTOMATION2,3,323,1123,fixed_delta,0.04010600706829564,0.013286393218712247,,,,,0.5258395162389102,1893,1707,1,0.65,BLACK,WHITE,False,0,0.0017000002117129043,BLACK,True,CORRECT,0.9181831999994756,918.1831999994756
2,20260325_120617,D,J,False,AUTOMATION2,3,324,1124,fixed_delta,0.04010600706829564,0.013286393218712247,,,,,0.5377423014884555,1936,1664,1,0.65,BLACK,BLACK,True,0,0.0013999997463542968,WHITE,False,INCORRECT,2.804027299998779,2804.027299998779
2,20260325_120617,D,J,False,AUTOMATION2,3,325,1125,fixed_delta,0.04010600706829564,0.013286393218712247,,,,,0.49961489739737724,1799,1801,1,0.65,WHITE,WHITE,True,0,0.0015000005078036338,WHITE,True,CORRECT,0.6191283999996813,619.1283999996813
2,20260325_120617,D,J,False,AUTOMATION2,3,326,1126,fixed_delta,0.04010600706829564,0.013286393218712247,,,,,0.553208012382661,1992,1608,1,0.65,BLACK,BLACK,True,0,0.0013999997463542968,BLACK,True,CORRECT,0.6669485000002169,666.9485000002169
2,20260325_120617,D,J,False,AUTOMATION2,3,327,1127,fixed_delta,0.04010600706829564,0.013286393218712247,,,,,0.43720528855817825,1574,2026,1,0.65,WHITE,WHITE,True,0,0.0012000000424450263,WHITE,True,CORRECT,0.5152037999996537,515.2037999996537
2,20260325_120617,D,J,False,AUTOMATION2,3,328,1128,fixed_delta,0.04010600706829564,0.013286393218712247,,,,,0.4495179165919545,1618,1982,1,0.65,WHITE,WHITE,True,0,0.0024000000848900527,WHITE,True,CORRECT,0.4880520000006072,488.0520000006072
2,20260325_120617,D,J,False,AUTOMATION2,3,329,1129,fixed_delta,0.04010600706829564,0.013286393218712247,,,,,0.5271266226602148,1898,1702,1,0.65,BLACK,BLACK,True,0,0.0015000005078036338,BLACK,True,CORRECT,0.4732253000001947,473.2253000001947
2,20260325_120617,D,J,False,AUTOMATION2,3,330,1130,fixed_delta,0.04010600706829564,0.013286393218712247,,,,,0.44967971948978236,1619,1981,1,0.65,WHITE,BLACK,False,0,0.002099999619531445,WHITE,True,CORRECT,0.5972856000007596,597.2856000007596
2,20260325_120617,D,J,False,AUTOMATION2,3,331,1131,fixed_delta,0.04010600706829564,0.013286393218712247,,,,,0.47985262737265966,1727,1873,1,0.65,WHITE,WHITE,True,0,0.0015000005078036338,WHITE,True,CORRECT,0.441179600000396,441.179600000396
2,20260325_120617,D,J,False,AUTOMATION2,3,332,1132,fixed_delta,0.04010600706829564,0.013286393218712247,,,,,0.5398879411376515,1944,1656,1,0.65,BLACK,BLACK,True,0,0.0018000009731622413,WHITE,False,INCORRECT,0.6466629000005923,646.6629000005923
2,20260325_120617,D,J,False,AUTOMATION2,3,333,1133,fixed_delta,0.04010600706829564,0.013286393218712247,,,,,0.46954841947557857,1690,1910,1,0.65,WHITE,WHITE,True,0,0.0017000002117129043,BLACK,False,INCORRECT,3.6250559000000067,3625.0559000000067
2,20260325_120617,D,J,False,AUTOMATION2,3,334,1134,fixed_delta,0.04010600706829564,0.013286393218712247,,,,,0.4352694997437565,1567,2033,1,0.65,WHITE,WHITE,True,0,0.0012999989849049598,WHITE,True,CORRECT,0.45501839999997173,455.01839999997173
2,20260325_120617,D,J,False,AUTOMATION2,3,335,1135,fixed_delta,0.04010600706829564,0.013286393218712247,,,,,0.4565814550402097,1644,1956,1,0.65,WHITE,WHITE,True,0,0.0012999989849049598,BLACK,False,INCORRECT,0.6172182999998768,617.2182999998768
2,20260325_120617,D,J,False,AUTOMATION2,3,336,1136,fixed_delta,0.04010600706829564,0.013286393218712247,,,,,0.46575737317012356,1677,1923,1,0.65,WHITE,WHITE,True,0,0.0018999999156221747,BLACK,False,INCORRECT,0.8593997999996645,859.3997999996645
2,20260325_120617,D,J,False,AUTOMATION2,3,337,1137,fixed_delta,0.04010600706829564,0.013286393218712247,,,,,0.5370257514574466,1933,1667,1,0.65,BLACK,BLACK,True,0,0.0018000009731622413,BLACK,True,CORRECT,0.5861750000003667,586.1750000003667
2,20260325_120617,D,J,False,AUTOMATION2,3,338,1138,fixed_delta,0.04010600706829564,0.013286393218712247,,,,,0.4867954414907456,1752,1848,1,0.65,WHITE,BLACK,False,0,0.0014999986888142303,WHITE,True,CORRECT,0.6657334999999875,665.7334999999875
2,20260325_120617,D,J,False,AUTOMATION2,3,339,1139,fixed_delta,0.04010600706829564,0.013286393218712247,,,,,0.47045496637845813,1694,1906,1,0.65,WHITE,BLACK,False,0,0.0017000002117129043,WHITE,True,CORRECT,0.5021835000006831,502.1835000006831
2,20260325_120617,D,J,False,AUTOMATION2,3,340,1140,fixed_delta,0.04010600706829564,0.013286393218712247,,,,,0.44801909216831864,1613,1987,1,0.65,WHITE,BLACK,False,0,0.0017000002117129043,WHITE,True,CORRECT,1.0458223000005091,1045.8223000005091
2,20260325_120617,D,J,False,AUTOMATION2,3,341,1141,fixed_delta,0.04010600706829564,0.013286393218712247,,,,,0.519799633389922,1871,1729,1,0.65,BLACK,BLACK,True,0,0.0018999999156221747,BLACK,True,CORRECT,0.6009431000002223,600.9431000002223
2,20260325_120617,D,J,False,AUTOMATION2,3,342,1142,fixed_delta,0.04010600706829564,0.013286393218712247,,,,,0.44047952036940047,1586,2014,1,0.65,WHITE,WHITE,True,0,0.0015000005078036338,WHITE,True,CORRECT,1.0648354999993899,1064.8354999993899
2,20260325_120617,D,J,False,AUTOMATION2,3,343,1143,fixed_delta,0.04010600706829564,0.013286393218712247,,,,,0.44547413611633463,1604,1996,1,0.65,WHITE,BLACK,False,0,0.0014999986888142303,WHITE,True,CORRECT,0.4706458999989991,470.6458999989991
2,20260325_120617,D,J,False,AUTOMATION2,3,344,1144,fixed_delta,0.04010600706829564,0.013286393218712247,,,,,0.5373240164355564,1934,1666,1,0.65,BLACK,WHITE,False,0,0.0017999991541728377,BLACK,True,CORRECT,0.518914099999165,518.914099999165
2,20260325_120617,D,J,False,AUTOMATION2,3,345,1145,fixed_delta,0.04010600706829564,0.013286393218712247,,,,,0.4702998329323642,1693,1907,1,0.65,WHITE,WHITE,True,0,0.0013999997463542968,WHITE,True,CORRECT,1.3998262000004615,1399.8262000004615
2,20260325_120617,D,J,False,AUTOMATION2,3,346,1146,fixed_delta,0.04010600706829564,0.013286393218712247,,,,,0.5248607774004859,1889,1711,1,0.65,BLACK,WHITE,False,0,0.0017000002117129043,BLACK,True,CORRECT,1.4827669000005699,1482.7669000005699
2,20260325_120617,D,J,False,AUTOMATION2,3,347,1147,fixed_delta,0.04010600706829564,0.013286393218712247,,,,,0.5439256581089316,1958,1642,1,0.65,BLACK,BLACK,True,0,0.0015000005078036338,BLACK,True,CORRECT,0.6631383999992977,663.1383999992977
2,20260325_120617,D,J,False,AUTOMATION2,3,348,1148,fixed_delta,0.04010600706829564,0.013286393218712247,,,,,0.4662950397072699,1679,1921,1,0.65,WHITE,WHITE,True,0,0.0014999986888142303,WHITE,True,CORRECT,0.6624394999998913,662.4394999998913
2,20260325_120617,D,J,False,AUTOMATION2,3,349,1149,fixed_delta,0.04010600706829564,0.013286393218712247,,,,,0.547394626548272,1971,1629,1,0.65,BLACK,BLACK,True,0,0.0015999994502635673,BLACK,True,CORRECT,0.5306360999984463,530.6360999984463
2,20260325_120617,D,J,False,AUTOMATION2,3,350,1150,fixed_delta,0.04010600706829564,0.013286393218712247,,,,,0.5332928181136615,1920,1680,1,0.65,BLACK,BLACK,True,0,0.0017000002117129043,WHITE,False,INCORRECT,0.516997500000798,516.997500000798
2,20260325_120617,D,J,False,AUTOMATION2,3,351,1151,fixed_delta,0.04010600706829564,0.013286393218712247,,,,,0.46024122527693245,1657,1943,1,0.65,WHITE,WHITE,True,0,0.0017000002117129043,WHITE,True,CORRECT,0.6705903000001854,670.5903000001854
2,20260325_120617,D,J,False,AUTOMATION2,3,352,1152,fixed_delta,0.04010600706829564,0.013286393218712247,,,,,0.47230076844358654,1700,1900,1,0.65,WHITE,BLACK,False,0,0.0018000009731622413,BLACK,False,INCORRECT,0.5521712999998272,552.1712999998272
2,20260325_120617,D,J,False,AUTOMATION2,3,353,1153,fixed_delta,0.04010600706829564,0.013286393218712247,,,,,0.5288098516455185,1904,1696,1,0.65,BLACK,BLACK,True,0,0.0014999986888142303,BLACK,True,CORRECT,1.1988298999986,1198.8298999986
2,20260325_120617,D,J,False,AUTOMATION2,3,354,1154,fixed_delta,0.04010600706829564,0.013286393218712247,,,,,0.46942488115629044,1690,1910,1,0.65,WHITE,BLACK,False,0,0.0013999997463542968,WHITE,True,CORRECT,0.6857237000003806,685.7237000003806
2,20260325_120617,D,J,False,AUTOMATION2,3,355,1155,fixed_delta,0.04010600706829564,0.013286393218712247,,,,,0.44745152641443015,1611,1989,1,0.65,WHITE,WHITE,True,0,0.0013999997463542968,WHITE,True,CORRECT,0.6183129000000918,618.3129000000918
2,20260325_120617,D,J,False,AUTOMATION2,3,356,1156,fixed_delta,0.04010600706829564,0.013286393218712247,,,,,0.5567408132780658,2004,1596,1,0.65,BLACK,BLACK,True,0,0.0017000002117129043,BLACK,True,CORRECT,0.5017134999998234,501.7134999998234
2,20260325_120617,D,J,False,AUTOMATION2,3,357,1157,fixed_delta,0.04010600706829564,0.013286393218712247,,,,,0.5319461568511045,1915,1685,1,0.65,BLACK,BLACK,True,0,0.0012000000424450263,BLACK,True,CORRECT,0.5277836999994179,527.7836999994179
2,20260325_120617,D,J,False,AUTOMATION2,3,358,1158,fixed_delta,0.04010600706829564,0.013286393218712247,,,,,0.5447438696584576,1961,1639,1,0.65,BLACK,BLACK,True,0,0.0015000005078036338,WHITE,False,INCORRECT,0.5179525000003196,517.9525000003196
2,20260325_120617,D,J,False,AUTOMATION2,3,359,1159,fixed_delta,0.04010600706829564,0.013286393218712247,,,,,0.5570421158310581,2005,1595,1,0.65,BLACK,BLACK,True,0,0.0015000005078036338,BLACK,True,CORRECT,0.4191606000003958,419.1606000003958
2,20260325_120617,D,J,False,AUTOMATION2,3,360,1160,fixed_delta,0.04010600706829564,0.013286393218712247,,,,,0.45116571302920916,1624,1976,1,0.65,WHITE,BLACK,False,0,0.0015000005078036338,WHITE,True,CORRECT,0.5087033999989217,508.70339999892167
2,20260325_120617,D,J,False,AUTOMATION2,3,361,1161,fixed_delta,0.04010600706829564,0.013286393218712247,,,,,0.5358552122297777,1929,1671,1,0.65,BLACK,WHITE,False,0,0.0015000005078036338,BLACK,True,CORRECT,0.6637485999999626,663.7485999999626
2,20260325_120617,D,J,False,AUTOMATION2,3,362,1162,fixed_delta,0.04010600706829564,0.013286393218712247,,,,,0.4663852736460514,1679,1921,1,0.65,WHITE,WHITE,True,0,0.0018999999156221747,BLACK,False,INCORRECT,0.603826399999889,603.826399999889
2,20260325_120617,D,J,False,AUTOMATION2,3,363,1163,fixed_delta,0.04010600706829564,0.013286393218712247,,,,,0.5308070848895811,1911,1689,1,0.65,BLACK,BLACK,True,0,0.001999998858082108,BLACK,True,CORRECT,0.6367931999993743,636.7931999993743
2,20260325_120617,D,J,False,AUTOMATION2,3,364,1164,fixed_delta,0.04010600706829564,0.013286393218712247,,,,,0.45481124117362653,1637,1963,1,0.65,WHITE,WHITE,True,0,0.0013000008038943633,BLACK,False,INCORRECT,0.7494631999998091,749.4631999998091
2,20260325_120617,D,J,False,AUTOMATION2,3,365,1165,fixed_delta,0.04010600706829564,0.013286393218712247,,,,,0.45665838225312216,1644,1956,1,0.65,WHITE,BLACK,False,0,0.0013999997463542968,WHITE,True,CORRECT,0.46619269999973767,466.19269999973767
2,20260325_120617,D,J,False,AUTOMATION2,3,366,1166,fixed_delta,0.04010600706829564,0.013286393218712247,,,,,0.440668513571798,1586,2014,1,0.65,WHITE,WHITE,True,0,0.0013999997463542968,WHITE,True,CORRECT,0.4401254999993398,440.1254999993398
2,20260325_120617,D,J,False,AUTOMATION2,3,367,1167,fixed_delta,0.04010600706829564,0.013286393218712247,,,,,0.4571151608260547,1646,1954,1,0.65,WHITE,BLACK,False,0,0.016899999536690302,BLACK,False,INCORRECT,0.6800915999992867,680.0915999992867
2,20260325_120617,D,J,False,AUTOMATION2,3,368,1168,fixed_delta,0.04010600706829564,0.013286393218712247,,,,,0.4495880792777351,1619,1981,1,0.65,WHITE,WHITE,True,0,0.0012999989849049598,WHITE,True,CORRECT,0.4543338000003132,454.3338000003132
2,20260325_120617,D,J,False,AUTOMATION2,3,369,1169,fixed_delta,0.04010600706829564,0.013286393218712247,,,,,0.5577789047919925,2008,1592,1,0.65,BLACK,BLACK,True,0,0.0015000005078036338,BLACK,True,CORRECT,0.4431547000003775,443.1547000003775
2,20260325_120617,D,J,False,AUTOMATION2,3,370,1170,fixed_delta,0.04010600706829564,0.013286393218712247,,,,,0.45500596178401165,1638,1962,1,0.65,WHITE,BLACK,False,0,0.001999998858082108,BLACK,False,INCORRECT,0.5979774999996152,597.9774999996152
2,20260325_120617,D,J,False,AUTOMATION2,3,371,1171,fixed_delta,0.04010600706829564,0.013286393218712247,,,,,0.5472040203046336,1970,1630,1,0.65,BLACK,BLACK,True,0,0.0015999994502635673,BLACK,True,CORRECT,0.7440920999997616,744.0920999997616
2,20260325_120617,D,J,False,AUTOMATION2,3,372,1172,fixed_delta,0.04010600706829564,0.013286393218712247,,,,,0.5468842271762555,1969,1631,1,0.65,BLACK,WHITE,False,0,0.0018000009731622413,BLACK,True,CORRECT,0.7079386000004888,707.9386000004888
2,20260325_120617,D,J,False,AUTOMATION2,3,373,1173,fixed_delta,0.04010600706829564,0.013286393218712247,,,,,0.514934067696259,1854,1746,1,0.65,BLACK,BLACK,True,0,0.0017000002117129043,BLACK,True,CORRECT,0.6492336000010255,649.2336000010255
2,20260325_120617,D,J,False,AUTOMATION2,3,374,1174,fixed_delta,0.04010600706829564,0.013286393218712247,,,,,0.5566141479932852,2004,1596,1,0.65,BLACK,WHITE,False,0,0.0015000005078036338,BLACK,True,CORRECT,0.494138699999894,494.138699999894
2,20260325_120617,D,J,False,AUTOMATION2,3,375,1175,fixed_delta,0.04010600706829564,0.013286393218712247,,,,,0.5304289297422302,1910,1690,1,0.65,BLACK,WHITE,False,0,0.0013999997463542968,BLACK,True,CORRECT,0.5901955999997881,590.1955999997881
2,20260325_120617,D,J,False,AUTOMATION2,3,376,1176,fixed_delta,0.04010600706829564,0.013286393218712247,,,,,0.5322713915162097,1916,1684,1,0.65,BLACK,WHITE,False,0,0.0018000009731622413,BLACK,True,CORRECT,0.5762677000002441,576.2677000002441
2,20260325_120617,D,J,False,AUTOMATION2,3,377,1177,fixed_delta,0.04010600706829564,0.013286393218712247,,,,,0.5598314567847673,2015,1585,1,0.65,BLACK,BLACK,True,0,0.0013000008038943633,BLACK,True,CORRECT,0.5082509000003483,508.25090000034834
2,20260325_120617,D,J,False,AUTOMATION2,3,378,1178,fixed_delta,0.04010600706829564,0.013286393218712247,,,,,0.5351850772947655,1927,1673,1,0.65,BLACK,BLACK,True,0,0.0018999999156221747,WHITE,False,INCORRECT,1.3024482000000717,1302.4482000000717
2,20260325_120617,D,J,False,AUTOMATION2,3,379,1179,fixed_delta,0.04010600706829564,0.013286393218712247,,,,,0.5486617391341929,1975,1625,1,0.65,BLACK,BLACK,True,0,0.0016999983927235007,WHITE,False,INCORRECT,0.9597556999997323,959.7556999997323
2,20260325_120617,D,J,False,AUTOMATION2,3,380,1180,fixed_delta,0.04010600706829564,0.013286393218712247,,,,,0.4748798572423415,1710,1890,1,0.65,WHITE,WHITE,True,0,0.0013999997463542968,WHITE,True,CORRECT,0.5254648999998608,525.4648999998608
2,20260325_120617,D,J,False,AUTOMATION2,3,381,1181,fixed_delta,0.04010600706829564,0.013286393218712247,,,,,0.43568578783513057,1568,2032,1,0.65,WHITE,WHITE,True,0,0.0013999997463542968,WHITE,True,CORRECT,0.6019553999994969,601.9553999994969
2,20260325_120617,D,J,False,AUTOMATION2,3,382,1182,fixed_delta,0.04010600706829564,0.013286393218712247,,,,,0.5443129435547682,1960,1640,1,0.65,BLACK,BLACK,True,0,0.0013999997463542968,BLACK,True,CORRECT,0.5016707999984646,501.67079999846464
2,20260325_120617,D,J,False,AUTOMATION2,3,383,1183,fixed_delta,0.04010600706829564,0.013286393218712247,,,,,0.46089313988930186,1659,1941,1,0.65,WHITE,BLACK,False,0,0.0013999997463542968,WHITE,True,CORRECT,0.5365309000007983,536.5309000007983
2,20260325_120617,D,J,False,AUTOMATION2,3,384,1184,fixed_delta,0.04010600706829564,0.013286393218712247,,,,,0.5354171246937768,1928,1672,1,0.65,BLACK,BLACK,True,0,0.0015999994502635673,BLACK,True,CORRECT,0.5172696999998152,517.2696999998152
2,20260325_120617,D,J,False,AUTOMATION2,3,385,1185,fixed_delta,0.04010600706829564,0.013286393218712247,,,,,0.4860324717515519,1750,1850,1,0.65,WHITE,WHITE,True,0,0.0016000012692529708,BLACK,False,INCORRECT,0.5302141000011034,530.2141000011034
2,20260325_120617,D,J,False,AUTOMATION2,3,386,1186,fixed_delta,0.04010600706829564,0.013286393218712247,,,,,0.46606307219093224,1678,1922,1,0.65,WHITE,WHITE,True,0,0.0012999989849049598,BLACK,False,INCORRECT,0.8188498999988951,818.8498999988951
2,20260325_120617,D,J,False,AUTOMATION2,3,387,1187,fixed_delta,0.04010600706829564,0.013286393218712247,,,,,0.5340855204351886,1923,1677,1,0.65,BLACK,WHITE,False,0,0.0015999994502635673,WHITE,False,INCORRECT,2.782923999999184,2782.923999999184
2,20260325_120617,D,J,False,AUTOMATION2,3,388,1188,fixed_delta,0.04010600706829564,0.013286393218712247,,,,,0.5356263750551141,1928,1672,1,0.65,BLACK,BLACK,True,0,0.0013000008038943633,BLACK,True,CORRECT,1.5560292000009213,1556.0292000009213
2,20260325_120617,D,J,False,AUTOMATION2,3,389,1189,fixed_delta,0.04010600706829564,0.013286393218712247,,,,,0.5367554598258237,1932,1668,1,0.65,BLACK,BLACK,True,0,0.0020000006770715117,BLACK,True,CORRECT,0.9722939000002953,972.2939000002953
2,20260325_120617,D,J,False,AUTOMATION2,3,390,1190,fixed_delta,0.04010600706829564,0.013286393218712247,,,,,0.43883486826073026,1580,2020,1,0.65,WHITE,BLACK,False,0,0.0013000008038943633,WHITE,True,CORRECT,1.0370695000001433,1037.0695000001433
2,20260325_120617,D,J,False,AUTOMATION2,3,391,1191,fixed_delta,0.04010600706829564,0.013286393218712247,,,,,0.4549682519346542,1638,1962,1,0.65,WHITE,WHITE,True,0,0.0016000012692529708,WHITE,True,CORRECT,1.2249934999999823,1224.9934999999823
2,20260325_120617,D,J,False,AUTOMATION2,3,392,1192,fixed_delta,0.04010600706829564,0.013286393218712247,,,,,0.4472275106687795,1610,1990,1,0.65,WHITE,WHITE,True,0,0.0015999994502635673,WHITE,True,CORRECT,2.022127600001113,2022.127600001113
2,20260325_120617,D,J,False,AUTOMATION2,3,393,1193,fixed_delta,0.04010600706829564,0.013286393218712247,,,,,0.45967553158747454,1655,1945,1,0.65,WHITE,WHITE,True,0,0.0018000009731622413,WHITE,True,CORRECT,0.9249357999997301,924.9357999997301
2,20260325_120617,D,J,False,AUTOMATION2,3,394,1194,fixed_delta,0.04010600706829564,0.013286393218712247,,,,,0.4353358634557266,1567,2033,1,0.65,WHITE,WHITE,True,0,0.0016000012692529708,WHITE,True,CORRECT,0.9555500999995274,955.5500999995274
2,20260325_120617,D,J,False,AUTOMATION2,3,395,1195,fixed_delta,0.04010600706829564,0.013286393218712247,,,,,0.4623889026163453,1665,1935,1,0.65,WHITE,WHITE,True,0,0.0014999986888142303,WHITE,True,CORRECT,0.7271640999988449,727.1640999988449
2,20260325_120617,D,J,False,AUTOMATION2,3,396,1196,fixed_delta,0.04010600706829564,0.013286393218712247,,,,,0.4783927119820002,1722,1878,1,0.65,WHITE,WHITE,True,0,0.0012999989849049598,WHITE,True,CORRECT,1.3331632999997964,1333.1632999997964
2,20260325_120617,D,J,False,AUTOMATION2,3,397,1197,fixed_delta,0.04010600706829564,0.013286393218712247,,,,,0.4657208284423771,1677,1923,1,0.65,WHITE,WHITE,True,0,0.0015999994502635673,WHITE,True,CORRECT,0.6057534999999916,605.7534999999916
2,20260325_120617,D,J,False,AUTOMATION2,3,398,1198,fixed_delta,0.04010600706829564,0.013286393218712247,,,,,0.5160493717696978,1858,1742,1,0.65,BLACK,BLACK,True,0,0.0013999997463542968,BLACK,True,CORRECT,0.9307779000009759,930.7779000009759
2,20260325_120617,D,J,False,AUTOMATION2,3,399,1199,fixed_delta,0.04010600706829564,0.013286393218712247,,,,,0.5285876958293363,1903,1697,1,0.65,BLACK,WHITE,False,0,0.0013999997463542968,BLACK,True,CORRECT,0.8637421000003087,863.7421000003087
2,20260325_120617,D,J,False,AUTOMATION2,3,400,1200,fixed_delta,0.04010600706829564,0.013286393218712247,,,,,0.48126142247665243,1733,1867,1,0.65,WHITE,BLACK,False,0,0.0014000015653437003,BLACK,False,INCORRECT,0.5617599000015616,561.7599000015616
2,20260325_120617,D,J,False,AUTOMATION2,3,401,1201,fixed_delta,0.04010600706829564,0.013286393218712247,,,,,0.542699185267014,1954,1646,1,0.65,BLACK,WHITE,False,0,0.0016000012692529708,BLACK,True,CORRECT,1.9103021000009903,1910.3021000009903
2,20260325_120617,D,J,False,AUTOMATION2,3,402,1202,fixed_delta,0.04010600706829564,0.013286393218712247,,,,,0.44605281191868174,1606,1994,1,0.65,WHITE,WHITE,True,0,0.0017000002117129043,WHITE,True,CORRECT,0.7916526000008162,791.6526000008162
2,20260325_120617,D,J,False,AUTOMATION2,3,403,1203,fixed_delta,0.04010600706829564,0.013286393218712247,,,,,0.44312262990846374,1595,2005,1,0.65,WHITE,WHITE,True,0,0.0015000005078036338,WHITE,True,CORRECT,0.7742005000000063,774.2005000000063
2,20260325_120617,D,J,False,AUTOMATION2,3,404,1204,fixed_delta,0.04010600706829564,0.013286393218712247,,,,,0.4663587900971051,1679,1921,1,0.65,WHITE,WHITE,True,0,0.0013999997463542968,BLACK,False,INCORRECT,0.7875815000006696,787.5815000006696
2,20260325_120617,D,J,False,AUTOMATION2,3,405,1205,fixed_delta,0.04010600706829564,0.013286393218712247,,,,,0.46862088621235676,1687,1913,1,0.65,WHITE,WHITE,True,0,0.0013999997463542968,WHITE,True,CORRECT,0.9545562999992399,954.5562999992399
2,20260325_120617,D,J,False,AUTOMATION2,3,406,1206,fixed_delta,0.04010600706829564,0.013286393218712247,,,,,0.5180063291633543,1865,1735,1,0.65,BLACK,BLACK,True,0,0.0015999994502635673,BLACK,True,CORRECT,0.8266254999998637,826.6254999998637
2,20260325_120617,D,J,False,AUTOMATION2,3,407,1207,fixed_delta,0.04010600706829564,0.013286393218712247,,,,,0.5301072719191804,1908,1692,1,0.65,BLACK,BLACK,True,0,0.0017000002117129043,BLACK,True,CORRECT,0.6678202999992209,667.8202999992209
2,20260325_120617,D,J,False,AUTOMATION2,3,408,1208,fixed_delta,0.04010600706829564,0.013286393218712247,,,,,0.518463565985496,1866,1734,1,0.65,BLACK,BLACK,True,0,0.0016000012692529708,BLACK,True,CORRECT,0.5609021000000212,560.9021000000212
2,20260325_120617,D,J,False,AUTOMATION2,3,409,1209,fixed_delta,0.04010600706829564,0.013286393218712247,,,,,0.4553036575007703,1639,1961,1,0.65,WHITE,WHITE,True,0,0.0014000015653437003,WHITE,True,CORRECT,0.6177099000015005,617.7099000015005
2,20260325_120617,D,J,False,AUTOMATION2,3,410,1210,fixed_delta,0.04010600706829564,0.013286393218712247,,,,,0.5472309360147319,1970,1630,1,0.65,BLACK,BLACK,True,0,0.0015000005078036338,BLACK,True,CORRECT,0.5138712999996642,513.8712999996642
2,20260325_120617,D,J,False,AUTOMATION2,3,411,1211,fixed_delta,0.04010600706829564,0.013286393218712247,,,,,0.5574957606769603,2007,1593,1,0.65,BLACK,BLACK,True,0,0.001999998858082108,BLACK,True,CORRECT,0.8431158999992476,843.1158999992476
