participant_id,run_timestamp,key_black,key_white,keymap_flip,block,block_idx,trial,global_trial,difficulty_mode,delta_fixed_mean,delta_fixed_sd,delta_stair_realised,delta_stair_mean,delta_step_down_used,delta_step_up_used,vblack_prop,n_vblack,n_vwhite,auto_on,aid_accuracy_setting,stimulus,aid_label,aid_correct,aid_onset_ms,aid_onset_ms_rel,response,correct,feedback,rt_s,rt_ms
6,20260325_140431,D,J,False,MANUAL,4,1,1301,fixed_delta,0.04169584712997743,0.012883078076194597,,,,,0.5343852221483237,1924,1676,0,,BLACK,,,0,,WHITE,False,INCORRECT,0.7962738999995054,796.2738999995054
6,20260325_140431,D,J,False,MANUAL,4,2,1302,fixed_delta,0.04169584712997743,0.012883078076194597,,,,,0.5424540833427337,1953,1647,0,,BLACK,,,0,,WHITE,False,INCORRECT,0.5297301999999036,529.7301999999036
6,20260325_140431,D,J,False,MANUAL,4,3,1303,fixed_delta,0.04169584712997743,0.012883078076194597,,,,,0.45308611510429453,1631,1969,0,,WHITE,,,0,,WHITE,True,CORRECT,0.6827151999968919,682.7151999968919
6,20260325_140431,D,J,False,MANUAL,4,4,1304,fixed_delta,0.04169584712997743,0.012883078076194597,,,,,0.5387089803299426,1939,1661,0,,BLACK,,,0,,BLACK,True,CORRECT,0.5764261999975133,576.4261999975133
6,20260325_140431,D,J,False,MANUAL,4,5,1305,fixed_delta,0.04169584712997743,0.012883078076194597,,,,,0.4656370915432728,1676,1924,0,,WHITE,,,0,,WHITE,True,CORRECT,0.5808532000010018,580.8532000010018
6,20260325_140431,D,J,False,MANUAL,4,6,1306,fixed_delta,0.04169584712997743,0.012883078076194597,,,,,0.5359614064684725,1929,1671,0,,BLACK,,,0,,BLACK,True,CORRECT,0.4583022000006167,458.3022000006167
6,20260325_140431,D,J,False,MANUAL,4,7,1307,fixed_delta,0.04169584712997743,0.012883078076194597,,,,,0.4641810194292373,1671,1929,0,,WHITE,,,0,,WHITE,True,CORRECT,0.5798200999997789,579.8200999997789
6,20260325_140431,D,J,False,MANUAL,4,8,1308,fixed_delta,0.04169584712997743,0.012883078076194597,,,,,0.4699139746951659,1692,1908,0,,WHITE,,,0,,WHITE,True,CORRECT,0.5317770000001474,531.7770000001474
6,20260325_140431,D,J,False,MANUAL,4,9,1309,fixed_delta,0.04169584712997743,0.012883078076194597,,,,,0.46688115695440024,1681,1919,0,,WHITE,,,0,,BLACK,False,INCORRECT,0.527428699999291,527.428699999291
6,20260325_140431,D,J,False,MANUAL,4,10,1310,fixed_delta,0.04169584712997743,0.012883078076194597,,,,,0.5638509500955464,2030,1570,0,,BLACK,,,0,,BLACK,True,CORRECT,0.6497640000015963,649.7640000015963
6,20260325_140431,D,J,False,MANUAL,4,11,1311,fixed_delta,0.04169584712997743,0.012883078076194597,,,,,0.470445500781178,1694,1906,0,,WHITE,,,0,,WHITE,True,CORRECT,0.5710458000030485,571.0458000030485
6,20260325_140431,D,J,False,MANUAL,4,12,1312,fixed_delta,0.04169584712997743,0.012883078076194597,,,,,0.5384349667953082,1938,1662,0,,BLACK,,,0,,BLACK,True,CORRECT,0.8067364999988058,806.7364999988058
6,20260325_140431,D,J,False,MANUAL,4,13,1313,fixed_delta,0.04169584712997743,0.012883078076194597,,,,,0.4560254694903828,1642,1958,0,,WHITE,,,0,,WHITE,True,CORRECT,0.6245950000011362,624.5950000011362
6,20260325_140431,D,J,False,MANUAL,4,14,1314,fixed_delta,0.04169584712997743,0.012883078076194597,,,,,0.4523008797371051,1628,1972,0,,WHITE,,,0,,BLACK,False,INCORRECT,0.6601670000018203,660.1670000018203
6,20260325_140431,D,J,False,MANUAL,4,15,1315,fixed_delta,0.04169584712997743,0.012883078076194597,,,,,0.45514184467561836,1639,1961,0,,WHITE,,,0,,WHITE,True,CORRECT,0.510810700001457,510.810700001457
6,20260325_140431,D,J,False,MANUAL,4,16,1316,fixed_delta,0.04169584712997743,0.012883078076194597,,,,,0.5532927436523715,1992,1608,0,,BLACK,,,0,,WHITE,False,INCORRECT,0.900116099997831,900.116099997831
6,20260325_140431,D,J,False,MANUAL,4,17,1317,fixed_delta,0.04169584712997743,0.012883078076194597,,,,,0.531689479798355,1914,1686,0,,BLACK,,,0,,WHITE,False,INCORRECT,0.7559632000011334,755.9632000011334
6,20260325_140431,D,J,False,MANUAL,4,18,1318,fixed_delta,0.04169584712997743,0.012883078076194597,,,,,0.5466797477936999,1968,1632,0,,BLACK,,,0,,BLACK,True,CORRECT,0.5843199000009918,584.3199000009918
6,20260325_140431,D,J,False,MANUAL,4,19,1319,fixed_delta,0.04169584712997743,0.012883078076194597,,,,,0.519974763721643,1872,1728,0,,BLACK,,,0,,BLACK,True,CORRECT,0.5040690999994695,504.0690999994695
6,20260325_140431,D,J,False,MANUAL,4,20,1320,fixed_delta,0.04169584712997743,0.012883078076194597,,,,,0.5641158066339785,2031,1569,0,,BLACK,,,0,,BLACK,True,CORRECT,0.6658864999990328,665.8864999990328
6,20260325_140431,D,J,False,MANUAL,4,21,1321,fixed_delta,0.04169584712997743,0.012883078076194597,,,,,0.5436076910388155,1957,1643,0,,BLACK,,,0,,BLACK,True,CORRECT,0.4925275000023248,492.5275000023248
6,20260325_140431,D,J,False,MANUAL,4,22,1322,fixed_delta,0.04169584712997743,0.012883078076194597,,,,,0.45965476388472776,1655,1945,0,,WHITE,,,0,,WHITE,True,CORRECT,0.6296656000013172,629.6656000013172
6,20260325_140431,D,J,False,MANUAL,4,23,1323,fixed_delta,0.04169584712997743,0.012883078076194597,,,,,0.4707779157559952,1695,1905,0,,WHITE,,,0,,WHITE,True,CORRECT,0.659772899998643,659.772899998643
6,20260325_140431,D,J,False,MANUAL,4,24,1324,fixed_delta,0.04169584712997743,0.012883078076194597,,,,,0.5356440617005259,1928,1672,0,,BLACK,,,0,,BLACK,True,CORRECT,0.8812881000012567,881.2881000012567
6,20260325_140431,D,J,False,MANUAL,4,25,1325,fixed_delta,0.04169584712997743,0.012883078076194597,,,,,0.5299233539974406,1908,1692,0,,BLACK,,,0,,BLACK,True,CORRECT,0.9237792000021727,923.7792000021727
6,20260325_140431,D,J,False,MANUAL,4,26,1326,fixed_delta,0.04169584712997743,0.012883078076194597,,,,,0.5420759778504158,1951,1649,0,,BLACK,,,0,,WHITE,False,INCORRECT,0.9673548999999184,967.3548999999184
6,20260325_140431,D,J,False,MANUAL,4,27,1327,fixed_delta,0.04169584712997743,0.012883078076194597,,,,,0.4560383668575121,1642,1958,0,,WHITE,,,0,,WHITE,True,CORRECT,0.48771230000056676,487.71230000056676
6,20260325_140431,D,J,False,MANUAL,4,28,1328,fixed_delta,0.04169584712997743,0.012883078076194597,,,,,0.45340176622072015,1632,1968,0,,WHITE,,,0,,WHITE,True,CORRECT,0.4580556000000797,458.0556000000797
6,20260325_140431,D,J,False,MANUAL,4,29,1329,fixed_delta,0.04169584712997743,0.012883078076194597,,,,,0.5461638606595658,1966,1634,0,,BLACK,,,0,,BLACK,True,CORRECT,0.8410796000025584,841.0796000025584
6,20260325_140431,D,J,False,MANUAL,4,30,1330,fixed_delta,0.04169584712997743,0.012883078076194597,,,,,0.4578839991589007,1648,1952,0,,WHITE,,,0,,WHITE,True,CORRECT,0.7745892999992066,774.5892999992066
6,20260325_140431,D,J,False,MANUAL,4,31,1331,fixed_delta,0.04169584712997743,0.012883078076194597,,,,,0.46774207856927635,1684,1916,0,,WHITE,,,0,,WHITE,True,CORRECT,0.7216214000000036,721.6214000000036
6,20260325_140431,D,J,False,MANUAL,4,32,1332,fixed_delta,0.04169584712997743,0.012883078076194597,,,,,0.5549391929043341,1998,1602,0,,BLACK,,,0,,BLACK,True,CORRECT,0.6911927000001015,691.1927000001015
6,20260325_140431,D,J,False,MANUAL,4,33,1333,fixed_delta,0.04169584712997743,0.012883078076194597,,,,,0.537318208951887,1934,1666,0,,BLACK,,,0,,BLACK,True,CORRECT,0.8569161000013992,856.9161000013992
6,20260325_140431,D,J,False,MANUAL,4,34,1334,fixed_delta,0.04169584712997743,0.012883078076194597,,,,,0.4687150298299453,1687,1913,0,,WHITE,,,0,,WHITE,True,CORRECT,0.7063797999981034,706.3797999981034
6,20260325_140431,D,J,False,MANUAL,4,35,1335,fixed_delta,0.04169584712997743,0.012883078076194597,,,,,0.5316296918198078,1914,1686,0,,BLACK,,,0,,BLACK,True,CORRECT,0.8725745000010647,872.5745000010647
6,20260325_140431,D,J,False,MANUAL,4,36,1336,fixed_delta,0.04169584712997743,0.012883078076194597,,,,,0.5516959033190568,1986,1614,0,,BLACK,,,0,,BLACK,True,CORRECT,0.821714300000167,821.714300000167
6,20260325_140431,D,J,False,MANUAL,4,37,1337,fixed_delta,0.04169584712997743,0.012883078076194597,,,,,0.5487594330149709,1976,1624,0,,BLACK,,,0,,BLACK,True,CORRECT,1.0488628999992216,1048.8628999992216
6,20260325_140431,D,J,False,MANUAL,4,38,1338,fixed_delta,0.04169584712997743,0.012883078076194597,,,,,0.44794786244395896,1613,1987,0,,WHITE,,,0,,WHITE,True,CORRECT,0.5726767000014661,572.6767000014661
6,20260325_140431,D,J,False,MANUAL,4,39,1339,fixed_delta,0.04169584712997743,0.012883078076194597,,,,,0.5610814350377087,2020,1580,0,,BLACK,,,0,,BLACK,True,CORRECT,0.5279713999989326,527.9713999989326
6,20260325_140431,D,J,False,MANUAL,4,40,1340,fixed_delta,0.04169584712997743,0.012883078076194597,,,,,0.45862884952758387,1651,1949,0,,WHITE,,,0,,BLACK,False,INCORRECT,0.6950266000021657,695.0266000021657
6,20260325_140431,D,J,False,MANUAL,4,41,1341,fixed_delta,0.04169584712997743,0.012883078076194597,,,,,0.45327959893611,1632,1968,0,,WHITE,,,0,,WHITE,True,CORRECT,0.4217733000004955,421.7733000004955
6,20260325_140431,D,J,False,MANUAL,4,42,1342,fixed_delta,0.04169584712997743,0.012883078076194597,,,,,0.5407099383130849,1947,1653,0,,BLACK,,,0,,BLACK,True,CORRECT,0.5315803999983473,531.5803999983473
6,20260325_140431,D,J,False,MANUAL,4,43,1343,fixed_delta,0.04169584712997743,0.012883078076194597,,,,,0.5307159386307777,1911,1689,0,,BLACK,,,0,,BLACK,True,CORRECT,0.4752377999975579,475.2377999975579
6,20260325_140431,D,J,False,MANUAL,4,44,1344,fixed_delta,0.04169584712997743,0.012883078076194597,,,,,0.5463709549802042,1967,1633,0,,BLACK,,,0,,BLACK,True,CORRECT,0.8752543000009609,875.2543000009609
6,20260325_140431,D,J,False,MANUAL,4,45,1345,fixed_delta,0.04169584712997743,0.012883078076194597,,,,,0.46402921797368635,1671,1929,0,,WHITE,,,0,,WHITE,True,CORRECT,0.6061575999992783,606.1575999992783
6,20260325_140431,D,J,False,MANUAL,4,46,1346,fixed_delta,0.04169584712997743,0.012883078076194597,,,,,0.47089409872293503,1695,1905,0,,WHITE,,,0,,WHITE,True,CORRECT,0.5805401999969035,580.5401999969035
6,20260325_140431,D,J,False,MANUAL,4,47,1347,fixed_delta,0.04169584712997743,0.012883078076194597,,,,,0.43064004160888303,1550,2050,0,,WHITE,,,0,,WHITE,True,CORRECT,0.5600984999982757,560.0984999982757
6,20260325_140431,D,J,False,MANUAL,4,48,1348,fixed_delta,0.04169584712997743,0.012883078076194597,,,,,0.5343863374519796,1924,1676,0,,BLACK,,,0,,BLACK,True,CORRECT,0.8305767999991076,830.5767999991076
6,20260325_140431,D,J,False,MANUAL,4,49,1349,fixed_delta,0.04169584712997743,0.012883078076194597,,,,,0.45820321250189167,1650,1950,0,,WHITE,,,0,,WHITE,True,CORRECT,0.5171988000001875,517.1988000001875
6,20260325_140431,D,J,False,MANUAL,4,50,1350,fixed_delta,0.04169584712997743,0.012883078076194597,,,,,0.529842305101908,1907,1693,0,,BLACK,,,0,,BLACK,True,CORRECT,1.1093828999983089,1109.3828999983089
6,20260325_140431,D,J,False,MANUAL,4,51,1351,fixed_delta,0.04169584712997743,0.012883078076194597,,,,,0.4583505643369092,1650,1950,0,,WHITE,,,0,,WHITE,True,CORRECT,0.5059107000015501,505.91070000155014
6,20260325_140431,D,J,False,MANUAL,4,52,1352,fixed_delta,0.04169584712997743,0.012883078076194597,,,,,0.5511568635627689,1984,1616,0,,BLACK,,,0,,BLACK,True,CORRECT,1.3592079000009107,1359.2079000009107
6,20260325_140431,D,J,False,MANUAL,4,53,1353,fixed_delta,0.04169584712997743,0.012883078076194597,,,,,0.5394670094229818,1942,1658,0,,BLACK,,,0,,BLACK,True,CORRECT,0.8511351000015566,851.1351000015566
6,20260325_140431,D,J,False,MANUAL,4,54,1354,fixed_delta,0.04169584712997743,0.012883078076194597,,,,,0.5455392411131984,1964,1636,0,,BLACK,,,0,,BLACK,True,CORRECT,0.5401918000025034,540.1918000025034
6,20260325_140431,D,J,False,MANUAL,4,55,1355,fixed_delta,0.04169584712997743,0.012883078076194597,,,,,0.5470064438344586,1969,1631,0,,BLACK,,,0,,BLACK,True,CORRECT,0.5740388000012899,574.0388000012899
6,20260325_140431,D,J,False,MANUAL,4,56,1356,fixed_delta,0.04169584712997743,0.012883078076194597,,,,,0.5332651976230968,1920,1680,0,,BLACK,,,0,,WHITE,False,INCORRECT,0.6635329000018828,663.5329000018828
6,20260325_140431,D,J,False,MANUAL,4,57,1357,fixed_delta,0.04169584712997743,0.012883078076194597,,,,,0.4730667832290128,1703,1897,0,,WHITE,,,0,,WHITE,True,CORRECT,0.4003134000013233,400.3134000013233
6,20260325_140431,D,J,False,MANUAL,4,58,1358,fixed_delta,0.04169584712997743,0.012883078076194597,,,,,0.4413098973013908,1589,2011,0,,WHITE,,,0,,WHITE,True,CORRECT,0.528319900000497,528.319900000497
6,20260325_140431,D,J,False,MANUAL,4,59,1359,fixed_delta,0.04169584712997743,0.012883078076194597,,,,,0.5209038781326589,1875,1725,0,,BLACK,,,0,,BLACK,True,CORRECT,0.801598499998363,801.598499998363
6,20260325_140431,D,J,False,MANUAL,4,60,1360,fixed_delta,0.04169584712997743,0.012883078076194597,,,,,0.5408393449881594,1947,1653,0,,BLACK,,,0,,BLACK,True,CORRECT,0.48301619999983814,483.01619999983814
6,20260325_140431,D,J,False,MANUAL,4,61,1361,fixed_delta,0.04169584712997743,0.012883078076194597,,,,,0.5741529374523123,2067,1533,0,,BLACK,,,0,,BLACK,True,CORRECT,0.5211258999988786,521.1258999988786
6,20260325_140431,D,J,False,MANUAL,4,62,1362,fixed_delta,0.04169584712997743,0.012883078076194597,,,,,0.46227161528498745,1664,1936,0,,WHITE,,,0,,WHITE,True,CORRECT,0.8204014999973879,820.4014999973879
6,20260325_140431,D,J,False,MANUAL,4,63,1363,fixed_delta,0.04169584712997743,0.012883078076194597,,,,,0.5394580873313477,1942,1658,0,,BLACK,,,0,,WHITE,False,INCORRECT,0.7040955000011309,704.0955000011309
6,20260325_140431,D,J,False,MANUAL,4,64,1364,fixed_delta,0.04169584712997743,0.012883078076194597,,,,,0.5463324827425452,1967,1633,0,,BLACK,,,0,,WHITE,False,INCORRECT,0.5223895000017365,522.3895000017365
6,20260325_140431,D,J,False,MANUAL,4,65,1365,fixed_delta,0.04169584712997743,0.012883078076194597,,,,,0.4529039564690254,1630,1970,0,,WHITE,,,0,,WHITE,True,CORRECT,0.5982175999997708,598.2175999997708
6,20260325_140431,D,J,False,MANUAL,4,66,1366,fixed_delta,0.04169584712997743,0.012883078076194597,,,,,0.5361953208417275,1930,1670,0,,BLACK,,,0,,WHITE,False,INCORRECT,0.5442727999979979,544.2727999979979
6,20260325_140431,D,J,False,MANUAL,4,67,1367,fixed_delta,0.04169584712997743,0.012883078076194597,,,,,0.5344949170010614,1924,1676,0,,BLACK,,,0,,WHITE,False,INCORRECT,0.5346389999976964,534.6389999976964
6,20260325_140431,D,J,False,MANUAL,4,68,1368,fixed_delta,0.04169584712997743,0.012883078076194597,,,,,0.5337472391866377,1921,1679,0,,BLACK,,,0,,WHITE,False,INCORRECT,0.6261664999983623,626.1664999983623
6,20260325_140431,D,J,False,MANUAL,4,69,1369,fixed_delta,0.04169584712997743,0.012883078076194597,,,,,0.4683779492137272,1686,1914,0,,WHITE,,,0,,WHITE,True,CORRECT,0.5027539999973669,502.7539999973669
6,20260325_140431,D,J,False,MANUAL,4,70,1370,fixed_delta,0.04169584712997743,0.012883078076194597,,,,,0.48162730581205654,1734,1866,0,,WHITE,,,0,,WHITE,True,CORRECT,0.49828960000013467,498.28960000013467
6,20260325_140431,D,J,False,MANUAL,4,71,1371,fixed_delta,0.04169584712997743,0.012883078076194597,,,,,0.545222256188715,1963,1637,0,,BLACK,,,0,,BLACK,True,CORRECT,1.1135017999986303,1113.5017999986303
6,20260325_140431,D,J,False,MANUAL,4,72,1372,fixed_delta,0.04169584712997743,0.012883078076194597,,,,,0.45761317352357045,1647,1953,0,,WHITE,,,0,,WHITE,True,CORRECT,0.5430940999976883,543.0940999976883
6,20260325_140431,D,J,False,MANUAL,4,73,1373,fixed_delta,0.04169584712997743,0.012883078076194597,,,,,0.5388329883172388,1940,1660,0,,BLACK,,,0,,BLACK,True,CORRECT,0.5414854999980889,541.4854999980889
6,20260325_140431,D,J,False,MANUAL,4,74,1374,fixed_delta,0.04169584712997743,0.012883078076194597,,,,,0.4689953232892714,1688,1912,0,,WHITE,,,0,,WHITE,True,CORRECT,0.5439559000005829,543.9559000005829
6,20260325_140431,D,J,False,MANUAL,4,75,1375,fixed_delta,0.04169584712997743,0.012883078076194597,,,,,0.4670153061904145,1681,1919,0,,WHITE,,,0,,WHITE,True,CORRECT,0.6201837000007799,620.1837000007799
6,20260325_140431,D,J,False,MANUAL,4,76,1376,fixed_delta,0.04169584712997743,0.012883078076194597,,,,,0.4676369816900586,1683,1917,0,,WHITE,,,0,,WHITE,True,CORRECT,0.5153146000011475,515.3146000011475
6,20260325_140431,D,J,False,MANUAL,4,77,1377,fixed_delta,0.04169584712997743,0.012883078076194597,,,,,0.5456954719738477,1965,1635,0,,BLACK,,,0,,BLACK,True,CORRECT,0.5524098999994749,552.4098999994749
6,20260325_140431,D,J,False,MANUAL,4,78,1378,fixed_delta,0.04169584712997743,0.012883078076194597,,,,,0.533124379002628,1919,1681,0,,BLACK,,,0,,WHITE,False,INCORRECT,0.6048610999969242,604.8610999969242
6,20260325_140431,D,J,False,MANUAL,4,79,1379,fixed_delta,0.04169584712997743,0.012883078076194597,,,,,0.4625180831459727,1665,1935,0,,WHITE,,,0,,WHITE,True,CORRECT,0.5073412999990978,507.3412999990978
6,20260325_140431,D,J,False,MANUAL,4,80,1380,fixed_delta,0.04169584712997743,0.012883078076194597,,,,,0.5514571312117215,1985,1615,0,,BLACK,,,0,,BLACK,True,CORRECT,0.586259899999277,586.259899999277
6,20260325_140431,D,J,False,MANUAL,4,81,1381,fixed_delta,0.04169584712997743,0.012883078076194597,,,,,0.45627323369689443,1643,1957,0,,WHITE,,,0,,WHITE,True,CORRECT,0.5923829000021215,592.3829000021215
6,20260325_140431,D,J,False,MANUAL,4,82,1382,fixed_delta,0.04169584712997743,0.012883078076194597,,,,,0.44695031557383985,1609,1991,0,,WHITE,,,0,,WHITE,True,CORRECT,0.5174001000013959,517.4001000013959
6,20260325_140431,D,J,False,MANUAL,4,83,1383,fixed_delta,0.04169584712997743,0.012883078076194597,,,,,0.5417197289193281,1950,1650,0,,BLACK,,,0,,BLACK,True,CORRECT,0.712604200001806,712.604200001806
6,20260325_140431,D,J,False,MANUAL,4,84,1384,fixed_delta,0.04169584712997743,0.012883078076194597,,,,,0.5421805048634538,1952,1648,0,,BLACK,,,0,,WHITE,False,INCORRECT,0.5417119000012462,541.7119000012462
6,20260325_140431,D,J,False,MANUAL,4,85,1385,fixed_delta,0.04169584712997743,0.012883078076194597,,,,,0.5772515360880559,2078,1522,0,,BLACK,,,0,,BLACK,True,CORRECT,0.486798900001304,486.798900001304
6,20260325_140431,D,J,False,MANUAL,4,86,1386,fixed_delta,0.04169584712997743,0.012883078076194597,,,,,0.4509590458412694,1623,1977,0,,WHITE,,,0,,WHITE,True,CORRECT,0.4900610000004235,490.0610000004235
6,20260325_140431,D,J,False,MANUAL,4,87,1387,fixed_delta,0.04169584712997743,0.012883078076194597,,,,,0.4650961517164677,1674,1926,0,,WHITE,,,0,,WHITE,True,CORRECT,0.5073174999997718,507.3174999997718
6,20260325_140431,D,J,False,MANUAL,4,88,1388,fixed_delta,0.04169584712997743,0.012883078076194597,,,,,0.472777835534425,1702,1898,0,,WHITE,,,0,,WHITE,True,CORRECT,0.4788345000015397,478.8345000015397
6,20260325_140431,D,J,False,MANUAL,4,89,1389,fixed_delta,0.04169584712997743,0.012883078076194597,,,,,0.53665621791517,1932,1668,0,,BLACK,,,0,,WHITE,False,INCORRECT,0.5269679999983055,526.9679999983055
6,20260325_140431,D,J,False,MANUAL,4,90,1390,fixed_delta,0.04169584712997743,0.012883078076194597,,,,,0.4517332660778287,1626,1974,0,,WHITE,,,0,,WHITE,True,CORRECT,0.5614730999986932,561.4730999986932
6,20260325_140431,D,J,False,MANUAL,4,91,1391,fixed_delta,0.04169584712997743,0.012883078076194597,,,,,0.5488884891139038,1976,1624,0,,BLACK,,,0,,BLACK,True,CORRECT,0.8289790999988327,828.9790999988327
6,20260325_140431,D,J,False,MANUAL,4,92,1392,fixed_delta,0.04169584712997743,0.012883078076194597,,,,,0.5417983024329055,1950,1650,0,,BLACK,,,0,,BLACK,True,CORRECT,0.6984510000002047,698.4510000002047
6,20260325_140431,D,J,False,MANUAL,4,93,1393,fixed_delta,0.04169584712997743,0.012883078076194597,,,,,0.4366983784286863,1572,2028,0,,WHITE,,,0,,WHITE,True,CORRECT,0.5758110999995552,575.8110999995552
6,20260325_140431,D,J,False,MANUAL,4,94,1394,fixed_delta,0.04169584712997743,0.012883078076194597,,,,,0.5485367399429886,1975,1625,0,,BLACK,,,0,,BLACK,True,CORRECT,0.8316376999973727,831.6376999973727
6,20260325_140431,D,J,False,MANUAL,4,95,1395,fixed_delta,0.04169584712997743,0.012883078076194597,,,,,0.5681986356615292,2046,1554,0,,BLACK,,,0,,BLACK,True,CORRECT,0.5392848999981652,539.2848999981652
6,20260325_140431,D,J,False,MANUAL,4,96,1396,fixed_delta,0.04169584712997743,0.012883078076194597,,,,,0.47890994750098487,1724,1876,0,,WHITE,,,0,,WHITE,True,CORRECT,1.0093502000017907,1009.3502000017907
6,20260325_140431,D,J,False,MANUAL,4,97,1397,fixed_delta,0.04169584712997743,0.012883078076194597,,,,,0.4486280406105466,1615,1985,0,,WHITE,,,0,,WHITE,True,CORRECT,0.5986212999996496,598.6212999996496
6,20260325_140431,D,J,False,MANUAL,4,98,1398,fixed_delta,0.04169584712997743,0.012883078076194597,,,,,0.46958821483523006,1691,1909,0,,WHITE,,,0,,WHITE,True,CORRECT,0.6343379999998433,634.3379999998433
6,20260325_140431,D,J,False,MANUAL,4,99,1399,fixed_delta,0.04169584712997743,0.012883078076194597,,,,,0.5207365166424259,1875,1725,0,,BLACK,,,0,,BLACK,True,CORRECT,0.7857499000019743,785.7499000019743
6,20260325_140431,D,J,False,MANUAL,4,100,1400,fixed_delta,0.04169584712997743,0.012883078076194597,,,,,0.4366892921811176,1572,2028,0,,WHITE,,,0,,WHITE,True,CORRECT,0.5215108999982476,521.5108999982476
6,20260325_140431,D,J,False,MANUAL,4,101,1401,fixed_delta,0.04169584712997743,0.012883078076194597,,,,,0.5002777777777778,1801,1799,0,,BLACK,,,0,,WHITE,False,INCORRECT,0.5787658000008378,578.7658000008378
6,20260325_140431,D,J,False,MANUAL,4,102,1402,fixed_delta,0.04169584712997743,0.012883078076194597,,,,,0.4692426267330865,1689,1911,0,,WHITE,,,0,,WHITE,True,CORRECT,0.5376652000013564,537.6652000013564
6,20260325_140431,D,J,False,MANUAL,4,103,1403,fixed_delta,0.04169584712997743,0.012883078076194597,,,,,0.5477539121595297,1972,1628,0,,BLACK,,,0,,BLACK,True,CORRECT,0.9016945000003034,901.6945000003034
6,20260325_140431,D,J,False,MANUAL,4,104,1404,fixed_delta,0.04169584712997743,0.012883078076194597,,,,,0.4784862484150416,1723,1877,0,,WHITE,,,0,,WHITE,True,CORRECT,0.5899699000001419,589.9699000001419
6,20260325_140431,D,J,False,MANUAL,4,105,1405,fixed_delta,0.04169584712997743,0.012883078076194597,,,,,0.5421774336015183,1952,1648,0,,BLACK,,,0,,BLACK,True,CORRECT,0.9129771000007167,912.9771000007167
6,20260325_140431,D,J,False,MANUAL,4,106,1406,fixed_delta,0.04169584712997743,0.012883078076194597,,,,,0.44651620783235263,1607,1993,0,,WHITE,,,0,,WHITE,True,CORRECT,0.5968798000030802,596.8798000030802
6,20260325_140431,D,J,False,MANUAL,4,107,1407,fixed_delta,0.04169584712997743,0.012883078076194597,,,,,0.46560470176646757,1676,1924,0,,WHITE,,,0,,BLACK,False,INCORRECT,1.0945189999983995,1094.5189999983995
6,20260325_140431,D,J,False,MANUAL,4,108,1408,fixed_delta,0.04169584712997743,0.012883078076194597,,,,,0.5411237537093931,1948,1652,0,,BLACK,,,0,,BLACK,True,CORRECT,0.6407031999988249,640.7031999988249
6,20260325_140431,D,J,False,MANUAL,4,109,1409,fixed_delta,0.04169584712997743,0.012883078076194597,,,,,0.4528511602910527,1630,1970,0,,WHITE,,,0,,WHITE,True,CORRECT,0.5317727000001469,531.7727000001469
6,20260325_140431,D,J,False,MANUAL,4,110,1410,fixed_delta,0.04169584712997743,0.012883078076194597,,,,,0.44856492976854623,1615,1985,0,,WHITE,,,0,,WHITE,True,CORRECT,0.6775520000010147,677.5520000010147
6,20260325_140431,D,J,False,MANUAL,4,111,1411,fixed_delta,0.04169584712997743,0.012883078076194597,,,,,0.4710165711826261,1696,1904,0,,WHITE,,,0,,WHITE,True,CORRECT,0.6409825999980967,640.9825999980967
6,20260325_140431,D,J,False,MANUAL,4,112,1412,fixed_delta,0.04169584712997743,0.012883078076194597,,,,,0.4495563278974678,1618,1982,0,,WHITE,,,0,,WHITE,True,CORRECT,0.7089336000026378,708.9336000026378
6,20260325_140431,D,J,False,MANUAL,4,113,1413,fixed_delta,0.04169584712997743,0.012883078076194597,,,,,0.5187162837116355,1867,1733,0,,BLACK,,,0,,BLACK,True,CORRECT,0.8615833999974711,861.5833999974711
6,20260325_140431,D,J,False,MANUAL,4,114,1414,fixed_delta,0.04169584712997743,0.012883078076194597,,,,,0.5341348941031172,1923,1677,0,,BLACK,,,0,,WHITE,False,INCORRECT,0.7980132000011508,798.0132000011508
6,20260325_140431,D,J,False,MANUAL,4,115,1415,fixed_delta,0.04169584712997743,0.012883078076194597,,,,,0.4725139933973821,1701,1899,0,,WHITE,,,0,,BLACK,False,INCORRECT,1.1522729999996955,1152.2729999996955
6,20260325_140431,D,J,False,MANUAL,4,116,1416,fixed_delta,0.04169584712997743,0.012883078076194597,,,,,0.4326340680540396,1557,2043,0,,WHITE,,,0,,WHITE,True,CORRECT,0.5672501999979431,567.2501999979431
6,20260325_140431,D,J,False,MANUAL,4,117,1417,fixed_delta,0.04169584712997743,0.012883078076194597,,,,,0.4555010968606736,1640,1960,0,,WHITE,,,0,,WHITE,True,CORRECT,2.5867623000012827,2586.7623000012827
6,20260325_140431,D,J,False,MANUAL,4,118,1418,fixed_delta,0.04169584712997743,0.012883078076194597,,,,,0.44126992186817715,1589,2011,0,,WHITE,,,0,,WHITE,True,CORRECT,0.7528060999975423,752.8060999975423
6,20260325_140431,D,J,False,MANUAL,4,119,1419,fixed_delta,0.04169584712997743,0.012883078076194597,,,,,0.46785028844847265,1684,1916,0,,WHITE,,,0,,WHITE,True,CORRECT,0.5539052999993146,553.9052999993146
6,20260325_140431,D,J,False,MANUAL,4,120,1420,fixed_delta,0.04169584712997743,0.012883078076194597,,,,,0.5470999606698878,1970,1630,0,,BLACK,,,0,,WHITE,False,INCORRECT,0.6358578000035777,635.8578000035777
6,20260325_140431,D,J,False,MANUAL,4,121,1421,fixed_delta,0.04169584712997743,0.012883078076194597,,,,,0.5511416686713285,1984,1616,0,,BLACK,,,0,,BLACK,True,CORRECT,0.48555120000310126,485.55120000310126
6,20260325_140431,D,J,False,MANUAL,4,122,1422,fixed_delta,0.04169584712997743,0.012883078076194597,,,,,0.43983944974107747,1583,2017,0,,WHITE,,,0,,BLACK,False,INCORRECT,0.11967650000224239,119.67650000224239
6,20260325_140431,D,J,False,MANUAL,4,123,1423,fixed_delta,0.04169584712997743,0.012883078076194597,,,,,0.5488380356987554,1976,1624,0,,BLACK,,,0,,BLACK,True,CORRECT,0.6522407000011299,652.2407000011299
6,20260325_140431,D,J,False,MANUAL,4,124,1424,fixed_delta,0.04169584712997743,0.012883078076194597,,,,,0.5520525788056058,1987,1613,0,,BLACK,,,0,,BLACK,True,CORRECT,0.6059002000001783,605.9002000001783
6,20260325_140431,D,J,False,MANUAL,4,125,1425,fixed_delta,0.04169584712997743,0.012883078076194597,,,,,0.5285942382584469,1903,1697,0,,BLACK,,,0,,BLACK,True,CORRECT,0.6075598000024911,607.5598000024911
6,20260325_140431,D,J,False,MANUAL,4,126,1426,fixed_delta,0.04169584712997743,0.012883078076194597,,,,,0.5479690406961265,1973,1627,0,,BLACK,,,0,,BLACK,True,CORRECT,0.572020399999019,572.020399999019
6,20260325_140431,D,J,False,MANUAL,4,127,1427,fixed_delta,0.04169584712997743,0.012883078076194597,,,,,0.45156631777457235,1626,1974,0,,WHITE,,,0,,WHITE,True,CORRECT,1.072136999999202,1072.136999999202
6,20260325_140431,D,J,False,MANUAL,4,128,1428,fixed_delta,0.04169584712997743,0.012883078076194597,,,,,0.4610970722575483,1660,1940,0,,WHITE,,,0,,WHITE,True,CORRECT,0.5623833999998169,562.3833999998169
6,20260325_140431,D,J,False,MANUAL,4,129,1429,fixed_delta,0.04169584712997743,0.012883078076194597,,,,,0.5512342937967634,1984,1616,0,,BLACK,,,0,,BLACK,True,CORRECT,0.5494541000007303,549.4541000007303
6,20260325_140431,D,J,False,MANUAL,4,130,1430,fixed_delta,0.04169584712997743,0.012883078076194597,,,,,0.5526570772266953,1990,1610,0,,BLACK,,,0,,BLACK,True,CORRECT,0.4741398999976809,474.1398999976809
6,20260325_140431,D,J,False,MANUAL,4,131,1431,fixed_delta,0.04169584712997743,0.012883078076194597,,,,,0.5245795455974173,1888,1712,0,,BLACK,,,0,,BLACK,True,CORRECT,0.4859193999982381,485.9193999982381
6,20260325_140431,D,J,False,MANUAL,4,132,1432,fixed_delta,0.04169584712997743,0.012883078076194597,,,,,0.5624561843732868,2025,1575,0,,BLACK,,,0,,BLACK,True,CORRECT,0.44176380000135396,441.76380000135396
6,20260325_140431,D,J,False,MANUAL,4,133,1433,fixed_delta,0.04169584712997743,0.012883078076194597,,,,,0.45851223000323743,1651,1949,0,,WHITE,,,0,,WHITE,True,CORRECT,0.5633107999965432,563.3107999965432
6,20260325_140431,D,J,False,MANUAL,4,134,1434,fixed_delta,0.04169584712997743,0.012883078076194597,,,,,0.4634418562817849,1668,1932,0,,WHITE,,,0,,WHITE,True,CORRECT,0.4832167999993544,483.2167999993544
6,20260325_140431,D,J,False,MANUAL,4,135,1435,fixed_delta,0.04169584712997743,0.012883078076194597,,,,,0.5528256620993443,1990,1610,0,,BLACK,,,0,,BLACK,True,CORRECT,0.7801288000009663,780.1288000009663
6,20260325_140431,D,J,False,MANUAL,4,136,1436,fixed_delta,0.04169584712997743,0.012883078076194597,,,,,0.5467891277701263,1968,1632,0,,BLACK,,,0,,BLACK,True,CORRECT,0.783451100000093,783.451100000093
6,20260325_140431,D,J,False,MANUAL,4,137,1437,fixed_delta,0.04169584712997743,0.012883078076194597,,,,,0.4600179573567322,1656,1944,0,,WHITE,,,0,,WHITE,True,CORRECT,0.5927618999994593,592.7618999994593
6,20260325_140431,D,J,False,MANUAL,4,138,1438,fixed_delta,0.04169584712997743,0.012883078076194597,,,,,0.5340842689595199,1923,1677,0,,BLACK,,,0,,WHITE,False,INCORRECT,0.5278725000025588,527.8725000025588
6,20260325_140431,D,J,False,MANUAL,4,139,1439,fixed_delta,0.04169584712997743,0.012883078076194597,,,,,0.543314464998574,1956,1644,0,,BLACK,,,0,,BLACK,True,CORRECT,0.636765799998102,636.765799998102
6,20260325_140431,D,J,False,MANUAL,4,140,1440,fixed_delta,0.04169584712997743,0.012883078076194597,,,,,0.551034656397433,1984,1616,0,,BLACK,,,0,,WHITE,False,INCORRECT,0.9480417999984638,948.0417999984638
6,20260325_140431,D,J,False,MANUAL,4,141,1441,fixed_delta,0.04169584712997743,0.012883078076194597,,,,,0.5278712223366193,1900,1700,0,,BLACK,,,0,,BLACK,True,CORRECT,1.182471500000247,1182.471500000247
6,20260325_140431,D,J,False,MANUAL,4,142,1442,fixed_delta,0.04169584712997743,0.012883078076194597,,,,,0.5613237053427196,2021,1579,0,,BLACK,,,0,,BLACK,True,CORRECT,1.3484576000009838,1348.4576000009838
6,20260325_140431,D,J,False,MANUAL,4,143,1443,fixed_delta,0.04169584712997743,0.012883078076194597,,,,,0.45388088435248836,1634,1966,0,,WHITE,,,0,,WHITE,True,CORRECT,0.636904200000572,636.904200000572
6,20260325_140431,D,J,False,MANUAL,4,144,1444,fixed_delta,0.04169584712997743,0.012883078076194597,,,,,0.5087771756798695,1832,1768,0,,BLACK,,,0,,BLACK,True,CORRECT,0.6617991999992228,661.7991999992228
6,20260325_140431,D,J,False,MANUAL,4,145,1445,fixed_delta,0.04169584712997743,0.012883078076194597,,,,,0.44520002234946526,1603,1997,0,,WHITE,,,0,,WHITE,True,CORRECT,0.5629954999967595,562.9954999967595
6,20260325_140431,D,J,False,MANUAL,4,146,1446,fixed_delta,0.04169584712997743,0.012883078076194597,,,,,0.4665407658628342,1680,1920,0,,WHITE,,,0,,WHITE,True,CORRECT,0.6267970000008063,626.7970000008063
6,20260325_140431,D,J,False,MANUAL,4,147,1447,fixed_delta,0.04169584712997743,0.012883078076194597,,,,,0.5389234136396163,1940,1660,0,,BLACK,,,0,,BLACK,True,CORRECT,0.6953738999982306,695.3738999982306
6,20260325_140431,D,J,False,MANUAL,4,148,1448,fixed_delta,0.04169584712997743,0.012883078076194597,,,,,0.4483156331907209,1614,1986,0,,WHITE,,,0,,WHITE,True,CORRECT,0.9570343999985198,957.0343999985198
6,20260325_140431,D,J,False,MANUAL,4,149,1449,fixed_delta,0.04169584712997743,0.012883078076194597,,,,,0.45046387867060667,1622,1978,0,,WHITE,,,0,,WHITE,True,CORRECT,0.5303667999978643,530.3667999978643
6,20260325_140431,D,J,False,MANUAL,4,150,1450,fixed_delta,0.04169584712997743,0.012883078076194597,,,,,0.4666126880121302,1680,1920,0,,WHITE,,,0,,WHITE,True,CORRECT,0.5370013000028848,537.0013000028848
6,20260325_140431,D,J,False,MANUAL,4,151,1451,fixed_delta,0.04169584712997743,0.012883078076194597,,,,,0.5342130358107734,1923,1677,0,,BLACK,,,0,,WHITE,False,INCORRECT,0.770964899998944,770.964899998944
6,20260325_140431,D,J,False,MANUAL,4,152,1452,fixed_delta,0.04169584712997743,0.012883078076194597,,,,,0.46819981269686983,1686,1914,0,,WHITE,,,0,,WHITE,True,CORRECT,0.5480282999997144,548.0282999997144
6,20260325_140431,D,J,False,MANUAL,4,153,1453,fixed_delta,0.04169584712997743,0.012883078076194597,,,,,0.5257963631693781,1893,1707,0,,BLACK,,,0,,BLACK,True,CORRECT,0.6642079000012018,664.2079000012018
6,20260325_140431,D,J,False,MANUAL,4,154,1454,fixed_delta,0.04169584712997743,0.012883078076194597,,,,,0.5405311918732092,1946,1654,0,,BLACK,,,0,,BLACK,True,CORRECT,0.8570553999998083,857.0553999998083
6,20260325_140431,D,J,False,MANUAL,4,155,1455,fixed_delta,0.04169584712997743,0.012883078076194597,,,,,0.46607691519919303,1678,1922,0,,WHITE,,,0,,WHITE,True,CORRECT,0.6795310999987123,679.5310999987123
6,20260325_140431,D,J,False,MANUAL,4,156,1456,fixed_delta,0.04169584712997743,0.012883078076194597,,,,,0.4598519826861603,1655,1945,0,,WHITE,,,0,,WHITE,True,CORRECT,0.5433468999981415,543.3468999981415
6,20260325_140431,D,J,False,MANUAL,4,157,1457,fixed_delta,0.04169584712997743,0.012883078076194597,,,,,0.4664884906984328,1679,1921,0,,WHITE,,,0,,WHITE,True,CORRECT,0.49451960000078543,494.51960000078543
6,20260325_140431,D,J,False,MANUAL,4,158,1458,fixed_delta,0.04169584712997743,0.012883078076194597,,,,,0.4257211048209883,1533,2067,0,,WHITE,,,0,,WHITE,True,CORRECT,0.4370625999981712,437.0625999981712
6,20260325_140431,D,J,False,MANUAL,4,159,1459,fixed_delta,0.04169584712997743,0.012883078076194597,,,,,0.45863215019019066,1651,1949,0,,WHITE,,,0,,WHITE,True,CORRECT,0.4699746000005689,469.9746000005689
6,20260325_140431,D,J,False,MANUAL,4,160,1460,fixed_delta,0.04169584712997743,0.012883078076194597,,,,,0.5702469875481043,2053,1547,0,,BLACK,,,0,,BLACK,True,CORRECT,0.71754940000028,717.54940000028
6,20260325_140431,D,J,False,MANUAL,4,161,1461,fixed_delta,0.04169584712997743,0.012883078076194597,,,,,0.5505262959937552,1982,1618,0,,BLACK,,,0,,BLACK,True,CORRECT,0.9005265999985568,900.5265999985568
6,20260325_140431,D,J,False,MANUAL,4,162,1462,fixed_delta,0.04169584712997743,0.012883078076194597,,,,,0.5421792801817669,1952,1648,0,,BLACK,,,0,,BLACK,True,CORRECT,1.162864300000365,1162.864300000365
6,20260325_140431,D,J,False,MANUAL,4,163,1463,fixed_delta,0.04169584712997743,0.012883078076194597,,,,,0.5446056297664624,1961,1639,0,,BLACK,,,0,,BLACK,True,CORRECT,0.6657503999995242,665.7503999995242
6,20260325_140431,D,J,False,MANUAL,4,164,1464,fixed_delta,0.04169584712997743,0.012883078076194597,,,,,0.5218331664046861,1879,1721,0,,BLACK,,,0,,WHITE,False,INCORRECT,1.0927795999996306,1092.7795999996306
6,20260325_140431,D,J,False,MANUAL,4,165,1465,fixed_delta,0.04169584712997743,0.012883078076194597,,,,,0.5473027246093033,1970,1630,0,,BLACK,,,0,,BLACK,True,CORRECT,0.4560321999997541,456.0321999997541
6,20260325_140431,D,J,False,MANUAL,4,166,1466,fixed_delta,0.04169584712997743,0.012883078076194597,,,,,0.5693783115802891,2050,1550,0,,BLACK,,,0,,BLACK,True,CORRECT,0.5328590999997687,532.8590999997687
6,20260325_140431,D,J,False,MANUAL,4,167,1467,fixed_delta,0.04169584712997743,0.012883078076194597,,,,,0.5283104595874144,1902,1698,0,,BLACK,,,0,,WHITE,False,INCORRECT,0.889555300000211,889.555300000211
6,20260325_140431,D,J,False,MANUAL,4,168,1468,fixed_delta,0.04169584712997743,0.012883078076194597,,,,,0.5479229626965223,1973,1627,0,,BLACK,,,0,,BLACK,True,CORRECT,0.587898400000995,587.898400000995
6,20260325_140431,D,J,False,MANUAL,4,169,1469,fixed_delta,0.04169584712997743,0.012883078076194597,,,,,0.539803720238248,1943,1657,0,,BLACK,,,0,,BLACK,True,CORRECT,0.6825027000013506,682.5027000013506
6,20260325_140431,D,J,False,MANUAL,4,170,1470,fixed_delta,0.04169584712997743,0.012883078076194597,,,,,0.5357807541887316,1929,1671,0,,BLACK,,,0,,BLACK,True,CORRECT,0.5774120999994921,577.412099999492
6,20260325_140431,D,J,False,MANUAL,4,171,1471,fixed_delta,0.04169584712997743,0.012883078076194597,,,,,0.5511727777873647,1984,1616,0,,BLACK,,,0,,BLACK,True,CORRECT,0.5797691000007035,579.7691000007035
6,20260325_140431,D,J,False,MANUAL,4,172,1472,fixed_delta,0.04169584712997743,0.012883078076194597,,,,,0.4569424341935829,1645,1955,0,,WHITE,,,0,,WHITE,True,CORRECT,0.7247085999988485,724.7085999988485
6,20260325_140431,D,J,False,MANUAL,4,173,1473,fixed_delta,0.04169584712997743,0.012883078076194597,,,,,0.4596296390379574,1655,1945,0,,WHITE,,,0,,WHITE,True,CORRECT,0.5905652999972517,590.5652999972517
6,20260325_140431,D,J,False,MANUAL,4,174,1474,fixed_delta,0.04169584712997743,0.012883078076194597,,,,,0.5369180827810521,1933,1667,0,,BLACK,,,0,,BLACK,True,CORRECT,1.1144268000025477,1114.4268000025477
6,20260325_140431,D,J,False,MANUAL,4,175,1475,fixed_delta,0.04169584712997743,0.012883078076194597,,,,,0.4522860247854018,1628,1972,0,,WHITE,,,0,,WHITE,True,CORRECT,0.8274257000011858,827.4257000011858
6,20260325_140431,D,J,False,MANUAL,4,176,1476,fixed_delta,0.04169584712997743,0.012883078076194597,,,,,0.5505052592287591,1982,1618,0,,BLACK,,,0,,BLACK,True,CORRECT,1.6944374999984575,1694.4374999984575
6,20260325_140431,D,J,False,MANUAL,4,177,1477,fixed_delta,0.04169584712997743,0.012883078076194597,,,,,0.44531742934929,1603,1997,0,,WHITE,,,0,,WHITE,True,CORRECT,0.9079830000009679,907.9830000009679
6,20260325_140431,D,J,False,MANUAL,4,178,1478,fixed_delta,0.04169584712997743,0.012883078076194597,,,,,0.5631395788678653,2027,1573,0,,BLACK,,,0,,WHITE,False,INCORRECT,0.9195432999986224,919.5432999986224
6,20260325_140431,D,J,False,MANUAL,4,179,1479,fixed_delta,0.04169584712997743,0.012883078076194597,,,,,0.544527570476528,1960,1640,0,,BLACK,,,0,,WHITE,False,INCORRECT,0.5418782000015199,541.8782000015199
6,20260325_140431,D,J,False,MANUAL,4,180,1480,fixed_delta,0.04169584712997743,0.012883078076194597,,,,,0.5459131373258111,1965,1635,0,,BLACK,,,0,,BLACK,True,CORRECT,0.44408430000112276,444.08430000112276
6,20260325_140431,D,J,False,MANUAL,4,181,1481,fixed_delta,0.04169584712997743,0.012883078076194597,,,,,0.4783975516518591,1722,1878,0,,WHITE,,,0,,BLACK,False,INCORRECT,0.4161493999999948,416.1493999999948
6,20260325_140431,D,J,False,MANUAL,4,182,1482,fixed_delta,0.04169584712997743,0.012883078076194597,,,,,0.4488669034775858,1616,1984,0,,WHITE,,,0,,BLACK,False,INCORRECT,0.4584834999986924,458.4834999986924
6,20260325_140431,D,J,False,MANUAL,4,183,1483,fixed_delta,0.04169584712997743,0.012883078076194597,,,,,0.5449235157292949,1962,1638,0,,BLACK,,,0,,BLACK,True,CORRECT,0.5068836999998894,506.88369999988936
6,20260325_140431,D,J,False,MANUAL,4,184,1484,fixed_delta,0.04169584712997743,0.012883078076194597,,,,,0.4595928651716889,1655,1945,0,,WHITE,,,0,,WHITE,True,CORRECT,0.525932799999282,525.932799999282
6,20260325_140431,D,J,False,MANUAL,4,185,1485,fixed_delta,0.04169584712997743,0.012883078076194597,,,,,0.4624862395237024,1665,1935,0,,WHITE,,,0,,BLACK,False,INCORRECT,1.1612055000005057,1161.2055000005057
6,20260325_140431,D,J,False,MANUAL,4,186,1486,fixed_delta,0.04169584712997743,0.012883078076194597,,,,,0.5207920616218255,1875,1725,0,,BLACK,,,0,,BLACK,True,CORRECT,0.6928305000001274,692.8305000001274
6,20260325_140431,D,J,False,MANUAL,4,187,1487,fixed_delta,0.04169584712997743,0.012883078076194597,,,,,0.5486778230226187,1975,1625,0,,BLACK,,,0,,BLACK,True,CORRECT,0.5037036000030639,503.7036000030639
6,20260325_140431,D,J,False,MANUAL,4,188,1488,fixed_delta,0.04169584712997743,0.012883078076194597,,,,,0.4513678723352985,1625,1975,0,,WHITE,,,0,,WHITE,True,CORRECT,0.6201126000014483,620.1126000014483
6,20260325_140431,D,J,False,MANUAL,4,189,1489,fixed_delta,0.04169584712997743,0.012883078076194597,,,,,0.45337120118452223,1632,1968,0,,WHITE,,,0,,WHITE,True,CORRECT,0.6196206000022357,619.6206000022357
6,20260325_140431,D,J,False,MANUAL,4,190,1490,fixed_delta,0.04169584712997743,0.012883078076194597,,,,,0.4881326005931258,1757,1843,0,,WHITE,,,0,,BLACK,False,INCORRECT,0.919986400000198,919.986400000198
6,20260325_140431,D,J,False,MANUAL,4,191,1491,fixed_delta,0.04169584712997743,0.012883078076194597,,,,,0.5398986183828711,1944,1656,0,,BLACK,,,0,,BLACK,True,CORRECT,0.752384899999015,752.384899999015
6,20260325_140431,D,J,False,MANUAL,4,192,1492,fixed_delta,0.04169584712997743,0.012883078076194597,,,,,0.5311369254100508,1912,1688,0,,BLACK,,,0,,WHITE,False,INCORRECT,0.7332755000024918,733.2755000024918
6,20260325_140431,D,J,False,MANUAL,4,193,1493,fixed_delta,0.04169584712997743,0.012883078076194597,,,,,0.5517050582276473,1986,1614,0,,BLACK,,,0,,BLACK,True,CORRECT,0.41396139999778825,413.96139999778825
6,20260325_140431,D,J,False,MANUAL,4,194,1494,fixed_delta,0.04169584712997743,0.012883078076194597,,,,,0.5461093857225338,1966,1634,0,,BLACK,,,0,,BLACK,True,CORRECT,0.716227599998092,716.227599998092
6,20260325_140431,D,J,False,MANUAL,4,195,1495,fixed_delta,0.04169584712997743,0.012883078076194597,,,,,0.541102959234265,1948,1652,0,,BLACK,,,0,,BLACK,True,CORRECT,0.5793792000004032,579.3792000004032
6,20260325_140431,D,J,False,MANUAL,4,196,1496,fixed_delta,0.04169584712997743,0.012883078076194597,,,,,0.4520294702143443,1627,1973,0,,WHITE,,,0,,WHITE,True,CORRECT,1.0379476000016439,1037.9476000016439
6,20260325_140431,D,J,False,MANUAL,4,197,1497,fixed_delta,0.04169584712997743,0.012883078076194597,,,,,0.5658997788360117,2037,1563,0,,BLACK,,,0,,BLACK,True,CORRECT,0.6074358000005304,607.4358000005304
6,20260325_140431,D,J,False,MANUAL,4,198,1498,fixed_delta,0.04169584712997743,0.012883078076194597,,,,,0.4537337850243925,1633,1967,0,,WHITE,,,0,,WHITE,True,CORRECT,0.8854178000001411,885.4178000001411
6,20260325_140431,D,J,False,MANUAL,4,199,1499,fixed_delta,0.04169584712997743,0.012883078076194597,,,,,0.5431869059715675,1955,1645,0,,BLACK,,,0,,WHITE,False,INCORRECT,0.5791233999989345,579.1233999989345
6,20260325_140431,D,J,False,MANUAL,4,200,1500,fixed_delta,0.04169584712997743,0.012883078076194597,,,,,0.5589958168551352,2012,1588,0,,BLACK,,,0,,BLACK,True,CORRECT,0.7994776999985334,799.4776999985334
6,20260325_140431,D,J,False,MANUAL,4,201,1501,fixed_delta,0.04169584712997743,0.012883078076194597,,,,,0.4566793622418209,1644,1956,0,,WHITE,,,0,,BLACK,False,INCORRECT,0.7049407000013161,704.9407000013161
6,20260325_140431,D,J,False,MANUAL,4,202,1502,fixed_delta,0.04169584712997743,0.012883078076194597,,,,,0.4637463610424087,1669,1931,0,,WHITE,,,0,,WHITE,True,CORRECT,0.45750910000060685,457.50910000060685
6,20260325_140431,D,J,False,MANUAL,4,203,1503,fixed_delta,0.04169584712997743,0.012883078076194597,,,,,0.4625601770625606,1665,1935,0,,WHITE,,,0,,WHITE,True,CORRECT,0.48850019999736105,488.50019999736105
6,20260325_140431,D,J,False,MANUAL,4,204,1504,fixed_delta,0.04169584712997743,0.012883078076194597,,,,,0.4641896634669927,1671,1929,0,,WHITE,,,0,,WHITE,True,CORRECT,0.5459315000007336,545.9315000007336
6,20260325_140431,D,J,False,MANUAL,4,205,1505,fixed_delta,0.04169584712997743,0.012883078076194597,,,,,0.4621758501185921,1664,1936,0,,WHITE,,,0,,WHITE,True,CORRECT,0.4758679000005941,475.8679000005941
6,20260325_140431,D,J,False,MANUAL,4,206,1506,fixed_delta,0.04169584712997743,0.012883078076194597,,,,,0.5375750663511633,1935,1665,0,,BLACK,,,0,,WHITE,False,INCORRECT,0.4792570000026899,479.2570000026899
6,20260325_140431,D,J,False,MANUAL,4,207,1507,fixed_delta,0.04169584712997743,0.012883078076194597,,,,,0.5281322905142786,1901,1699,0,,BLACK,,,0,,WHITE,False,INCORRECT,0.6087727000012819,608.7727000012819
6,20260325_140431,D,J,False,MANUAL,4,208,1508,fixed_delta,0.04169584712997743,0.012883078076194597,,,,,0.45259876518868425,1629,1971,0,,WHITE,,,0,,WHITE,True,CORRECT,0.443803600002866,443.803600002866
6,20260325_140431,D,J,False,MANUAL,4,209,1509,fixed_delta,0.04169584712997743,0.012883078076194597,,,,,0.45100467813598377,1624,1976,0,,WHITE,,,0,,WHITE,True,CORRECT,0.4439844999978959,443.9844999978959
6,20260325_140431,D,J,False,MANUAL,4,210,1510,fixed_delta,0.04169584712997743,0.012883078076194597,,,,,0.43850331712914326,1579,2021,0,,WHITE,,,0,,WHITE,True,CORRECT,0.38936549999925774,389.36549999925774
6,20260325_140431,D,J,False,MANUAL,4,211,1511,fixed_delta,0.04169584712997743,0.012883078076194597,,,,,0.46361914725720166,1669,1931,0,,WHITE,,,0,,WHITE,True,CORRECT,0.4717655000022205,471.7655000022205
6,20260325_140431,D,J,False,MANUAL,4,212,1512,fixed_delta,0.04169584712997743,0.012883078076194597,,,,,0.47165175910644486,1698,1902,0,,WHITE,,,0,,WHITE,True,CORRECT,0.47230879999915487,472.30879999915487
6,20260325_140431,D,J,False,MANUAL,4,213,1513,fixed_delta,0.04169584712997743,0.012883078076194597,,,,,0.540830266422941,1947,1653,0,,BLACK,,,0,,WHITE,False,INCORRECT,0.4010667000002286,401.0667000002286
6,20260325_140431,D,J,False,MANUAL,4,214,1514,fixed_delta,0.04169584712997743,0.012883078076194597,,,,,0.4567758151231296,1644,1956,0,,WHITE,,,0,,WHITE,True,CORRECT,0.5396318999992218,539.6318999992218
6,20260325_140431,D,J,False,MANUAL,4,215,1515,fixed_delta,0.04169584712997743,0.012883078076194597,,,,,0.46135005742505186,1661,1939,0,,WHITE,,,0,,WHITE,True,CORRECT,0.5617673000015202,561.7673000015202
6,20260325_140431,D,J,False,MANUAL,4,216,1516,fixed_delta,0.04169584712997743,0.012883078076194597,,,,,0.5480400721342134,1973,1627,0,,BLACK,,,0,,BLACK,True,CORRECT,0.6993705999993836,699.3705999993836
6,20260325_140431,D,J,False,MANUAL,4,217,1517,fixed_delta,0.04169584712997743,0.012883078076194597,,,,,0.4768413726179054,1717,1883,0,,WHITE,,,0,,WHITE,True,CORRECT,1.0597281000009389,1059.7281000009389
6,20260325_140431,D,J,False,MANUAL,4,218,1518,fixed_delta,0.04169584712997743,0.012883078076194597,,,,,0.5626093168838928,2025,1575,0,,BLACK,,,0,,BLACK,True,CORRECT,0.5207635999977356,520.7635999977356
6,20260325_140431,D,J,False,MANUAL,4,219,1519,fixed_delta,0.04169584712997743,0.012883078076194597,,,,,0.467101241969041,1682,1918,0,,WHITE,,,0,,WHITE,True,CORRECT,0.8892230000019481,889.2230000019481
6,20260325_140431,D,J,False,MANUAL,4,220,1520,fixed_delta,0.04169584712997743,0.012883078076194597,,,,,0.48560219956728207,1748,1852,0,,WHITE,,,0,,WHITE,True,CORRECT,0.580415799999173,580.415799999173
6,20260325_140431,D,J,False,MANUAL,4,221,1521,fixed_delta,0.04169584712997743,0.012883078076194597,,,,,0.5331698765821591,1919,1681,0,,BLACK,,,0,,BLACK,True,CORRECT,0.7060736000021279,706.0736000021279
6,20260325_140431,D,J,False,MANUAL,4,222,1522,fixed_delta,0.04169584712997743,0.012883078076194597,,,,,0.5186817298189303,1867,1733,0,,BLACK,,,0,,WHITE,False,INCORRECT,0.8527845999997226,852.7845999997226
6,20260325_140431,D,J,False,MANUAL,4,223,1523,fixed_delta,0.04169584712997743,0.012883078076194597,,,,,0.4471343916167801,1610,1990,0,,WHITE,,,0,,WHITE,True,CORRECT,0.5828438000025926,582.8438000025926
6,20260325_140431,D,J,False,MANUAL,4,224,1524,fixed_delta,0.04169584712997743,0.012883078076194597,,,,,0.46679970828239964,1680,1920,0,,WHITE,,,0,,WHITE,True,CORRECT,0.49775550000049407,497.75550000049407
6,20260325_140431,D,J,False,MANUAL,4,225,1525,fixed_delta,0.04169584712997743,0.012883078076194597,,,,,0.44218876473269003,1592,2008,0,,WHITE,,,0,,WHITE,True,CORRECT,0.45739980000143987,457.39980000143987
6,20260325_140431,D,J,False,MANUAL,4,226,1526,fixed_delta,0.04169584712997743,0.012883078076194597,,,,,0.5363870305596573,1931,1669,0,,BLACK,,,0,,WHITE,False,INCORRECT,0.5819627999990189,581.9627999990189
6,20260325_140431,D,J,False,MANUAL,4,227,1527,fixed_delta,0.04169584712997743,0.012883078076194597,,,,,0.4582150647964915,1650,1950,0,,WHITE,,,0,,BLACK,False,INCORRECT,0.6533941000016057,653.3941000016057
6,20260325_140431,D,J,False,MANUAL,4,228,1528,fixed_delta,0.04169584712997743,0.012883078076194597,,,,,0.5476239210261974,1971,1629,0,,BLACK,,,0,,BLACK,True,CORRECT,0.753233999999793,753.233999999793
6,20260325_140431,D,J,False,MANUAL,4,229,1529,fixed_delta,0.04169584712997743,0.012883078076194597,,,,,0.4603698634393976,1657,1943,0,,WHITE,,,0,,WHITE,True,CORRECT,0.6236777000012808,623.6777000012808
6,20260325_140431,D,J,False,MANUAL,4,230,1530,fixed_delta,0.04169584712997743,0.012883078076194597,,,,,0.5339129199944401,1922,1678,0,,BLACK,,,0,,WHITE,False,INCORRECT,0.8727794000005815,872.7794000005815
6,20260325_140431,D,J,False,MANUAL,4,231,1531,fixed_delta,0.04169584712997743,0.012883078076194597,,,,,0.5311628822034475,1912,1688,0,,BLACK,,,0,,WHITE,False,INCORRECT,0.5731951999987359,573.1951999987359
6,20260325_140431,D,J,False,MANUAL,4,232,1532,fixed_delta,0.04169584712997743,0.012883078076194597,,,,,0.47262639721130323,1701,1899,0,,WHITE,,,0,,WHITE,True,CORRECT,0.5477695999979915,547.7695999979915
6,20260325_140431,D,J,False,MANUAL,4,233,1533,fixed_delta,0.04169584712997743,0.012883078076194597,,,,,0.46711440353307043,1682,1918,0,,WHITE,,,0,,WHITE,True,CORRECT,0.5190247999998974,519.0247999998974
6,20260325_140431,D,J,False,MANUAL,4,234,1534,fixed_delta,0.04169584712997743,0.012883078076194597,,,,,0.5488807915838878,1976,1624,0,,BLACK,,,0,,WHITE,False,INCORRECT,0.5488906999999017,548.8906999999017
6,20260325_140431,D,J,False,MANUAL,4,235,1535,fixed_delta,0.04169584712997743,0.012883078076194597,,,,,0.5660999879184161,2038,1562,0,,BLACK,,,0,,WHITE,False,INCORRECT,0.40681060000133584,406.81060000133584
6,20260325_140431,D,J,False,MANUAL,4,236,1536,fixed_delta,0.04169584712997743,0.012883078076194597,,,,,0.5323419747323506,1916,1684,0,,BLACK,,,0,,WHITE,False,INCORRECT,0.5721997000000556,572.1997000000556
6,20260325_140431,D,J,False,MANUAL,4,237,1537,fixed_delta,0.04169584712997743,0.012883078076194597,,,,,0.5294317622287253,1906,1694,0,,BLACK,,,0,,BLACK,True,CORRECT,0.32618709999951534,326.18709999951534
6,20260325_140431,D,J,False,MANUAL,4,238,1538,fixed_delta,0.04169584712997743,0.012883078076194597,,,,,0.5432215459124483,1956,1644,0,,BLACK,,,0,,BLACK,True,CORRECT,0.43139739999969606,431.39739999969606
6,20260325_140431,D,J,False,MANUAL,4,239,1539,fixed_delta,0.04169584712997743,0.012883078076194597,,,,,0.5493679811643617,1978,1622,0,,BLACK,,,0,,BLACK,True,CORRECT,0.4288722000019334,428.8722000019334
6,20260325_140431,D,J,False,MANUAL,4,240,1540,fixed_delta,0.04169584712997743,0.012883078076194597,,,,,0.5294927339347018,1906,1694,0,,BLACK,,,0,,WHITE,False,INCORRECT,1.3339517999993404,1333.9517999993404
6,20260325_140431,D,J,False,MANUAL,4,241,1541,fixed_delta,0.04169584712997743,0.012883078076194597,,,,,0.4478616027517362,1612,1988,0,,WHITE,,,0,,WHITE,True,CORRECT,0.577861199999461,577.861199999461
6,20260325_140431,D,J,False,MANUAL,4,242,1542,fixed_delta,0.04169584712997743,0.012883078076194597,,,,,0.5486773188016427,1975,1625,0,,BLACK,,,0,,BLACK,True,CORRECT,0.4952620999974897,495.2620999974897
6,20260325_140431,D,J,False,MANUAL,4,243,1543,fixed_delta,0.04169584712997743,0.012883078076194597,,,,,0.44093177713775705,1587,2013,0,,WHITE,,,0,,WHITE,True,CORRECT,0.5476066000010178,547.6066000010178
6,20260325_140431,D,J,False,MANUAL,4,244,1544,fixed_delta,0.04169584712997743,0.012883078076194597,,,,,0.5645752184961753,2032,1568,0,,BLACK,,,0,,BLACK,True,CORRECT,0.6230188999979873,623.0188999979873
6,20260325_140431,D,J,False,MANUAL,4,245,1545,fixed_delta,0.04169584712997743,0.012883078076194597,,,,,0.5409020572007294,1947,1653,0,,BLACK,,,0,,BLACK,True,CORRECT,0.550308000001678,550.308000001678
6,20260325_140431,D,J,False,MANUAL,4,246,1546,fixed_delta,0.04169584712997743,0.012883078076194597,,,,,0.4748799846529311,1710,1890,0,,WHITE,,,0,,WHITE,True,CORRECT,0.7546440000005532,754.6440000005532
6,20260325_140431,D,J,False,MANUAL,4,247,1547,fixed_delta,0.04169584712997743,0.012883078076194597,,,,,0.5631571309496252,2027,1573,0,,BLACK,,,0,,BLACK,True,CORRECT,0.49091219999900204,490.91219999900204
6,20260325_140431,D,J,False,MANUAL,4,248,1548,fixed_delta,0.04169584712997743,0.012883078076194597,,,,,0.44169551377856975,1590,2010,0,,WHITE,,,0,,WHITE,True,CORRECT,0.6250175000022864,625.0175000022864
6,20260325_140431,D,J,False,MANUAL,4,249,1549,fixed_delta,0.04169584712997743,0.012883078076194597,,,,,0.467006893217383,1681,1919,0,,WHITE,,,0,,WHITE,True,CORRECT,1.0022602999997616,1002.2602999997616
6,20260325_140431,D,J,False,MANUAL,4,250,1550,fixed_delta,0.04169584712997743,0.012883078076194597,,,,,0.44219913081950085,1592,2008,0,,WHITE,,,0,,WHITE,True,CORRECT,0.533042100003513,533.042100003513
6,20260325_140431,D,J,False,MANUAL,4,251,1551,fixed_delta,0.04169584712997743,0.012883078076194597,,,,,0.5232440439219335,1884,1716,0,,BLACK,,,0,,BLACK,True,CORRECT,0.5346128000019235,534.6128000019235
6,20260325_140431,D,J,False,MANUAL,4,252,1552,fixed_delta,0.04169584712997743,0.012883078076194597,,,,,0.5336707728420246,1921,1679,0,,BLACK,,,0,,BLACK,True,CORRECT,0.5294847000004665,529.4847000004665
6,20260325_140431,D,J,False,MANUAL,4,253,1553,fixed_delta,0.04169584712997743,0.012883078076194597,,,,,0.4426178304284772,1593,2007,0,,WHITE,,,0,,WHITE,True,CORRECT,0.59542220000003,595.42220000003
6,20260325_140431,D,J,False,MANUAL,4,254,1554,fixed_delta,0.04169584712997743,0.012883078076194597,,,,,0.5489061535757673,1976,1624,0,,BLACK,,,0,,BLACK,True,CORRECT,0.504495199998928,504.495199998928
6,20260325_140431,D,J,False,MANUAL,4,255,1555,fixed_delta,0.04169584712997743,0.012883078076194597,,,,,0.4526174908276721,1629,1971,0,,WHITE,,,0,,WHITE,True,CORRECT,0.5083952999993926,508.3952999993926
6,20260325_140431,D,J,False,MANUAL,4,256,1556,fixed_delta,0.04169584712997743,0.012883078076194597,,,,,0.5641596387543598,2031,1569,0,,BLACK,,,0,,BLACK,True,CORRECT,0.43910069999765255,439.10069999765255
6,20260325_140431,D,J,False,MANUAL,4,257,1557,fixed_delta,0.04169584712997743,0.012883078076194597,,,,,0.467972840314017,1685,1915,0,,WHITE,,,0,,WHITE,True,CORRECT,0.6680601999978535,668.0601999978535
6,20260325_140431,D,J,False,MANUAL,4,258,1558,fixed_delta,0.04169584712997743,0.012883078076194597,,,,,0.5327230631496417,1918,1682,0,,BLACK,,,0,,BLACK,True,CORRECT,1.2983641000028001,1298.3641000028001
6,20260325_140431,D,J,False,MANUAL,4,259,1559,fixed_delta,0.04169584712997743,0.012883078076194597,,,,,0.45687018692502485,1645,1955,0,,WHITE,,,0,,WHITE,True,CORRECT,0.7718254999999772,771.8254999999772
6,20260325_140431,D,J,False,MANUAL,4,260,1560,fixed_delta,0.04169584712997743,0.012883078076194597,,,,,0.4795531974037685,1726,1874,0,,WHITE,,,0,,WHITE,True,CORRECT,0.5348560999991605,534.8560999991605
6,20260325_140431,D,J,False,MANUAL,4,261,1561,fixed_delta,0.04169584712997743,0.012883078076194597,,,,,0.45374935081766166,1633,1967,0,,WHITE,,,0,,WHITE,True,CORRECT,0.5288508000012371,528.8508000012371
6,20260325_140431,D,J,False,MANUAL,4,262,1562,fixed_delta,0.04169584712997743,0.012883078076194597,,,,,0.48498602689802306,1746,1854,0,,WHITE,,,0,,BLACK,False,INCORRECT,0.8307249999998021,830.7249999998021
6,20260325_140431,D,J,False,MANUAL,4,263,1563,fixed_delta,0.04169584712997743,0.012883078076194597,,,,,0.4671935008682549,1682,1918,0,,WHITE,,,0,,WHITE,True,CORRECT,0.602969799998391,602.969799998391
6,20260325_140431,D,J,False,MANUAL,4,264,1564,fixed_delta,0.04169584712997743,0.012883078076194597,,,,,0.4511179571542424,1624,1976,0,,WHITE,,,0,,WHITE,True,CORRECT,0.4725185000024794,472.5185000024794
6,20260325_140431,D,J,False,MANUAL,4,265,1565,fixed_delta,0.04169584712997743,0.012883078076194597,,,,,0.5571656111322579,2006,1594,0,,BLACK,,,0,,BLACK,True,CORRECT,0.7823621999996249,782.3621999996249
6,20260325_140431,D,J,False,MANUAL,4,266,1566,fixed_delta,0.04169584712997743,0.012883078076194597,,,,,0.5510240007315854,1984,1616,0,,BLACK,,,0,,WHITE,False,INCORRECT,0.918388900001446,918.388900001446
6,20260325_140431,D,J,False,MANUAL,4,267,1567,fixed_delta,0.04169584712997743,0.012883078076194597,,,,,0.4472195432733017,1610,1990,0,,WHITE,,,0,,WHITE,True,CORRECT,0.8164719999986119,816.4719999986119
6,20260325_140431,D,J,False,MANUAL,4,268,1568,fixed_delta,0.04169584712997743,0.012883078076194597,,,,,0.5292011340466887,1905,1695,0,,BLACK,,,0,,BLACK,True,CORRECT,0.6190408000002208,619.0408000002208
6,20260325_140431,D,J,False,MANUAL,4,269,1569,fixed_delta,0.04169584712997743,0.012883078076194597,,,,,0.5409680825938844,1947,1653,0,,BLACK,,,0,,WHITE,False,INCORRECT,0.6306188000016846,630.6188000016846
6,20260325_140431,D,J,False,MANUAL,4,270,1570,fixed_delta,0.04169584712997743,0.012883078076194597,,,,,0.5114405278556174,1841,1759,0,,BLACK,,,0,,WHITE,False,INCORRECT,0.6123603000014555,612.3603000014555
6,20260325_140431,D,J,False,MANUAL,4,271,1571,fixed_delta,0.04169584712997743,0.012883078076194597,,,,,0.43607243407788965,1570,2030,0,,WHITE,,,0,,WHITE,True,CORRECT,0.41489540000111447,414.89540000111447
6,20260325_140431,D,J,False,MANUAL,4,272,1572,fixed_delta,0.04169584712997743,0.012883078076194597,,,,,0.4568829359189547,1645,1955,0,,WHITE,,,0,,WHITE,True,CORRECT,0.4840132999997877,484.0132999997877
6,20260325_140431,D,J,False,MANUAL,4,273,1573,fixed_delta,0.04169584712997743,0.012883078076194597,,,,,0.47492114327735413,1710,1890,0,,WHITE,,,0,,WHITE,True,CORRECT,0.46071519999895827,460.71519999895827
6,20260325_140431,D,J,False,MANUAL,4,274,1574,fixed_delta,0.04169584712997743,0.012883078076194597,,,,,0.5528995395482861,1990,1610,0,,BLACK,,,0,,BLACK,True,CORRECT,0.6859170999996422,685.9170999996422
6,20260325_140431,D,J,False,MANUAL,4,275,1575,fixed_delta,0.04169584712997743,0.012883078076194597,,,,,0.46313245980812984,1667,1933,0,,WHITE,,,0,,WHITE,True,CORRECT,1.0523054000004777,1052.3054000004777
6,20260325_140431,D,J,False,MANUAL,4,276,1576,fixed_delta,0.04169584712997743,0.012883078076194597,,,,,0.5263222506176859,1895,1705,0,,BLACK,,,0,,WHITE,False,INCORRECT,0.4890503999995417,489.0503999995417
6,20260325_140431,D,J,False,MANUAL,4,277,1577,fixed_delta,0.04169584712997743,0.012883078076194597,,,,,0.44849363657520497,1615,1985,0,,WHITE,,,0,,WHITE,True,CORRECT,0.5323122999980114,532.3122999980114
6,20260325_140431,D,J,False,MANUAL,4,278,1578,fixed_delta,0.04169584712997743,0.012883078076194597,,,,,0.53053338876212,1910,1690,0,,BLACK,,,0,,WHITE,False,INCORRECT,0.5805676000018138,580.5676000018138
6,20260325_140431,D,J,False,MANUAL,4,279,1579,fixed_delta,0.04169584712997743,0.012883078076194597,,,,,0.5617483815701044,2022,1578,0,,BLACK,,,0,,BLACK,True,CORRECT,0.5611848999978974,561.1848999978974
6,20260325_140431,D,J,False,MANUAL,4,280,1580,fixed_delta,0.04169584712997743,0.012883078076194597,,,,,0.4572062017762633,1646,1954,0,,WHITE,,,0,,WHITE,True,CORRECT,0.561687699999311,561.687699999311
6,20260325_140431,D,J,False,MANUAL,4,281,1581,fixed_delta,0.04169584712997743,0.012883078076194597,,,,,0.5366350521545286,1932,1668,0,,BLACK,,,0,,BLACK,True,CORRECT,0.9495911000012711,949.5911000012711
6,20260325_140431,D,J,False,MANUAL,4,282,1582,fixed_delta,0.04169584712997743,0.012883078076194597,,,,,0.5422519579370555,1952,1648,0,,BLACK,,,0,,BLACK,True,CORRECT,0.4580793999994057,458.0793999994057
6,20260325_140431,D,J,False,MANUAL,4,283,1583,fixed_delta,0.04169584712997743,0.012883078076194597,,,,,0.5560175071040012,2002,1598,0,,BLACK,,,0,,BLACK,True,CORRECT,0.5235804999974789,523.5804999974789
6,20260325_140431,D,J,False,MANUAL,4,284,1584,fixed_delta,0.04169584712997743,0.012883078076194597,,,,,0.5366032599610049,1932,1668,0,,BLACK,,,0,,WHITE,False,INCORRECT,0.9536210000005667,953.6210000005667
6,20260325_140431,D,J,False,MANUAL,4,285,1585,fixed_delta,0.04169584712997743,0.012883078076194597,,,,,0.48038838829017977,1729,1871,0,,WHITE,,,0,,WHITE,True,CORRECT,1.4972315000013623,1497.2315000013623
6,20260325_140431,D,J,False,MANUAL,4,286,1586,fixed_delta,0.04169584712997743,0.012883078076194597,,,,,0.44573667799231254,1605,1995,0,,WHITE,,,0,,WHITE,True,CORRECT,1.6058016999995743,1605.8016999995743
6,20260325_140431,D,J,False,MANUAL,4,287,1587,fixed_delta,0.04169584712997743,0.012883078076194597,,,,,0.4445960534121963,1601,1999,0,,WHITE,,,0,,WHITE,True,CORRECT,0.514783599999646,514.783599999646
6,20260325_140431,D,J,False,MANUAL,4,288,1588,fixed_delta,0.04169584712997743,0.012883078076194597,,,,,0.5515976642601376,1986,1614,0,,BLACK,,,0,,WHITE,False,INCORRECT,0.416918999999325,416.918999999325
6,20260325_140431,D,J,False,MANUAL,4,289,1589,fixed_delta,0.04169584712997743,0.012883078076194597,,,,,0.4629463020391791,1667,1933,0,,WHITE,,,0,,WHITE,True,CORRECT,0.6333642999998119,633.3642999998119
6,20260325_140431,D,J,False,MANUAL,4,290,1590,fixed_delta,0.04169584712997743,0.012883078076194597,,,,,0.549043449795114,1977,1623,0,,BLACK,,,0,,BLACK,True,CORRECT,0.6813451000016357,681.3451000016357
6,20260325_140431,D,J,False,MANUAL,4,291,1591,fixed_delta,0.04169584712997743,0.012883078076194597,,,,,0.4455398780323745,1604,1996,0,,WHITE,,,0,,WHITE,True,CORRECT,0.5659352999973635,565.9352999973635
6,20260325_140431,D,J,False,MANUAL,4,292,1592,fixed_delta,0.04169584712997743,0.012883078076194597,,,,,0.5330211515438179,1919,1681,0,,BLACK,,,0,,BLACK,True,CORRECT,0.5261774999999034,526.1774999999034
6,20260325_140431,D,J,False,MANUAL,4,293,1593,fixed_delta,0.04169584712997743,0.012883078076194597,,,,,0.5343104620708662,1924,1676,0,,BLACK,,,0,,BLACK,True,CORRECT,0.7360133000001952,736.0133000001952
6,20260325_140431,D,J,False,MANUAL,4,294,1594,fixed_delta,0.04169584712997743,0.012883078076194597,,,,,0.5491080364042356,1977,1623,0,,BLACK,,,0,,BLACK,True,CORRECT,0.5744697000009182,574.4697000009182
6,20260325_140431,D,J,False,MANUAL,4,295,1595,fixed_delta,0.04169584712997743,0.012883078076194597,,,,,0.5642497821679427,2031,1569,0,,BLACK,,,0,,BLACK,True,CORRECT,0.5775603000001865,577.5603000001865
6,20260325_140431,D,J,False,MANUAL,4,296,1596,fixed_delta,0.04169584712997743,0.012883078076194597,,,,,0.516133283981596,1858,1742,0,,BLACK,,,0,,WHITE,False,INCORRECT,0.72750459999952,727.50459999952
6,20260325_140431,D,J,False,MANUAL,4,297,1597,fixed_delta,0.04169584712997743,0.012883078076194597,,,,,0.45247136476128175,1629,1971,0,,WHITE,,,0,,WHITE,True,CORRECT,0.6519450000014331,651.9450000014331
6,20260325_140431,D,J,False,MANUAL,4,298,1598,fixed_delta,0.04169584712997743,0.012883078076194597,,,,,0.5689029751391412,2048,1552,0,,BLACK,,,0,,BLACK,True,CORRECT,0.5620993999982602,562.0993999982602
6,20260325_140431,D,J,False,MANUAL,4,299,1599,fixed_delta,0.04169584712997743,0.012883078076194597,,,,,0.46426286737558625,1671,1929,0,,WHITE,,,0,,WHITE,True,CORRECT,0.6959662000008393,695.9662000008393
6,20260325_140431,D,J,False,MANUAL,4,300,1600,fixed_delta,0.04169584712997743,0.012883078076194597,,,,,0.5413656469314319,1949,1651,0,,BLACK,,,0,,BLACK,True,CORRECT,0.5798271000021487,579.8271000021487
6,20260325_140431,D,J,False,MANUAL,4,301,1601,fixed_delta,0.04169584712997743,0.012883078076194597,,,,,0.5532066038443851,1992,1608,0,,BLACK,,,0,,BLACK,True,CORRECT,0.5299599999998463,529.9599999998463
6,20260325_140431,D,J,False,MANUAL,4,302,1602,fixed_delta,0.04169584712997743,0.012883078076194597,,,,,0.5440056903845658,1958,1642,0,,BLACK,,,0,,BLACK,True,CORRECT,0.6725993000000017,672.5993000000017
6,20260325_140431,D,J,False,MANUAL,4,303,1603,fixed_delta,0.04169584712997743,0.012883078076194597,,,,,0.5500941470862422,1980,1620,0,,BLACK,,,0,,BLACK,True,CORRECT,0.8013412000000244,801.3412000000244
6,20260325_140431,D,J,False,MANUAL,4,304,1604,fixed_delta,0.04169584712997743,0.012883078076194597,,,,,0.4627063192455162,1666,1934,0,,WHITE,,,0,,BLACK,False,INCORRECT,0.7707651999990048,770.7651999990048
6,20260325_140431,D,J,False,MANUAL,4,305,1605,fixed_delta,0.04169584712997743,0.012883078076194597,,,,,0.45764294525303195,1648,1952,0,,WHITE,,,0,,WHITE,True,CORRECT,0.5473449000019173,547.3449000019173
6,20260325_140431,D,J,False,MANUAL,4,306,1606,fixed_delta,0.04169584712997743,0.012883078076194597,,,,,0.5287069201522683,1903,1697,0,,BLACK,,,0,,BLACK,True,CORRECT,0.5479429000006348,547.9429000006348
6,20260325_140431,D,J,False,MANUAL,4,307,1607,fixed_delta,0.04169584712997743,0.012883078076194597,,,,,0.5567947744007796,2004,1596,0,,BLACK,,,0,,BLACK,True,CORRECT,0.4896539000001212,489.6539000001212
6,20260325_140431,D,J,False,MANUAL,4,308,1608,fixed_delta,0.04169584712997743,0.012883078076194597,,,,,0.5611357560854862,2020,1580,0,,BLACK,,,0,,BLACK,True,CORRECT,0.4619996000001265,461.9996000001265
6,20260325_140431,D,J,False,MANUAL,4,309,1609,fixed_delta,0.04169584712997743,0.012883078076194597,,,,,0.5326936491491866,1918,1682,0,,BLACK,,,0,,BLACK,True,CORRECT,0.48909289999937755,489.09289999937755
6,20260325_140431,D,J,False,MANUAL,4,310,1610,fixed_delta,0.04169584712997743,0.012883078076194597,,,,,0.5525034615467309,1989,1611,0,,BLACK,,,0,,BLACK,True,CORRECT,0.4195934000017587,419.5934000017587
6,20260325_140431,D,J,False,MANUAL,4,311,1611,fixed_delta,0.04169584712997743,0.012883078076194597,,,,,0.4549280151279706,1638,1962,0,,WHITE,,,0,,BLACK,False,INCORRECT,0.36595369999849936,365.95369999849936
6,20260325_140431,D,J,False,MANUAL,4,312,1612,fixed_delta,0.04169584712997743,0.012883078076194597,,,,,0.4584490963074971,1650,1950,0,,WHITE,,,0,,WHITE,True,CORRECT,0.6532393999987107,653.2393999987107
6,20260325_140431,D,J,False,MANUAL,4,313,1613,fixed_delta,0.04169584712997743,0.012883078076194597,,,,,0.5602383109410166,2017,1583,0,,BLACK,,,0,,BLACK,True,CORRECT,0.6045612999987497,604.5612999987497
6,20260325_140431,D,J,False,MANUAL,4,314,1614,fixed_delta,0.04169584712997743,0.012883078076194597,,,,,0.5176904899133666,1864,1736,0,,BLACK,,,0,,BLACK,True,CORRECT,0.48810990000129095,488.10990000129095
6,20260325_140431,D,J,False,MANUAL,4,315,1615,fixed_delta,0.04169584712997743,0.012883078076194597,,,,,0.42830176129439956,1542,2058,0,,WHITE,,,0,,BLACK,False,INCORRECT,0.4842839000011736,484.2839000011736
6,20260325_140431,D,J,False,MANUAL,4,316,1616,fixed_delta,0.04169584712997743,0.012883078076194597,,,,,0.4667109953250902,1680,1920,0,,WHITE,,,0,,WHITE,True,CORRECT,0.7112095000011323,711.2095000011323
6,20260325_140431,D,J,False,MANUAL,4,317,1617,fixed_delta,0.04169584712997743,0.012883078076194597,,,,,0.5298490630187724,1907,1693,0,,BLACK,,,0,,WHITE,False,INCORRECT,1.76378399999885,1763.78399999885
6,20260325_140431,D,J,False,MANUAL,4,318,1618,fixed_delta,0.04169584712997743,0.012883078076194597,,,,,0.45356049706984575,1633,1967,0,,WHITE,,,0,,WHITE,True,CORRECT,0.5958272000025318,595.8272000025318
6,20260325_140431,D,J,False,MANUAL,4,319,1619,fixed_delta,0.04169584712997743,0.012883078076194597,,,,,0.5580393678681254,2009,1591,0,,BLACK,,,0,,BLACK,True,CORRECT,0.4284527999989223,428.4527999989223
6,20260325_140431,D,J,False,MANUAL,4,320,1620,fixed_delta,0.04169584712997743,0.012883078076194597,,,,,0.4597364571103911,1655,1945,0,,WHITE,,,0,,WHITE,True,CORRECT,0.5606890999988536,560.6890999988536
6,20260325_140431,D,J,False,MANUAL,4,321,1621,fixed_delta,0.04169584712997743,0.012883078076194597,,,,,0.47445209779658193,1708,1892,0,,WHITE,,,0,,WHITE,True,CORRECT,0.6894431000000623,689.4431000000623
6,20260325_140431,D,J,False,MANUAL,4,322,1622,fixed_delta,0.04169584712997743,0.012883078076194597,,,,,0.4517721775605315,1626,1974,0,,WHITE,,,0,,WHITE,True,CORRECT,0.6878144000002067,687.8144000002067
6,20260325_140431,D,J,False,MANUAL,4,323,1623,fixed_delta,0.04169584712997743,0.012883078076194597,,,,,0.46578358676853726,1677,1923,0,,WHITE,,,0,,WHITE,True,CORRECT,0.504868300002272,504.868300002272
6,20260325_140431,D,J,False,MANUAL,4,324,1624,fixed_delta,0.04169584712997743,0.012883078076194597,,,,,0.5399328898021254,1944,1656,0,,BLACK,,,0,,WHITE,False,INCORRECT,0.3589247999989311,358.9247999989311
6,20260325_140431,D,J,False,MANUAL,4,325,1625,fixed_delta,0.04169584712997743,0.012883078076194597,,,,,0.5254443551485963,1892,1708,0,,BLACK,,,0,,WHITE,False,INCORRECT,0.41464110000015353,414.64110000015353
6,20260325_140431,D,J,False,MANUAL,4,326,1626,fixed_delta,0.04169584712997743,0.012883078076194597,,,,,0.5170088889805565,1861,1739,0,,BLACK,,,0,,WHITE,False,INCORRECT,0.2951147999992827,295.1147999992827
6,20260325_140431,D,J,False,MANUAL,4,327,1627,fixed_delta,0.04169584712997743,0.012883078076194597,,,,,0.4397083734179501,1583,2017,0,,WHITE,,,0,,WHITE,True,CORRECT,0.3563968999987992,356.3968999987992
6,20260325_140431,D,J,False,MANUAL,4,328,1628,fixed_delta,0.04169584712997743,0.012883078076194597,,,,,0.4848162410242622,1745,1855,0,,WHITE,,,0,,WHITE,True,CORRECT,0.37064299999838113,370.64299999838113
6,20260325_140431,D,J,False,MANUAL,4,329,1629,fixed_delta,0.04169584712997743,0.012883078076194597,,,,,0.44954752277945687,1618,1982,0,,WHITE,,,0,,WHITE,True,CORRECT,0.25346410000202013,253.46410000202013
6,20260325_140431,D,J,False,MANUAL,4,330,1630,fixed_delta,0.04169584712997743,0.012883078076194597,,,,,0.5425554041585234,1953,1647,0,,BLACK,,,0,,WHITE,False,INCORRECT,0.2363253999974404,236.3253999974404
6,20260325_140431,D,J,False,MANUAL,4,331,1631,fixed_delta,0.04169584712997743,0.012883078076194597,,,,,0.5363721567203373,1931,1669,0,,BLACK,,,0,,WHITE,False,INCORRECT,0.4054705999988073,405.4705999988073
6,20260325_140431,D,J,False,MANUAL,4,332,1632,fixed_delta,0.04169584712997743,0.012883078076194597,,,,,0.5272403107702816,1898,1702,0,,BLACK,,,0,,WHITE,False,INCORRECT,0.6377442000011797,637.7442000011797
6,20260325_140431,D,J,False,MANUAL,4,333,1633,fixed_delta,0.04169584712997743,0.012883078076194597,,,,,0.5576315058663922,2007,1593,0,,BLACK,,,0,,WHITE,False,INCORRECT,0.4138535999991291,413.8535999991291
6,20260325_140431,D,J,False,MANUAL,4,334,1634,fixed_delta,0.04169584712997743,0.012883078076194597,,,,,0.4582836447994241,1650,1950,0,,WHITE,,,0,,WHITE,True,CORRECT,0.4722578999972029,472.2578999972029
6,20260325_140431,D,J,False,MANUAL,4,335,1635,fixed_delta,0.04169584712997743,0.012883078076194597,,,,,0.5262456565658422,1894,1706,0,,BLACK,,,0,,BLACK,True,CORRECT,0.6353963000001386,635.3963000001386
6,20260325_140431,D,J,False,MANUAL,4,336,1636,fixed_delta,0.04169584712997743,0.012883078076194597,,,,,0.548084828280421,1973,1627,0,,BLACK,,,0,,WHITE,False,INCORRECT,0.7178700000004028,717.8700000004028
6,20260325_140431,D,J,False,MANUAL,4,337,1637,fixed_delta,0.04169584712997743,0.012883078076194597,,,,,0.5455154065039914,1964,1636,0,,BLACK,,,0,,BLACK,True,CORRECT,2.041548299999704,2041.5482999997039
6,20260325_140431,D,J,False,MANUAL,4,338,1638,fixed_delta,0.04169584712997743,0.012883078076194597,,,,,0.45547526556532897,1640,1960,0,,WHITE,,,0,,WHITE,True,CORRECT,0.6832046999988961,683.2046999988961
6,20260325_140431,D,J,False,MANUAL,4,339,1639,fixed_delta,0.04169584712997743,0.012883078076194597,,,,,0.5396048189160794,1943,1657,0,,BLACK,,,0,,WHITE,False,INCORRECT,0.738830099999177,738.830099999177
6,20260325_140431,D,J,False,MANUAL,4,340,1640,fixed_delta,0.04169584712997743,0.012883078076194597,,,,,0.5283465342707934,1902,1698,0,,BLACK,,,0,,BLACK,True,CORRECT,1.1267211000013049,1126.7211000013049
6,20260325_140431,D,J,False,MANUAL,4,341,1641,fixed_delta,0.04169584712997743,0.012883078076194597,,,,,0.4526620432090692,1630,1970,0,,WHITE,,,0,,WHITE,True,CORRECT,0.6453026000017417,645.3026000017417
6,20260325_140431,D,J,False,MANUAL,4,342,1642,fixed_delta,0.04169584712997743,0.012883078076194597,,,,,0.550973593585536,1984,1616,0,,BLACK,,,0,,BLACK,True,CORRECT,0.7552178999976604,755.2178999976604
6,20260325_140431,D,J,False,MANUAL,4,343,1643,fixed_delta,0.04169584712997743,0.012883078076194597,,,,,0.47271485313617456,1702,1898,0,,WHITE,,,0,,WHITE,True,CORRECT,0.739175200000318,739.175200000318
6,20260325_140431,D,J,False,MANUAL,4,344,1644,fixed_delta,0.04169584712997743,0.012883078076194597,,,,,0.5448600402891074,1961,1639,0,,BLACK,,,0,,BLACK,True,CORRECT,0.6795018999982858,679.5018999982858
6,20260325_140431,D,J,False,MANUAL,4,345,1645,fixed_delta,0.04169584712997743,0.012883078076194597,,,,,0.5514403662356049,1985,1615,0,,BLACK,,,0,,BLACK,True,CORRECT,1.021953499999654,1021.953499999654
6,20260325_140431,D,J,False,MANUAL,4,346,1646,fixed_delta,0.04169584712997743,0.012883078076194597,,,,,0.5502512102892008,1981,1619,0,,BLACK,,,0,,BLACK,True,CORRECT,1.1274632999993628,1127.4632999993628
6,20260325_140431,D,J,False,MANUAL,4,347,1647,fixed_delta,0.04169584712997743,0.012883078076194597,,,,,0.5545395977752281,1996,1604,0,,BLACK,,,0,,BLACK,True,CORRECT,0.6480183999992732,648.0183999992732
6,20260325_140431,D,J,False,MANUAL,4,348,1648,fixed_delta,0.04169584712997743,0.012883078076194597,,,,,0.5234253640763876,1884,1716,0,,BLACK,,,0,,BLACK,True,CORRECT,0.6065467000007629,606.5467000007629
6,20260325_140431,D,J,False,MANUAL,4,349,1649,fixed_delta,0.04169584712997743,0.012883078076194597,,,,,0.452605689239877,1629,1971,0,,WHITE,,,0,,WHITE,True,CORRECT,0.5665977999997267,566.5977999997267
6,20260325_140431,D,J,False,MANUAL,4,350,1650,fixed_delta,0.04169584712997743,0.012883078076194597,,,,,0.5454417361663139,1964,1636,0,,BLACK,,,0,,BLACK,True,CORRECT,0.564502099998208,564.502099998208
6,20260325_140431,D,J,False,MANUAL,4,351,1651,fixed_delta,0.04169584712997743,0.012883078076194597,,,,,0.540596006889585,1946,1654,0,,BLACK,,,0,,BLACK,True,CORRECT,0.6726286000011896,672.6286000011896
6,20260325_140431,D,J,False,MANUAL,4,352,1652,fixed_delta,0.04169584712997743,0.012883078076194597,,,,,0.476850020009375,1717,1883,0,,WHITE,,,0,,WHITE,True,CORRECT,0.5537474000011571,553.7474000011571
6,20260325_140431,D,J,False,MANUAL,4,353,1653,fixed_delta,0.04169584712997743,0.012883078076194597,,,,,0.5337190869133972,1921,1679,0,,BLACK,,,0,,WHITE,False,INCORRECT,0.8197734000023047,819.7734000023047
6,20260325_140431,D,J,False,MANUAL,4,354,1654,fixed_delta,0.04169584712997743,0.012883078076194597,,,,,0.5395896250304986,1943,1657,0,,BLACK,,,0,,BLACK,True,CORRECT,0.5186618000007002,518.6618000007002
6,20260325_140431,D,J,False,MANUAL,4,355,1655,fixed_delta,0.04169584712997743,0.012883078076194597,,,,,0.5394939333600807,1942,1658,0,,BLACK,,,0,,BLACK,True,CORRECT,0.7732371000020066,773.2371000020066
6,20260325_140431,D,J,False,MANUAL,4,356,1656,fixed_delta,0.04169584712997743,0.012883078076194597,,,,,0.5383502387020148,1938,1662,0,,BLACK,,,0,,BLACK,True,CORRECT,0.7533535000002303,753.3535000002303
6,20260325_140431,D,J,False,MANUAL,4,357,1657,fixed_delta,0.04169584712997743,0.012883078076194597,,,,,0.5326097830052287,1917,1683,0,,BLACK,,,0,,BLACK,True,CORRECT,0.8323048000020208,832.3048000020208
6,20260325_140431,D,J,False,MANUAL,4,358,1658,fixed_delta,0.04169584712997743,0.012883078076194597,,,,,0.5673378627783882,2042,1558,0,,BLACK,,,0,,BLACK,True,CORRECT,0.6051071999972919,605.1071999972919
6,20260325_140431,D,J,False,MANUAL,4,359,1659,fixed_delta,0.04169584712997743,0.012883078076194597,,,,,0.5371612684538,1934,1666,0,,BLACK,,,0,,BLACK,True,CORRECT,0.48969299999953364,489.69299999953364
6,20260325_140431,D,J,False,MANUAL,4,360,1660,fixed_delta,0.04169584712997743,0.012883078076194597,,,,,0.45602026051249167,1642,1958,0,,WHITE,,,0,,WHITE,True,CORRECT,0.7874728999995568,787.4728999995568
6,20260325_140431,D,J,False,MANUAL,4,361,1661,fixed_delta,0.04169584712997743,0.012883078076194597,,,,,0.5238534661663309,1886,1714,0,,BLACK,,,0,,BLACK,True,CORRECT,0.6284261999971932,628.4261999971932
6,20260325_140431,D,J,False,MANUAL,4,362,1662,fixed_delta,0.04169584712997743,0.012883078076194597,,,,,0.43429366162827165,1563,2037,0,,WHITE,,,0,,WHITE,True,CORRECT,0.6655666000006022,665.5666000006022
6,20260325_140431,D,J,False,MANUAL,4,363,1663,fixed_delta,0.04169584712997743,0.012883078076194597,,,,,0.5599001617866751,2016,1584,0,,BLACK,,,0,,BLACK,True,CORRECT,0.5396686000021873,539.6686000021873
6,20260325_140431,D,J,False,MANUAL,4,364,1664,fixed_delta,0.04169584712997743,0.012883078076194597,,,,,0.44705420228234694,1609,1991,0,,WHITE,,,0,,WHITE,True,CORRECT,0.8735632000025362,873.5632000025362
6,20260325_140431,D,J,False,MANUAL,4,365,1665,fixed_delta,0.04169584712997743,0.012883078076194597,,,,,0.4798198659286944,1727,1873,0,,WHITE,,,0,,WHITE,True,CORRECT,2.157863799999177,2157.863799999177
6,20260325_140431,D,J,False,MANUAL,4,366,1666,fixed_delta,0.04169584712997743,0.012883078076194597,,,,,0.4316853133720993,1554,2046,0,,WHITE,,,0,,WHITE,True,CORRECT,0.6570628999979817,657.0628999979817
6,20260325_140431,D,J,False,MANUAL,4,367,1667,fixed_delta,0.04169584712997743,0.012883078076194597,,,,,0.4651449578436473,1675,1925,0,,WHITE,,,0,,WHITE,True,CORRECT,0.5950190000003204,595.0190000003204
6,20260325_140431,D,J,False,MANUAL,4,368,1668,fixed_delta,0.04169584712997743,0.012883078076194597,,,,,0.4573449192878997,1646,1954,0,,WHITE,,,0,,WHITE,True,CORRECT,0.537260500001139,537.260500001139
6,20260325_140431,D,J,False,MANUAL,4,369,1669,fixed_delta,0.04169584712997743,0.012883078076194597,,,,,0.43072853879894063,1551,2049,0,,WHITE,,,0,,WHITE,True,CORRECT,0.4463575000008859,446.3575000008859
6,20260325_140431,D,J,False,MANUAL,4,370,1670,fixed_delta,0.04169584712997743,0.012883078076194597,,,,,0.5551242796609808,1998,1602,0,,BLACK,,,0,,WHITE,False,INCORRECT,0.41777820000061183,417.77820000061183
6,20260325_140431,D,J,False,MANUAL,4,371,1671,fixed_delta,0.04169584712997743,0.012883078076194597,,,,,0.5626478962873658,2026,1574,0,,BLACK,,,0,,BLACK,True,CORRECT,0.43890599999940605,438.90599999940605
6,20260325_140431,D,J,False,MANUAL,4,372,1672,fixed_delta,0.04169584712997743,0.012883078076194597,,,,,0.5368845891909891,1933,1667,0,,BLACK,,,0,,BLACK,True,CORRECT,1.3752015999998548,1375.2015999998548
6,20260325_140431,D,J,False,MANUAL,4,373,1673,fixed_delta,0.04169584712997743,0.012883078076194597,,,,,0.5408942099162625,1947,1653,0,,BLACK,,,0,,WHITE,False,INCORRECT,1.1964836999977706,1196.4836999977706
6,20260325_140431,D,J,False,MANUAL,4,374,1674,fixed_delta,0.04169584712997743,0.012883078076194597,,,,,0.5556467581815109,2000,1600,0,,BLACK,,,0,,BLACK,True,CORRECT,0.8853337000000465,885.3337000000465
6,20260325_140431,D,J,False,MANUAL,4,375,1675,fixed_delta,0.04169584712997743,0.012883078076194597,,,,,0.5364360764701475,1931,1669,0,,BLACK,,,0,,WHITE,False,INCORRECT,1.066939000000275,1066.939000000275
6,20260325_140431,D,J,False,MANUAL,4,376,1676,fixed_delta,0.04169584712997743,0.012883078076194597,,,,,0.46733114194178416,1682,1918,0,,WHITE,,,0,,WHITE,True,CORRECT,0.565646499999275,565.646499999275
6,20260325_140431,D,J,False,MANUAL,4,377,1677,fixed_delta,0.04169584712997743,0.012883078076194597,,,,,0.538022945461093,1937,1663,0,,BLACK,,,0,,BLACK,True,CORRECT,1.0361298999996507,1036.1298999996507
6,20260325_140431,D,J,False,MANUAL,4,378,1678,fixed_delta,0.04169584712997743,0.012883078076194597,,,,,0.5183616211288171,1866,1734,0,,BLACK,,,0,,BLACK,True,CORRECT,1.515370900000562,1515.370900000562
6,20260325_140431,D,J,False,MANUAL,4,379,1679,fixed_delta,0.04169584712997743,0.012883078076194597,,,,,0.5322613912191017,1916,1684,0,,BLACK,,,0,,WHITE,False,INCORRECT,0.8280177999986336,828.0177999986336
6,20260325_140431,D,J,False,MANUAL,4,380,1680,fixed_delta,0.04169584712997743,0.012883078076194597,,,,,0.5562879017914442,2003,1597,0,,BLACK,,,0,,BLACK,True,CORRECT,0.7138587000008556,713.8587000008556
6,20260325_140431,D,J,False,MANUAL,4,381,1681,fixed_delta,0.04169584712997743,0.012883078076194597,,,,,0.46393975255618836,1670,1930,0,,WHITE,,,0,,WHITE,True,CORRECT,0.6205831000006583,620.5831000006583
6,20260325_140431,D,J,False,MANUAL,4,382,1682,fixed_delta,0.04169584712997743,0.012883078076194597,,,,,0.5202052174231677,1873,1727,0,,BLACK,,,0,,WHITE,False,INCORRECT,2.662921600000118,2662.921600000118
6,20260325_140431,D,J,False,MANUAL,4,383,1683,fixed_delta,0.04169584712997743,0.012883078076194597,,,,,0.4724603426273025,1701,1899,0,,WHITE,,,0,,WHITE,True,CORRECT,0.5616367000002356,561.6367000002356
6,20260325_140431,D,J,False,MANUAL,4,384,1684,fixed_delta,0.04169584712997743,0.012883078076194597,,,,,0.5396338732996896,1943,1657,0,,BLACK,,,0,,BLACK,True,CORRECT,0.8110206999990623,811.0206999990623
6,20260325_140431,D,J,False,MANUAL,4,385,1685,fixed_delta,0.04169584712997743,0.012883078076194597,,,,,0.5272101691884065,1898,1702,0,,BLACK,,,0,,WHITE,False,INCORRECT,0.784748000001855,784.748000001855
6,20260325_140431,D,J,False,MANUAL,4,386,1686,fixed_delta,0.04169584712997743,0.012883078076194597,,,,,0.4650198122000742,1674,1926,0,,WHITE,,,0,,WHITE,True,CORRECT,0.6083330000001297,608.3330000001297
6,20260325_140431,D,J,False,MANUAL,4,387,1687,fixed_delta,0.04169584712997743,0.012883078076194597,,,,,0.5400176301696432,1944,1656,0,,BLACK,,,0,,BLACK,True,CORRECT,0.8320671000001312,832.0671000001312
6,20260325_140431,D,J,False,MANUAL,4,388,1688,fixed_delta,0.04169584712997743,0.012883078076194597,,,,,0.5370293471356272,1933,1667,0,,BLACK,,,0,,BLACK,True,CORRECT,0.5606889999980922,560.6889999980922
6,20260325_140431,D,J,False,MANUAL,4,389,1689,fixed_delta,0.04169584712997743,0.012883078076194597,,,,,0.5448055830933177,1961,1639,0,,BLACK,,,0,,BLACK,True,CORRECT,0.5001870000014605,500.18700000146055
6,20260325_140431,D,J,False,MANUAL,4,390,1690,fixed_delta,0.04169584712997743,0.012883078076194597,,,,,0.5389465638591927,1940,1660,0,,BLACK,,,0,,BLACK,True,CORRECT,0.711569099999906,711.569099999906
6,20260325_140431,D,J,False,MANUAL,4,391,1691,fixed_delta,0.04169584712997743,0.012883078076194597,,,,,0.5373025328607789,1934,1666,0,,BLACK,,,0,,BLACK,True,CORRECT,0.5438326999974379,543.8326999974379
6,20260325_140431,D,J,False,MANUAL,4,392,1692,fixed_delta,0.04169584712997743,0.012883078076194597,,,,,0.535056990833619,1926,1674,0,,BLACK,,,0,,BLACK,True,CORRECT,0.4304754000004323,430.4754000004323
6,20260325_140431,D,J,False,MANUAL,4,393,1693,fixed_delta,0.04169584712997743,0.012883078076194597,,,,,0.5516213847757061,1986,1614,0,,BLACK,,,0,,BLACK,True,CORRECT,0.6808079999973415,680.8079999973415
6,20260325_140431,D,J,False,MANUAL,4,394,1694,fixed_delta,0.04169584712997743,0.012883078076194597,,,,,0.45465264036981246,1637,1963,0,,WHITE,,,0,,WHITE,True,CORRECT,0.6233261999987008,623.3261999987008
6,20260325_140431,D,J,False,MANUAL,4,395,1695,fixed_delta,0.04169584712997743,0.012883078076194597,,,,,0.5382557823093271,1938,1662,0,,BLACK,,,0,,BLACK,True,CORRECT,0.9908805000013672,990.8805000013672
6,20260325_140431,D,J,False,MANUAL,4,396,1696,fixed_delta,0.04169584712997743,0.012883078076194597,,,,,0.476228874267293,1714,1886,0,,WHITE,,,0,,WHITE,True,CORRECT,0.59473860000071,594.73860000071
6,20260325_140431,D,J,False,MANUAL,4,397,1697,fixed_delta,0.04169584712997743,0.012883078076194597,,,,,0.45739572271007484,1647,1953,0,,WHITE,,,0,,WHITE,True,CORRECT,0.5790168999992602,579.0168999992602
6,20260325_140431,D,J,False,MANUAL,4,398,1698,fixed_delta,0.04169584712997743,0.012883078076194597,,,,,0.5579018325309606,2008,1592,0,,BLACK,,,0,,BLACK,True,CORRECT,0.6418922000011662,641.8922000011662
6,20260325_140431,D,J,False,MANUAL,4,399,1699,fixed_delta,0.04169584712997743,0.012883078076194597,,,,,0.505081358004872,1818,1782,0,,BLACK,,,0,,WHITE,False,INCORRECT,3.456214199999522,3456.214199999522
6,20260325_140431,D,J,False,MANUAL,4,400,1700,fixed_delta,0.04169584712997743,0.012883078076194597,,,,,0.5410396183738891,1948,1652,0,,BLACK,,,0,,WHITE,False,INCORRECT,0.7154951999982586,715.4951999982586
6,20260325_140431,D,J,False,MANUAL,4,401,1701,fixed_delta,0.04169584712997743,0.012883078076194597,,,,,0.5428778794659523,1954,1646,0,,BLACK,,,0,,BLACK,True,CORRECT,1.1369392999986303,1136.9392999986303
6,20260325_140431,D,J,False,MANUAL,4,402,1702,fixed_delta,0.04169584712997743,0.012883078076194597,,,,,0.45647546834255043,1643,1957,0,,WHITE,,,0,,WHITE,True,CORRECT,0.6702518999991298,670.2518999991298
6,20260325_140431,D,J,False,MANUAL,4,403,1703,fixed_delta,0.04169584712997743,0.012883078076194597,,,,,0.5409650061702029,1947,1653,0,,BLACK,,,0,,WHITE,False,INCORRECT,0.9512828000006266,951.2828000006266
6,20260325_140431,D,J,False,MANUAL,4,404,1704,fixed_delta,0.04169584712997743,0.012883078076194597,,,,,0.5509591167623091,1983,1617,0,,BLACK,,,0,,BLACK,True,CORRECT,0.6683443000001716,668.3443000001716
6,20260325_140431,D,J,False,MANUAL,4,405,1705,fixed_delta,0.04169584712997743,0.012883078076194597,,,,,0.4565208116295189,1643,1957,0,,WHITE,,,0,,WHITE,True,CORRECT,2.8970898000006855,2897.0898000006855
6,20260325_140431,D,J,False,MANUAL,4,406,1706,fixed_delta,0.04169584712997743,0.012883078076194597,,,,,0.5295663327654221,1906,1694,0,,BLACK,,,0,,BLACK,True,CORRECT,0.63719090000086,637.19090000086
6,20260325_140431,D,J,False,MANUAL,4,407,1707,fixed_delta,0.04169584712997743,0.012883078076194597,,,,,0.5391824201652831,1941,1659,0,,BLACK,,,0,,BLACK,True,CORRECT,1.0729313999981969,1072.9313999981969
6,20260325_140431,D,J,False,MANUAL,4,408,1708,fixed_delta,0.04169584712997743,0.012883078076194597,,,,,0.46554679307984975,1676,1924,0,,WHITE,,,0,,WHITE,True,CORRECT,1.1869377000002714,1186.9377000002714
6,20260325_140431,D,J,False,MANUAL,4,409,1709,fixed_delta,0.04169584712997743,0.012883078076194597,,,,,0.4594953799660511,1654,1946,0,,WHITE,,,0,,WHITE,True,CORRECT,0.5843930999981239,584.393099998124
6,20260325_140431,D,J,False,MANUAL,4,410,1710,fixed_delta,0.04169584712997743,0.012883078076194597,,,,,0.4662633002119765,1679,1921,0,,WHITE,,,0,,WHITE,True,CORRECT,0.619295600001351,619.295600001351
6,20260325_140431,D,J,False,MANUAL,4,411,1711,fixed_delta,0.04169584712997743,0.012883078076194597,,,,,0.45630283769275504,1643,1957,0,,WHITE,,,0,,WHITE,True,CORRECT,0.5965560000004189,596.5560000004189
6,20260325_140431,D,J,False,MANUAL,4,412,1712,fixed_delta,0.04169584712997743,0.012883078076194597,,,,,0.5382508876965821,1938,1662,0,,BLACK,,,0,,BLACK,True,CORRECT,0.6136755000006815,613.6755000006815
6,20260325_140431,D,J,False,MANUAL,4,413,1713,fixed_delta,0.04169584712997743,0.012883078076194597,,,,,0.5369719514427649,1933,1667,0,,BLACK,,,0,,BLACK,True,CORRECT,0.5347952999982226,534.7952999982226
6,20260325_140431,D,J,False,MANUAL,4,414,1714,fixed_delta,0.04169584712997743,0.012883078076194597,,,,,0.5528267084625185,1990,1610,0,,BLACK,,,0,,BLACK,True,CORRECT,0.5610047000009217,561.0047000009217
6,20260325_140431,D,J,False,MANUAL,4,415,1715,fixed_delta,0.04169584712997743,0.012883078076194597,,,,,0.48367299719644646,1741,1859,0,,WHITE,,,0,,WHITE,True,CORRECT,0.7001629999977013,700.1629999977013
6,20260325_140431,D,J,False,MANUAL,4,416,1716,fixed_delta,0.04169584712997743,0.012883078076194597,,,,,0.45322552755855217,1632,1968,0,,WHITE,,,0,,WHITE,True,CORRECT,0.5074568000018189,507.4568000018189
6,20260325_140431,D,J,False,MANUAL,4,417,1717,fixed_delta,0.04169584712997743,0.012883078076194597,,,,,0.5382302398209519,1938,1662,0,,BLACK,,,0,,BLACK,True,CORRECT,0.7367819999999483,736.7819999999483
6,20260325_140431,D,J,False,MANUAL,4,418,1718,fixed_delta,0.04169584712997743,0.012883078076194597,,,,,0.478058852844924,1721,1879,0,,WHITE,,,0,,WHITE,True,CORRECT,0.6716409000000567,671.6409000000567
6,20260325_140431,D,J,False,MANUAL,4,419,1719,fixed_delta,0.04169584712997743,0.012883078076194597,,,,,0.5178608095852235,1864,1736,0,,BLACK,,,0,,BLACK,True,CORRECT,0.7706857999983185,770.6857999983185
6,20260325_140431,D,J,False,MANUAL,4,420,1720,fixed_delta,0.04169584712997743,0.012883078076194597,,,,,0.45377454528050865,1634,1966,0,,WHITE,,,0,,WHITE,True,CORRECT,1.2528031000001647,1252.8031000001647
6,20260325_140431,D,J,False,MANUAL,4,421,1721,fixed_delta,0.04169584712997743,0.012883078076194597,,,,,0.4636660064604365,1669,1931,0,,WHITE,,,0,,BLACK,False,INCORRECT,1.1370505999984744,1137.0505999984744
6,20260325_140431,D,J,False,MANUAL,4,422,1722,fixed_delta,0.04169584712997743,0.012883078076194597,,,,,0.543697821521583,1957,1643,0,,BLACK,,,0,,BLACK,True,CORRECT,0.7954422000002523,795.4422000002523
6,20260325_140431,D,J,False,MANUAL,4,423,1723,fixed_delta,0.04169584712997743,0.012883078076194597,,,,,0.45056222036506943,1622,1978,0,,WHITE,,,0,,WHITE,True,CORRECT,0.6030202000001736,603.0202000001736
6,20260325_140431,D,J,False,MANUAL,4,424,1724,fixed_delta,0.04169584712997743,0.012883078076194597,,,,,0.5467105746623727,1968,1632,0,,BLACK,,,0,,BLACK,True,CORRECT,0.649376299999858,649.376299999858
6,20260325_140431,D,J,False,MANUAL,4,425,1725,fixed_delta,0.04169584712997743,0.012883078076194597,,,,,0.4599880053478358,1656,1944,0,,WHITE,,,0,,WHITE,True,CORRECT,0.7529737000004388,752.9737000004388
6,20260325_140431,D,J,False,MANUAL,4,426,1726,fixed_delta,0.04169584712997743,0.012883078076194597,,,,,0.4747078015025489,1709,1891,0,,WHITE,,,0,,WHITE,True,CORRECT,0.5468455999980506,546.8455999980506
6,20260325_140431,D,J,False,MANUAL,4,427,1727,fixed_delta,0.04169584712997743,0.012883078076194597,,,,,0.46521476789068494,1675,1925,0,,WHITE,,,0,,BLACK,False,INCORRECT,1.6894973000016762,1689.4973000016762
6,20260325_140431,D,J,False,MANUAL,4,428,1728,fixed_delta,0.04169584712997743,0.012883078076194597,,,,,0.4270863778499181,1538,2062,0,,WHITE,,,0,,WHITE,True,CORRECT,0.4718259000001126,471.8259000001126
6,20260325_140431,D,J,False,MANUAL,4,429,1729,fixed_delta,0.04169584712997743,0.012883078076194597,,,,,0.5197650605992187,1871,1729,0,,BLACK,,,0,,BLACK,True,CORRECT,1.1613508999980695,1161.3508999980695
6,20260325_140431,D,J,False,MANUAL,4,430,1730,fixed_delta,0.04169584712997743,0.012883078076194597,,,,,0.5224359500073198,1881,1719,0,,BLACK,,,0,,BLACK,True,CORRECT,0.853097200000775,853.097200000775
6,20260325_140431,D,J,False,MANUAL,4,431,1731,fixed_delta,0.04169584712997743,0.012883078076194597,,,,,0.42995354871359437,1548,2052,0,,WHITE,,,0,,BLACK,False,INCORRECT,0.5327748999989126,532.7748999989126
6,20260325_140431,D,J,False,MANUAL,4,432,1732,fixed_delta,0.04169584712997743,0.012883078076194597,,,,,0.5468111343113216,1969,1631,0,,BLACK,,,0,,WHITE,False,INCORRECT,1.3869362000004912,1386.9362000004912
6,20260325_140431,D,J,False,MANUAL,4,433,1733,fixed_delta,0.04169584712997743,0.012883078076194597,,,,,0.46026115966465375,1657,1943,0,,WHITE,,,0,,WHITE,True,CORRECT,0.8639657999992778,863.9657999992778
6,20260325_140431,D,J,False,MANUAL,4,434,1734,fixed_delta,0.04169584712997743,0.012883078076194597,,,,,0.4780019370038479,1721,1879,0,,WHITE,,,0,,WHITE,True,CORRECT,0.6244251000025542,624.4251000025542
6,20260325_140431,D,J,False,MANUAL,4,435,1735,fixed_delta,0.04169584712997743,0.012883078076194597,,,,,0.5239635552021317,1886,1714,0,,BLACK,,,0,,WHITE,False,INCORRECT,0.6809121000005689,680.9121000005689
6,20260325_140431,D,J,False,MANUAL,4,436,1736,fixed_delta,0.04169584712997743,0.012883078076194597,,,,,0.47457837716070633,1708,1892,0,,WHITE,,,0,,BLACK,False,INCORRECT,0.514408099999855,514.408099999855
6,20260325_140431,D,J,False,MANUAL,4,437,1737,fixed_delta,0.04169584712997743,0.012883078076194597,,,,,0.4786562837418191,1723,1877,0,,WHITE,,,0,,WHITE,True,CORRECT,0.583251800002472,583.251800002472
6,20260325_140431,D,J,False,MANUAL,4,438,1738,fixed_delta,0.04169584712997743,0.012883078076194597,,,,,0.4576028895021837,1647,1953,0,,WHITE,,,0,,WHITE,True,CORRECT,0.5237578999985999,523.7578999985999
6,20260325_140431,D,J,False,MANUAL,4,439,1739,fixed_delta,0.04169584712997743,0.012883078076194597,,,,,0.5426063178269969,1953,1647,0,,BLACK,,,0,,WHITE,False,INCORRECT,0.6978908000019146,697.8908000019146
6,20260325_140431,D,J,False,MANUAL,4,440,1740,fixed_delta,0.04169584712997743,0.012883078076194597,,,,,0.5626624892670441,2026,1574,0,,BLACK,,,0,,BLACK,True,CORRECT,0.964896100002079,964.896100002079
6,20260325_140431,D,J,False,MANUAL,4,441,1741,fixed_delta,0.04169584712997743,0.012883078076194597,,,,,0.47112698736054726,1696,1904,0,,WHITE,,,0,,WHITE,True,CORRECT,0.6197547000010672,619.7547000010672
6,20260325_140431,D,J,False,MANUAL,4,442,1742,fixed_delta,0.04169584712997743,0.012883078076194597,,,,,0.45266230988223244,1630,1970,0,,WHITE,,,0,,WHITE,True,CORRECT,0.5671462999998766,567.1462999998766
6,20260325_140431,D,J,False,MANUAL,4,443,1743,fixed_delta,0.04169584712997743,0.012883078076194597,,,,,0.5344852741409621,1924,1676,0,,BLACK,,,0,,WHITE,False,INCORRECT,0.47759810000206926,477.59810000206926
6,20260325_140431,D,J,False,MANUAL,4,444,1744,fixed_delta,0.04169584712997743,0.012883078076194597,,,,,0.546312118874513,1967,1633,0,,BLACK,,,0,,BLACK,True,CORRECT,0.6226056999985303,622.6056999985303
6,20260325_140431,D,J,False,MANUAL,4,445,1745,fixed_delta,0.04169584712997743,0.012883078076194597,,,,,0.47056393228283466,1694,1906,0,,WHITE,,,0,,WHITE,True,CORRECT,0.5999312999992981,599.9312999992981
6,20260325_140431,D,J,False,MANUAL,4,446,1746,fixed_delta,0.04169584712997743,0.012883078076194597,,,,,0.47765681733593335,1720,1880,0,,WHITE,,,0,,WHITE,True,CORRECT,0.7169267999997828,716.9267999997828
6,20260325_140431,D,J,False,MANUAL,4,447,1747,fixed_delta,0.04169584712997743,0.012883078076194597,,,,,0.5375750298517609,1935,1665,0,,BLACK,,,0,,BLACK,True,CORRECT,0.7464163000004191,746.4163000004191
6,20260325_140431,D,J,False,MANUAL,4,448,1748,fixed_delta,0.04169584712997743,0.012883078076194597,,,,,0.5310550833933666,1912,1688,0,,BLACK,,,0,,BLACK,True,CORRECT,1.0225805999980366,1022.5805999980366
6,20260325_140431,D,J,False,MANUAL,4,449,1749,fixed_delta,0.04169584712997743,0.012883078076194597,,,,,0.4687208806036448,1687,1913,0,,WHITE,,,0,,WHITE,True,CORRECT,0.6707176999989315,670.7176999989315
6,20260325_140431,D,J,False,MANUAL,4,450,1750,fixed_delta,0.04169584712997743,0.012883078076194597,,,,,0.4744765686583569,1708,1892,0,,WHITE,,,0,,WHITE,True,CORRECT,0.698327000001882,698.327000001882
6,20260325_140431,D,J,False,MANUAL,4,451,1751,fixed_delta,0.04169584712997743,0.012883078076194597,,,,,0.5318567990122411,1915,1685,0,,BLACK,,,0,,WHITE,False,INCORRECT,0.5515732000021671,551.5732000021671
6,20260325_140431,D,J,False,MANUAL,4,452,1752,fixed_delta,0.04169584712997743,0.012883078076194597,,,,,0.46902661814277774,1688,1912,0,,WHITE,,,0,,WHITE,True,CORRECT,0.5045959999988554,504.5959999988554
6,20260325_140431,D,J,False,MANUAL,4,453,1753,fixed_delta,0.04169584712997743,0.012883078076194597,,,,,0.5473849966316895,1971,1629,0,,BLACK,,,0,,BLACK,True,CORRECT,0.679388900000049,679.388900000049
6,20260325_140431,D,J,False,MANUAL,4,454,1754,fixed_delta,0.04169584712997743,0.012883078076194597,,,,,0.47733740322650114,1718,1882,0,,WHITE,,,0,,WHITE,True,CORRECT,0.8939273000032699,893.9273000032699
6,20260325_140431,D,J,False,MANUAL,4,455,1755,fixed_delta,0.04169584712997743,0.012883078076194597,,,,,0.5490259080316535,1976,1624,0,,BLACK,,,0,,BLACK,True,CORRECT,0.8128317000009702,812.8317000009702
6,20260325_140431,D,J,False,MANUAL,4,456,1756,fixed_delta,0.04169584712997743,0.012883078076194597,,,,,0.4517277892451627,1626,1974,0,,WHITE,,,0,,WHITE,True,CORRECT,0.8695643999999447,869.5643999999447
6,20260325_140431,D,J,False,MANUAL,4,457,1757,fixed_delta,0.04169584712997743,0.012883078076194597,,,,,0.5465078428774621,1967,1633,0,,BLACK,,,0,,BLACK,True,CORRECT,0.773421199999575,773.421199999575
6,20260325_140431,D,J,False,MANUAL,4,458,1758,fixed_delta,0.04169584712997743,0.012883078076194597,,,,,0.5386355293469907,1939,1661,0,,BLACK,,,0,,BLACK,True,CORRECT,0.9792139000019233,979.2139000019233
6,20260325_140431,D,J,False,MANUAL,4,459,1759,fixed_delta,0.04169584712997743,0.012883078076194597,,,,,0.55444815080392,1996,1604,0,,BLACK,,,0,,BLACK,True,CORRECT,0.6632781000007526,663.2781000007526
6,20260325_140431,D,J,False,MANUAL,4,460,1760,fixed_delta,0.04169584712997743,0.012883078076194597,,,,,0.43797458119890714,1577,2023,0,,WHITE,,,0,,WHITE,True,CORRECT,0.6601926000003004,660.1926000003004
6,20260325_140431,D,J,False,MANUAL,4,461,1761,fixed_delta,0.04169584712997743,0.012883078076194597,,,,,0.5518821129945286,1987,1613,0,,BLACK,,,0,,BLACK,True,CORRECT,0.757988800000021,757.988800000021
6,20260325_140431,D,J,False,MANUAL,4,462,1762,fixed_delta,0.04169584712997743,0.012883078076194597,,,,,0.5355669592037109,1928,1672,0,,BLACK,,,0,,WHITE,False,INCORRECT,0.6335556999983964,633.5556999983964
6,20260325_140431,D,J,False,MANUAL,4,463,1763,fixed_delta,0.04169584712997743,0.012883078076194597,,,,,0.5582299686018273,2010,1590,0,,BLACK,,,0,,BLACK,True,CORRECT,1.6898007999989204,1689.8007999989204
6,20260325_140431,D,J,False,MANUAL,4,464,1764,fixed_delta,0.04169584712997743,0.012883078076194597,,,,,0.5358049573524465,1929,1671,0,,BLACK,,,0,,BLACK,True,CORRECT,1.446357500000886,1446.357500000886
6,20260325_140431,D,J,False,MANUAL,4,465,1765,fixed_delta,0.04169584712997743,0.012883078076194597,,,,,0.47422201822513366,1707,1893,0,,WHITE,,,0,,WHITE,True,CORRECT,0.6101490999972157,610.1490999972157
6,20260325_140431,D,J,False,MANUAL,4,466,1766,fixed_delta,0.04169584712997743,0.012883078076194597,,,,,0.46067913666404364,1658,1942,0,,WHITE,,,0,,WHITE,True,CORRECT,0.6419744999984687,641.9744999984687
6,20260325_140431,D,J,False,MANUAL,4,467,1767,fixed_delta,0.04169584712997743,0.012883078076194597,,,,,0.5498114753499843,1979,1621,0,,BLACK,,,0,,BLACK,True,CORRECT,0.6545045999991999,654.5045999991999
6,20260325_140431,D,J,False,MANUAL,4,468,1768,fixed_delta,0.04169584712997743,0.012883078076194597,,,,,0.4743095496058697,1708,1892,0,,WHITE,,,0,,WHITE,True,CORRECT,0.809170799999265,809.170799999265
6,20260325_140431,D,J,False,MANUAL,4,469,1769,fixed_delta,0.04169584712997743,0.012883078076194597,,,,,0.4565899839049352,1644,1956,0,,WHITE,,,0,,WHITE,True,CORRECT,0.6795649999985471,679.5649999985471
6,20260325_140431,D,J,False,MANUAL,4,470,1770,fixed_delta,0.04169584712997743,0.012883078076194597,,,,,0.5524889578146931,1989,1611,0,,BLACK,,,0,,BLACK,True,CORRECT,1.0250848999967275,1025.0848999967275
6,20260325_140431,D,J,False,MANUAL,4,471,1771,fixed_delta,0.04169584712997743,0.012883078076194597,,,,,0.4540750074342751,1635,1965,0,,WHITE,,,0,,WHITE,True,CORRECT,0.7473486999988381,747.3486999988381
6,20260325_140431,D,J,False,MANUAL,4,472,1772,fixed_delta,0.04169584712997743,0.012883078076194597,,,,,0.5240765477359014,1887,1713,0,,BLACK,,,0,,BLACK,True,CORRECT,0.981181999999535,981.181999999535
6,20260325_140431,D,J,False,MANUAL,4,473,1773,fixed_delta,0.04169584712997743,0.012883078076194597,,,,,0.5336361228660934,1921,1679,0,,BLACK,,,0,,BLACK,True,CORRECT,0.79692040000009,796.92040000009
6,20260325_140431,D,J,False,MANUAL,4,474,1774,fixed_delta,0.04169584712997743,0.012883078076194597,,,,,0.4667381013574606,1680,1920,0,,WHITE,,,0,,WHITE,True,CORRECT,0.5618298000008508,561.8298000008508
6,20260325_140431,D,J,False,MANUAL,4,475,1775,fixed_delta,0.04169584712997743,0.012883078076194597,,,,,0.46455493923279845,1672,1928,0,,WHITE,,,0,,WHITE,True,CORRECT,0.5636632000023383,563.6632000023383
6,20260325_140431,D,J,False,MANUAL,4,476,1776,fixed_delta,0.04169584712997743,0.012883078076194597,,,,,0.48248645319301675,1737,1863,0,,WHITE,,,0,,WHITE,True,CORRECT,0.5788462000018626,578.8462000018626
6,20260325_140431,D,J,False,MANUAL,4,477,1777,fixed_delta,0.04169584712997743,0.012883078076194597,,,,,0.4706029398731624,1694,1906,0,,WHITE,,,0,,WHITE,True,CORRECT,1.2363052000000607,1236.3052000000607
6,20260325_140431,D,J,False,MANUAL,4,478,1778,fixed_delta,0.04169584712997743,0.012883078076194597,,,,,0.5592749640254463,2013,1587,0,,BLACK,,,0,,BLACK,True,CORRECT,0.5741411999988486,574.1411999988486
6,20260325_140431,D,J,False,MANUAL,4,479,1779,fixed_delta,0.04169584712997743,0.012883078076194597,,,,,0.5132764885868499,1848,1752,0,,BLACK,,,0,,WHITE,False,INCORRECT,0.7938280000016675,793.8280000016675
6,20260325_140431,D,J,False,MANUAL,4,480,1780,fixed_delta,0.04169584712997743,0.012883078076194597,,,,,0.5447499678447479,1961,1639,0,,BLACK,,,0,,BLACK,True,CORRECT,1.0660620000016934,1066.0620000016934
6,20260325_140431,D,J,False,MANUAL,4,481,1781,fixed_delta,0.04169584712997743,0.012883078076194597,,,,,0.4564700439244059,1643,1957,0,,WHITE,,,0,,WHITE,True,CORRECT,0.6337278999999398,633.7278999999398
6,20260325_140431,D,J,False,MANUAL,4,482,1782,fixed_delta,0.04169584712997743,0.012883078076194597,,,,,0.5492186014189652,1977,1623,0,,BLACK,,,0,,BLACK,True,CORRECT,0.5803593000018736,580.3593000018736
6,20260325_140431,D,J,False,MANUAL,4,483,1783,fixed_delta,0.04169584712997743,0.012883078076194597,,,,,0.5564604731317947,2003,1597,0,,BLACK,,,0,,BLACK,True,CORRECT,0.7406226999992214,740.6226999992214
6,20260325_140431,D,J,False,MANUAL,4,484,1784,fixed_delta,0.04169584712997743,0.012883078076194597,,,,,0.5214212354263705,1877,1723,0,,BLACK,,,0,,BLACK,True,CORRECT,0.7533559000003152,753.3559000003152
6,20260325_140431,D,J,False,MANUAL,4,485,1785,fixed_delta,0.04169584712997743,0.012883078076194597,,,,,0.4443474228610832,1600,2000,0,,WHITE,,,0,,WHITE,True,CORRECT,0.809442300000228,809.442300000228
6,20260325_140431,D,J,False,MANUAL,4,486,1786,fixed_delta,0.04169584712997743,0.012883078076194597,,,,,0.5590124451579637,2012,1588,0,,BLACK,,,0,,BLACK,True,CORRECT,0.6629437000010512,662.9437000010512
6,20260325_140431,D,J,False,MANUAL,4,487,1787,fixed_delta,0.04169584712997743,0.012883078076194597,,,,,0.5337562991404126,1922,1678,0,,BLACK,,,0,,WHITE,False,INCORRECT,1.5851015000007465,1585.1015000007465
6,20260325_140431,D,J,False,MANUAL,4,488,1788,fixed_delta,0.04169584712997743,0.012883078076194597,,,,,0.4398469002554943,1583,2017,0,,WHITE,,,0,,WHITE,True,CORRECT,0.5745156000011775,574.5156000011775
6,20260325_140431,D,J,False,MANUAL,4,489,1789,fixed_delta,0.04169584712997743,0.012883078076194597,,,,,0.45660222242629167,1644,1956,0,,WHITE,,,0,,WHITE,True,CORRECT,1.0478877999994438,1047.8877999994438
