participant_id,run_timestamp,key_black,key_white,keymap_flip,block,block_idx,trial,global_trial,difficulty_mode,delta_fixed_mean,delta_fixed_sd,delta_stair_realised,delta_stair_mean,delta_step_down_used,delta_step_up_used,vblack_prop,n_vblack,n_vwhite,auto_on,aid_accuracy_setting,stimulus,aid_label,aid_correct,aid_onset_ms,aid_onset_ms_rel,response,correct,feedback,rt_s,rt_ms
7,20260325_141148,J,D,True,CALIBRATION,1,1,1,staircase,,,0.1889018700977174,0.24000000000000002,0.01,0.04000000000000001,0.6889018700977174,2480,1120,0,,BLACK,,,0,,WHITE,False,INCORRECT,1.1187274000003526,1118.7274000003526
7,20260325_141148,J,D,True,CALIBRATION,1,2,2,staircase,,,0.2368417530384346,0.23018367346938778,0.009816326530612245,0.03926530612244899,0.2631582469615654,947,2653,0,,WHITE,,,0,,WHITE,True,CORRECT,1.2800779999997758,1280.0779999997758
7,20260325_141148,J,D,True,CALIBRATION,1,3,3,staircase,,,0.22594237078960366,0.2205510204081633,0.00963265306122449,0.03853061224489797,0.7259423707896037,2613,987,0,,BLACK,,,0,,BLACK,True,CORRECT,0.7574440000007598,757.4440000007598
7,20260325_141148,J,D,True,CALIBRATION,1,4,4,staircase,,,0.23093500370889083,0.21110204081632655,0.009448979591836736,0.03779591836734695,0.7309350037088909,2631,969,0,,BLACK,,,0,,BLACK,True,CORRECT,0.668735100000049,668.735100000049
7,20260325_141148,J,D,True,CALIBRATION,1,5,5,staircase,,,0.21319707285395093,0.20183673469387758,0.009265306122448979,0.03706122448979592,0.28680292714604905,1032,2568,0,,WHITE,,,0,,WHITE,True,CORRECT,0.5007590000004711,500.75900000047113
7,20260325_141148,J,D,True,CALIBRATION,1,6,6,staircase,,,0.19770783274407028,0.19275510204081636,0.009081632653061224,0.0363265306122449,0.6977078327440702,2512,1088,0,,BLACK,,,0,,BLACK,True,CORRECT,0.4154392000000371,415.4392000000371
7,20260325_141148,J,D,True,CALIBRATION,1,7,7,staircase,,,0.19852542471913434,0.18385714285714289,0.00889795918367347,0.035591836734693884,0.30147457528086563,1085,2515,0,,WHITE,,,0,,WHITE,True,CORRECT,0.48040669999863894,480.40669999863894
7,20260325_141148,J,D,True,CALIBRATION,1,8,8,staircase,,,0.18673868078495437,0.17514285714285718,0.008714285714285714,0.034857142857142864,0.31326131921504563,1128,2472,0,,WHITE,,,0,,WHITE,True,CORRECT,0.526489899999433,526.489899999433
7,20260325_141148,J,D,True,CALIBRATION,1,9,9,staircase,,,0.16369129244940644,0.16661224489795923,0.00853061224489796,0.034122448979591845,0.6636912924494065,2389,1211,0,,BLACK,,,0,,BLACK,True,CORRECT,0.4613277000007656,461.3277000007656
7,20260325_141148,J,D,True,CALIBRATION,1,10,10,staircase,,,0.1779325874262543,0.15826530612244902,0.008346938775510205,0.033387755102040825,0.6779325874262543,2441,1159,0,,BLACK,,,0,,BLACK,True,CORRECT,0.44702030000007653,447.02030000007653
7,20260325_141148,J,D,True,CALIBRATION,1,11,11,staircase,,,0.15492062847812996,0.15010204081632655,0.00816326530612245,0.032653061224489806,0.6549206284781299,2358,1242,0,,BLACK,,,0,,BLACK,True,CORRECT,0.5167653000007704,516.7653000007704
7,20260325_141148,J,D,True,CALIBRATION,1,12,12,staircase,,,0.16011481600318966,0.14212244897959186,0.007979591836734693,0.03191836734693878,0.6601148160031897,2376,1224,0,,BLACK,,,0,,BLACK,True,CORRECT,0.5201441999997769,520.1441999997769
7,20260325_141148,J,D,True,CALIBRATION,1,13,13,staircase,,,0.13369380438256273,0.13432653061224492,0.007795918367346938,0.03118367346938776,0.6336938043825627,2281,1319,0,,BLACK,,,0,,BLACK,True,CORRECT,0.5187423999996099,518.7423999996099
7,20260325_141148,J,D,True,CALIBRATION,1,14,14,staircase,,,0.13388466691791626,0.12671428571428572,0.007612244897959183,0.03044897959183674,0.36611533308208377,1318,2282,0,,WHITE,,,0,,WHITE,True,CORRECT,0.5632432000002154,563.2432000002154
7,20260325_141148,J,D,True,CALIBRATION,1,15,15,staircase,,,0.11456967752467241,0.1192857142857143,0.0074285714285714285,0.02971428571428572,0.6145696775246724,2212,1388,0,,BLACK,,,0,,BLACK,True,CORRECT,0.48396990000037476,483.96990000037476
7,20260325_141148,J,D,True,CALIBRATION,1,16,16,staircase,,,0.12211038940639692,0.11204081632653062,0.007244897959183674,0.0289795918367347,0.622110389406397,2240,1360,0,,BLACK,,,0,,BLACK,True,CORRECT,0.4494948999999906,449.4948999999906
7,20260325_141148,J,D,True,CALIBRATION,1,17,17,staircase,,,0.08793763593746318,0.1049795918367347,0.007061224489795919,0.028244897959183682,0.4120623640625368,1483,2117,0,,WHITE,,,0,,WHITE,True,CORRECT,0.414628200000152,414.628200000152
7,20260325_141148,J,D,True,CALIBRATION,1,18,18,staircase,,,0.10327169998258623,0.09810204081632655,0.006877551020408163,0.02751020408163266,0.39672830001741377,1428,2172,0,,WHITE,,,0,,WHITE,True,CORRECT,0.46817689999988943,468.17689999988943
7,20260325_141148,J,D,True,CALIBRATION,1,19,19,staircase,,,0.10478172075296736,0.09140816326530614,0.006693877551020407,0.026775510204081636,0.6047817207529673,2177,1423,0,,BLACK,,,0,,BLACK,True,CORRECT,0.4654202000001533,465.4202000001533
7,20260325_141148,J,D,True,CALIBRATION,1,20,20,staircase,,,0.09729530386347454,0.08489795918367349,0.006510204081632652,0.026040816326530616,0.4027046961365255,1450,2150,0,,WHITE,,,0,,WHITE,True,CORRECT,0.3671465999996144,367.1465999996144
7,20260325_141148,J,D,True,CALIBRATION,1,21,21,staircase,,,0.08613664156536183,0.0785714285714286,0.0063265306122448975,0.025306122448979597,0.4138633584346382,1490,2110,0,,WHITE,,,0,,WHITE,True,CORRECT,0.46709159999954863,467.09159999954863
7,20260325_141148,J,D,True,CALIBRATION,1,22,22,staircase,,,0.07149945784599848,0.07242857142857145,0.006142857142857143,0.024571428571428577,0.4285005421540015,1543,2057,0,,WHITE,,,0,,WHITE,True,CORRECT,0.5651428999990458,565.1428999990458
7,20260325_141148,J,D,True,CALIBRATION,1,23,23,staircase,,,0.07305312546596912,0.06646938775510207,0.005959183673469388,0.023836734693877558,0.5730531254659691,2063,1537,0,,BLACK,,,0,,BLACK,True,CORRECT,0.4265885000004346,426.5885000004346
7,20260325_141148,J,D,True,CALIBRATION,1,24,24,staircase,,,0.07007509218156624,0.06069387755102044,0.005775510204081632,0.02310204081632653,0.42992490781843373,1548,2052,0,,WHITE,,,0,,WHITE,True,CORRECT,0.6729568999999174,672.9568999999174
7,20260325_141148,J,D,True,CALIBRATION,1,25,25,staircase,,,0.054225328679989485,0.05510204081632656,0.005591836734693877,0.022367346938775512,0.44577467132001053,1605,1995,0,,WHITE,,,0,,WHITE,True,CORRECT,0.5890313999989303,589.0313999989303
7,20260325_141148,J,D,True,CALIBRATION,1,26,26,staircase,,,0.06287383326919777,0.07673469387755105,0.005408163265306122,0.021632653061224492,0.43712616673080223,1574,2026,0,,WHITE,,,0,,BLACK,False,INCORRECT,0.924019899999621,924.019899999621
7,20260325_141148,J,D,True,CALIBRATION,1,27,27,staircase,,,0.0900996140026759,0.07151020408163268,0.0052244897959183665,0.02089795918367347,0.4099003859973241,1476,2124,0,,WHITE,,,0,,WHITE,True,CORRECT,1.3283938000004127,1328.3938000004127
7,20260325_141148,J,D,True,CALIBRATION,1,28,28,staircase,,,0.07387112018618187,0.06646938775510207,0.0050408163265306125,0.020163265306122453,0.42612887981381814,1534,2066,0,,WHITE,,,0,,WHITE,True,CORRECT,0.6382274000006873,638.2274000006873
7,20260325_141148,J,D,True,CALIBRATION,1,29,29,staircase,,,0.07874689939736726,0.06161224489795921,0.004857142857142857,0.01942857142857143,0.42125310060263277,1517,2083,0,,WHITE,,,0,,WHITE,True,CORRECT,0.5595016999996005,559.5016999996005
7,20260325_141148,J,D,True,CALIBRATION,1,30,30,staircase,,,0.06476440432062465,0.05693877551020411,0.004673469387755102,0.01869387755102041,0.5647644043206247,2033,1567,0,,BLACK,,,0,,BLACK,True,CORRECT,0.7678714000012405,767.8714000012405
7,20260325_141148,J,D,True,CALIBRATION,1,31,31,staircase,,,0.08667513007267462,0.05244897959183677,0.004489795918367346,0.017959183673469388,0.41332486992732537,1488,2112,0,,WHITE,,,0,,WHITE,True,CORRECT,0.6653839999999036,665.3839999999036
7,20260325_141148,J,D,True,CALIBRATION,1,32,32,staircase,,,0.06103669962392551,0.048142857142857175,0.004306122448979591,0.01722448979591837,0.4389633003760745,1580,2020,0,,WHITE,,,0,,WHITE,True,CORRECT,0.6185561999991478,618.5561999991478
7,20260325_141148,J,D,True,CALIBRATION,1,33,33,staircase,,,0.0630902270886258,0.044020408163265336,0.004122448979591836,0.01648979591836735,0.43690977291137423,1573,2027,0,,WHITE,,,0,,WHITE,True,CORRECT,1.2319092999987333,1231.9092999987333
7,20260325_141148,J,D,True,CALIBRATION,1,34,34,staircase,,,0.04512017956095138,0.04008163265306126,0.0039387755102040815,0.01575510204081633,0.5451201795609514,1962,1638,0,,BLACK,,,0,,BLACK,True,CORRECT,0.6917671000010159,691.7671000010159
7,20260325_141148,J,D,True,CALIBRATION,1,35,35,staircase,,,0.05065407235523216,0.03632653061224493,0.0037551020408163258,0.015020408163265307,0.44934592764476783,1618,1982,0,,WHITE,,,0,,WHITE,True,CORRECT,0.6607340999998996,660.7340999998996
7,20260325_141148,J,D,True,CALIBRATION,1,36,36,staircase,,,0.04389638393875253,0.03275510204081636,0.003571428571428571,0.014285714285714287,0.4561036160612475,1642,1958,0,,WHITE,,,0,,WHITE,True,CORRECT,0.7485786999986885,748.5786999986885
7,20260325_141148,J,D,True,CALIBRATION,1,37,37,staircase,,,0.033567521734653785,0.029367346938775542,0.003387755102040815,0.013551020408163264,0.5335675217346538,1921,1679,0,,BLACK,,,0,,BLACK,True,CORRECT,0.6606670999990456,660.6670999990456
7,20260325_141148,J,D,True,CALIBRATION,1,38,38,staircase,,,0.033960012370267176,0.04218367346938779,0.003204081632653061,0.012816326530612248,0.5339600123702671,1922,1678,0,,BLACK,,,0,,WHITE,False,INCORRECT,0.7268022999996901,726.8022999996901
7,20260325_141148,J,D,True,CALIBRATION,1,39,39,staircase,,,0.03524555574996077,0.039163265306122484,0.0030204081632653054,0.012081632653061225,0.5352455557499608,1927,1673,0,,BLACK,,,0,,BLACK,True,CORRECT,0.40018630000122357,400.1863000012236
7,20260325_141148,J,D,True,CALIBRATION,1,40,40,staircase,,,0.024296403269992762,0.05051020408163269,0.0028367346938775505,0.011346938775510204,0.4757035967300072,1713,1887,0,,WHITE,,,0,,BLACK,False,INCORRECT,0.9127616000005219,912.7616000005219
7,20260325_141148,J,D,True,CALIBRATION,1,41,41,staircase,,,0.05404216366878241,0.0478571428571429,0.0026530612244897948,0.01061224489795918,0.4459578363312176,1605,1995,0,,WHITE,,,0,,WHITE,True,CORRECT,0.611088399999062,611.088399999062
7,20260325_141148,J,D,True,CALIBRATION,1,42,42,staircase,,,0.026970955505444275,0.04538775510204086,0.00246938775510204,0.009877551020408161,0.47302904449455574,1703,1897,0,,WHITE,,,0,,WHITE,True,CORRECT,0.7872392999997828,787.2392999997828
7,20260325_141148,J,D,True,CALIBRATION,1,43,43,staircase,,,0.05805863323943388,0.04310204081632657,0.002285714285714285,0.009142857142857142,0.5580586332394338,2009,1591,0,,BLACK,,,0,,BLACK,True,CORRECT,0.8074854000005871,807.4854000005871
7,20260325_141148,J,D,True,CALIBRATION,1,44,44,staircase,,,0.04003830300335456,0.041000000000000036,0.00210204081632653,0.008408163265306122,0.45996169699664546,1656,1944,0,,WHITE,,,0,,WHITE,True,CORRECT,0.762812799999665,762.812799999665
7,20260325_141148,J,D,True,CALIBRATION,1,45,45,staircase,,,0.047420018596675294,0.03908163265306126,0.0019183673469387753,0.007673469387755103,0.5474200185966753,1971,1629,0,,BLACK,,,0,,BLACK,True,CORRECT,0.7076104000007035,707.6104000007035
7,20260325_141148,J,D,True,CALIBRATION,1,46,46,staircase,,,0.034458223641429704,0.04602040816326534,0.0017346938775510187,0.006938775510204076,0.4655417763585703,1676,1924,0,,WHITE,,,0,,BLACK,False,INCORRECT,1.190897299999051,1190.897299999051
7,20260325_141148,J,D,True,CALIBRATION,1,47,47,staircase,,,0.04268606197465134,0.05222448979591839,0.0015510204081632638,0.006204081632653057,0.5426860619746513,1954,1646,0,,BLACK,,,0,,WHITE,False,INCORRECT,1.3727053999991767,1372.7053999991767
7,20260325_141148,J,D,True,CALIBRATION,1,48,48,staircase,,,0.058332114878971164,0.05085714285714288,0.0013673469387755106,0.005469387755102043,0.44166788512102884,1590,2010,0,,WHITE,,,0,,WHITE,True,CORRECT,0.5963045999997121,596.3045999997121
7,20260325_141148,J,D,True,CALIBRATION,1,49,49,staircase,,,0.04838793353882818,0.049673469387755124,0.001183673469387754,0.004734693877551017,0.5483879335388282,1974,1626,0,,BLACK,,,0,,BLACK,True,CORRECT,0.6035511999998562,603.5511999998562
7,20260325_141148,J,D,True,CALIBRATION,1,50,50,staircase,,,0.03932639368222818,0.048673469387755124,0.001,0.004000000000000001,0.5393263936822281,1942,1658,0,,BLACK,,,0,,BLACK,True,CORRECT,1.027966199999355,1027.966199999355
7,20260325_141148,J,D,True,CALIBRATION,1,51,51,staircase,,,0.04984215944486876,0.04767346938775512,0.001,0.004000000000000001,0.45015784055513125,1621,1979,0,,WHITE,,,0,,WHITE,True,CORRECT,0.7240239000002475,724.0239000002475
7,20260325_141148,J,D,True,CALIBRATION,1,52,52,staircase,,,0.06429186716282172,0.04667346938775512,0.001,0.004000000000000001,0.5642918671628218,2031,1569,0,,BLACK,,,0,,BLACK,True,CORRECT,0.5946815000006609,594.6815000006609
7,20260325_141148,J,D,True,CALIBRATION,1,53,53,staircase,,,0.04452385864569746,0.04567346938775512,0.001,0.004000000000000001,0.45547614135430253,1640,1960,0,,WHITE,,,0,,WHITE,True,CORRECT,0.6685942000003706,668.5942000003706
7,20260325_141148,J,D,True,CALIBRATION,1,54,54,staircase,,,0.04619439155377579,0.04467346938775512,0.001,0.004000000000000001,0.5461943915537758,1966,1634,0,,BLACK,,,0,,BLACK,True,CORRECT,0.5391746999994211,539.1746999994211
7,20260325_141148,J,D,True,CALIBRATION,1,55,55,staircase,,,0.04664061126838269,0.04367346938775512,0.001,0.004000000000000001,0.5466406112683827,1968,1632,0,,BLACK,,,0,,BLACK,True,CORRECT,0.6201076999986981,620.1076999986981
7,20260325_141148,J,D,True,CALIBRATION,1,56,56,staircase,,,0.04503016595139276,0.04267346938775512,0.001,0.004000000000000001,0.45496983404860725,1638,1962,0,,WHITE,,,0,,WHITE,True,CORRECT,0.6681472000000213,668.1472000000213
7,20260325_141148,J,D,True,CALIBRATION,1,57,57,staircase,,,0.03487075311448145,0.04667346938775512,0.001,0.004000000000000001,0.46512924688551854,1674,1926,0,,WHITE,,,0,,BLACK,False,INCORRECT,0.6309621000000334,630.9621000000334
7,20260325_141148,J,D,True,CALIBRATION,1,58,58,staircase,,,0.05699593960671052,0.04567346938775512,0.001,0.004000000000000001,0.4430040603932895,1595,2005,0,,WHITE,,,0,,WHITE,True,CORRECT,1.1651137999997445,1165.1137999997445
7,20260325_141148,J,D,True,CALIBRATION,1,59,59,staircase,,,0.03935625379508711,0.04467346938775512,0.001,0.004000000000000001,0.5393562537950871,1942,1658,0,,BLACK,,,0,,BLACK,True,CORRECT,0.848087200000009,848.087200000009
7,20260325_141148,J,D,True,CALIBRATION,1,60,60,staircase,,,0.04867709735250265,0.04367346938775512,0.001,0.004000000000000001,0.45132290264749736,1625,1975,0,,WHITE,,,0,,WHITE,True,CORRECT,0.8121850000006816,812.1850000006816
7,20260325_141148,J,D,True,CALIBRATION,1,61,61,staircase,,,0.03233666409548529,0.04767346938775512,0.001,0.004000000000000001,0.5323366640954853,1916,1684,0,,BLACK,,,0,,WHITE,False,INCORRECT,1.1376220000001922,1137.6220000001922
7,20260325_141148,J,D,True,CALIBRATION,1,62,62,staircase,,,0.04816517822261054,0.04667346938775512,0.001,0.004000000000000001,0.5481651782226106,1973,1627,0,,BLACK,,,0,,BLACK,True,CORRECT,1.0749561000011454,1074.9561000011454
7,20260325_141148,J,D,True,CALIBRATION,1,63,63,staircase,,,0.052278755206083286,0.04567346938775512,0.001,0.004000000000000001,0.5522787552060833,1988,1612,0,,BLACK,,,0,,BLACK,True,CORRECT,0.7511789000000135,751.1789000000135
7,20260325_141148,J,D,True,CALIBRATION,1,64,64,staircase,,,0.038219947269747735,0.04467346938775512,0.001,0.004000000000000001,0.46178005273025224,1662,1938,0,,WHITE,,,0,,WHITE,True,CORRECT,2.617865599999277,2617.865599999277
7,20260325_141148,J,D,True,CALIBRATION,1,65,65,staircase,,,0.05098577211047082,0.048673469387755124,0.001,0.004000000000000001,0.44901422788952916,1616,1984,0,,WHITE,,,0,,BLACK,False,INCORRECT,0.9153762000005372,915.3762000005372
7,20260325_141148,J,D,True,CALIBRATION,1,66,66,staircase,,,0.05295685443430667,0.04767346938775512,0.001,0.004000000000000001,0.5529568544343066,1991,1609,0,,BLACK,,,0,,BLACK,True,CORRECT,0.9278905000010127,927.8905000010127
7,20260325_141148,J,D,True,CALIBRATION,1,67,67,staircase,,,0.0422851849805126,0.04667346938775512,0.001,0.004000000000000001,0.4577148150194874,1648,1952,0,,WHITE,,,0,,WHITE,True,CORRECT,1.5216918000005535,1521.6918000005535
7,20260325_141148,J,D,True,CALIBRATION,1,68,68,staircase,,,0.05163176351836557,0.04567346938775512,0.001,0.004000000000000001,0.5516317635183656,1986,1614,0,,BLACK,,,0,,BLACK,True,CORRECT,0.5732355000000098,573.2355000000098
7,20260325_141148,J,D,True,CALIBRATION,1,69,69,staircase,,,0.04957319040892233,0.04467346938775512,0.001,0.004000000000000001,0.5495731904089223,1978,1622,0,,BLACK,,,0,,BLACK,True,CORRECT,0.5348988000005193,534.8988000005193
7,20260325_141148,J,D,True,CALIBRATION,1,70,70,staircase,,,0.054278053301585416,0.04367346938775512,0.001,0.004000000000000001,0.4457219466984146,1605,1995,0,,WHITE,,,0,,WHITE,True,CORRECT,0.9741087999991578,974.1087999991578
7,20260325_141148,J,D,True,CALIBRATION,1,71,71,staircase,,,0.04937980022584158,0.04267346938775512,0.001,0.004000000000000001,0.5493798002258415,1978,1622,0,,BLACK,,,0,,BLACK,True,CORRECT,0.5445061000009446,544.5061000009446
7,20260325_141148,J,D,True,CALIBRATION,1,72,72,staircase,,,0.0379014788519029,0.04667346938775512,0.001,0.004000000000000001,0.46209852114809713,1664,1936,0,,WHITE,,,0,,BLACK,False,INCORRECT,1.2406476000014663,1240.6476000014663
7,20260325_141148,J,D,True,CALIBRATION,1,73,73,staircase,,,0.0610615936723288,0.04567346938775512,0.001,0.004000000000000001,0.5610615936723288,2020,1580,0,,BLACK,,,0,,BLACK,True,CORRECT,0.7485324999997829,748.5324999997829
7,20260325_141148,J,D,True,CALIBRATION,1,74,74,staircase,,,0.0547717925120803,0.04467346938775512,0.001,0.004000000000000001,0.4452282074879197,1603,1997,0,,WHITE,,,0,,WHITE,True,CORRECT,1.3280035000007047,1328.0035000007047
7,20260325_141148,J,D,True,CALIBRATION,1,75,75,staircase,,,0.04840605909126595,0.048673469387755124,0.001,0.004000000000000001,0.45159394090873406,1626,1974,0,,WHITE,,,0,,BLACK,False,INCORRECT,0.7387763000006089,738.7763000006089
7,20260325_141148,J,D,True,CALIBRATION,1,76,76,staircase,,,0.059847080986783,0.04767346938775512,0.001,0.004000000000000001,0.440152919013217,1585,2015,0,,WHITE,,,0,,WHITE,True,CORRECT,1.5451795000008133,1545.1795000008133
7,20260325_141148,J,D,True,CALIBRATION,1,77,77,staircase,,,0.05637194477710672,0.04667346938775512,0.001,0.004000000000000001,0.5563719447771067,2003,1597,0,,BLACK,,,0,,BLACK,True,CORRECT,0.5913643999992928,591.3643999992928
7,20260325_141148,J,D,True,CALIBRATION,1,78,78,staircase,,,0.04995733000964345,0.04567346938775512,0.001,0.004000000000000001,0.4500426699903566,1620,1980,0,,WHITE,,,0,,WHITE,True,CORRECT,1.18900339999891,1189.00339999891
7,20260325_141148,J,D,True,CALIBRATION,1,79,79,staircase,,,0.054519520096900184,0.04467346938775512,0.001,0.004000000000000001,0.5545195200969002,1996,1604,0,,BLACK,,,0,,BLACK,True,CORRECT,0.524724699998842,524.724699998842
7,20260325_141148,J,D,True,CALIBRATION,1,80,80,staircase,,,0.04843031407537473,0.04367346938775512,0.001,0.004000000000000001,0.45156968592462526,1626,1974,0,,WHITE,,,0,,WHITE,True,CORRECT,0.49303409999993164,493.03409999993164
7,20260325_141148,J,D,True,CALIBRATION,1,81,81,staircase,,,0.03727623783425219,0.04767346938775512,0.001,0.004000000000000001,0.4627237621657478,1666,1934,0,,WHITE,,,0,,BLACK,False,INCORRECT,0.44596910000109347,445.96910000109347
7,20260325_141148,J,D,True,CALIBRATION,1,82,82,staircase,,,0.06706223345955788,0.04667346938775512,0.001,0.004000000000000001,0.43293776654044214,1559,2041,0,,WHITE,,,0,,WHITE,True,CORRECT,1.5560628000002907,1556.0628000002907
7,20260325_141148,J,D,True,CALIBRATION,1,83,83,staircase,,,0.050859251227412874,0.04567346938775512,0.001,0.004000000000000001,0.5508592512274129,1983,1617,0,,BLACK,,,0,,BLACK,True,CORRECT,0.6046938999988924,604.6938999988924
7,20260325_141148,J,D,True,CALIBRATION,1,84,84,staircase,,,0.06387147081409503,0.04467346938775512,0.001,0.004000000000000001,0.563871470814095,2030,1570,0,,BLACK,,,0,,BLACK,True,CORRECT,0.5429244999995717,542.9244999995717
7,20260325_141148,J,D,True,CALIBRATION,1,85,85,staircase,,,0.059097570709963854,0.04367346938775512,0.001,0.004000000000000001,0.5590975707099639,2013,1587,0,,BLACK,,,0,,BLACK,True,CORRECT,0.5640049000012368,564.0049000012368
7,20260325_141148,J,D,True,CALIBRATION,1,86,86,staircase,,,0.04386934824142023,0.04267346938775512,0.001,0.004000000000000001,0.45613065175857975,1642,1958,0,,WHITE,,,0,,WHITE,True,CORRECT,1.434417399999802,1434.417399999802
7,20260325_141148,J,D,True,CALIBRATION,1,87,87,staircase,,,0.062407976869693085,0.04167346938775512,0.001,0.004000000000000001,0.5624079768696931,2025,1575,0,,BLACK,,,0,,BLACK,True,CORRECT,1.1372582999993028,1137.2582999993028
7,20260325_141148,J,D,True,CALIBRATION,1,88,88,staircase,,,0.04412357256888097,0.040673469387755116,0.001,0.004000000000000001,0.455876427431119,1641,1959,0,,WHITE,,,0,,WHITE,True,CORRECT,1.392816400000811,1392.816400000811
7,20260325_141148,J,D,True,CALIBRATION,1,89,89,staircase,,,0.040798665143644455,0.04467346938775512,0.001,0.004000000000000001,0.45920133485635556,1653,1947,0,,WHITE,,,0,,BLACK,False,INCORRECT,0.5917131000005611,591.7131000005611
7,20260325_141148,J,D,True,CALIBRATION,1,90,90,staircase,,,0.029718559538202585,0.04367346938775512,0.001,0.004000000000000001,0.5297185595382026,1907,1693,0,,BLACK,,,0,,BLACK,True,CORRECT,1.8072118000000046,1807.2118000000046
7,20260325_141148,J,D,True,CALIBRATION,1,91,91,staircase,,,0.05349560236199086,0.04267346938775512,0.001,0.004000000000000001,0.44650439763800914,1607,1993,0,,WHITE,,,0,,WHITE,True,CORRECT,0.48953719999917666,489.53719999917666
7,20260325_141148,J,D,True,CALIBRATION,1,92,92,staircase,,,0.030183280385540807,0.04167346938775512,0.001,0.004000000000000001,0.5301832803855409,1909,1691,0,,BLACK,,,0,,BLACK,True,CORRECT,0.5706936999995378,570.6936999995378
7,20260325_141148,J,D,True,CALIBRATION,1,93,93,staircase,,,0.05187736265825716,0.040673469387755116,0.001,0.004000000000000001,0.44812263734174285,1613,1987,0,,WHITE,,,0,,WHITE,True,CORRECT,0.7040563999998994,704.0563999998994
7,20260325_141148,J,D,True,CALIBRATION,1,94,94,staircase,,,0.04814715216962998,0.039673469387755116,0.001,0.004000000000000001,0.54814715216963,1973,1627,0,,BLACK,,,0,,BLACK,True,CORRECT,0.7804300999996485,780.4300999996485
7,20260325_141148,J,D,True,CALIBRATION,1,95,95,staircase,,,0.030107596687859187,0.038673469387755115,0.001,0.004000000000000001,0.4698924033121408,1692,1908,0,,WHITE,,,0,,WHITE,True,CORRECT,0.727400800000396,727.400800000396
7,20260325_141148,J,D,True,CALIBRATION,1,96,96,staircase,,,0.03609236345311059,0.04267346938775512,0.001,0.004000000000000001,0.4639076365468894,1670,1930,0,,WHITE,,,0,,BLACK,False,INCORRECT,0.7398417000003974,739.8417000003974
7,20260325_141148,J,D,True,CALIBRATION,1,97,97,staircase,,,0.026855150530089723,0.04667346938775512,0.001,0.004000000000000001,0.5268551505300897,1897,1703,0,,BLACK,,,0,,WHITE,False,INCORRECT,0.7367080000003625,736.7080000003625
7,20260325_141148,J,D,True,CALIBRATION,1,98,98,staircase,,,0.05031296311092709,0.04567346938775512,0.001,0.004000000000000001,0.4496870368890729,1619,1981,0,,WHITE,,,0,,WHITE,True,CORRECT,0.6533244000002014,653.3244000002014
7,20260325_141148,J,D,True,CALIBRATION,1,99,99,staircase,,,0.05064930895977765,0.04467346938775512,0.001,0.004000000000000001,0.44935069104022235,1618,1982,0,,WHITE,,,0,,WHITE,True,CORRECT,0.6388031000005867,638.8031000005867
7,20260325_141148,J,D,True,CALIBRATION,1,100,100,staircase,,,0.04212846628769035,0.04367346938775512,0.001,0.004000000000000001,0.5421284662876904,1952,1648,0,,BLACK,,,0,,BLACK,True,CORRECT,0.5708501999997679,570.8501999997679
7,20260325_141148,J,D,True,CALIBRATION,1,101,101,staircase,,,0.029098861338122374,0.04267346938775512,0.001,0.004000000000000001,0.4709011386618776,1695,1905,0,,WHITE,,,0,,WHITE,True,CORRECT,0.4863919999988866,486.3919999988866
7,20260325_141148,J,D,True,CALIBRATION,1,102,102,staircase,,,0.01876885885511873,0.04167346938775512,0.001,0.004000000000000001,0.5187688588551187,1868,1732,0,,BLACK,,,0,,BLACK,True,CORRECT,0.48222879999957513,482.22879999957513
7,20260325_141148,J,D,True,CALIBRATION,1,103,103,staircase,,,0.03487718033113303,0.040673469387755116,0.001,0.004000000000000001,0.5348771803311331,1926,1674,0,,BLACK,,,0,,BLACK,True,CORRECT,0.5881086000008509,588.1086000008509
7,20260325_141148,J,D,True,CALIBRATION,1,104,104,staircase,,,0.04352044015777611,0.039673469387755116,0.001,0.004000000000000001,0.5435204401577761,1957,1643,0,,BLACK,,,0,,BLACK,True,CORRECT,1.0141134999994392,1014.1134999994392
7,20260325_141148,J,D,True,CALIBRATION,1,105,105,staircase,,,0.022276756284377607,0.04367346938775512,0.001,0.004000000000000001,0.5222767562843776,1880,1720,0,,BLACK,,,0,,WHITE,False,INCORRECT,0.752719199999774,752.719199999774
7,20260325_141148,J,D,True,CALIBRATION,1,106,106,staircase,,,0.045275399986441714,0.04267346938775512,0.001,0.004000000000000001,0.5452753999864417,1963,1637,0,,BLACK,,,0,,BLACK,True,CORRECT,0.707095700001446,707.095700001446
7,20260325_141148,J,D,True,CALIBRATION,1,107,107,staircase,,,0.04132427148694238,0.04167346938775512,0.001,0.004000000000000001,0.5413242714869424,1949,1651,0,,BLACK,,,0,,BLACK,True,CORRECT,1.0988610000003973,1098.8610000003973
7,20260325_141148,J,D,True,CALIBRATION,1,108,108,staircase,,,0.02424310118596267,0.040673469387755116,0.001,0.004000000000000001,0.5242431011859626,1887,1713,0,,BLACK,,,0,,BLACK,True,CORRECT,1.1051815999999235,1105.1815999999235
7,20260325_141148,J,D,True,CALIBRATION,1,109,109,staircase,,,0.031816822755167326,0.039673469387755116,0.001,0.004000000000000001,0.5318168227551673,1915,1685,0,,BLACK,,,0,,BLACK,True,CORRECT,0.9825435999991896,982.5435999991896
7,20260325_141148,J,D,True,CALIBRATION,1,110,110,staircase,,,0.05306999451679193,0.04367346938775512,0.001,0.004000000000000001,0.44693000548320805,1609,1991,0,,WHITE,,,0,,BLACK,False,INCORRECT,0.9241132000006473,924.1132000006473
7,20260325_141148,J,D,True,CALIBRATION,1,111,111,staircase,,,0.03397114525425798,0.04267346938775512,0.001,0.004000000000000001,0.466028854745742,1678,1922,0,,WHITE,,,0,,WHITE,True,CORRECT,1.4134828000005655,1413.4828000005655
7,20260325_141148,J,D,True,CALIBRATION,1,112,112,staircase,,,0.04680348548349051,0.04167346938775512,0.001,0.004000000000000001,0.5468034854834906,1968,1632,0,,BLACK,,,0,,BLACK,True,CORRECT,0.7686175999988336,768.6175999988336
7,20260325_141148,J,D,True,CALIBRATION,1,113,113,staircase,,,0.04043580084367949,0.040673469387755116,0.001,0.004000000000000001,0.5404358008436795,1946,1654,0,,BLACK,,,0,,BLACK,True,CORRECT,1.085946999999578,1085.946999999578
7,20260325_141148,J,D,True,CALIBRATION,1,114,114,staircase,,,0.038850130752624286,0.039673469387755116,0.001,0.004000000000000001,0.5388501307526243,1940,1660,0,,BLACK,,,0,,BLACK,True,CORRECT,0.8279053000005661,827.9053000005661
7,20260325_141148,J,D,True,CALIBRATION,1,115,115,staircase,,,0.04712268069449849,0.038673469387755115,0.001,0.004000000000000001,0.5471226806944984,1970,1630,0,,BLACK,,,0,,BLACK,True,CORRECT,0.9181788999994751,918.1788999994751
7,20260325_141148,J,D,True,CALIBRATION,1,116,116,staircase,,,0.032611336600963735,0.037673469387755114,0.001,0.004000000000000001,0.5326113366009637,1917,1683,0,,BLACK,,,0,,BLACK,True,CORRECT,0.9094239000005473,909.4239000005473
7,20260325_141148,J,D,True,CALIBRATION,1,117,117,staircase,,,0.050700050212188714,0.03667346938775511,0.001,0.004000000000000001,0.5507000502121887,1983,1617,0,,BLACK,,,0,,BLACK,True,CORRECT,0.7940474999995786,794.0474999995786
7,20260325_141148,J,D,True,CALIBRATION,1,118,118,staircase,,,0.04766275676462381,0.03567346938775511,0.001,0.004000000000000001,0.45233724323537616,1628,1972,0,,WHITE,,,0,,WHITE,True,CORRECT,0.9558522999996057,955.8522999996057
7,20260325_141148,J,D,True,CALIBRATION,1,119,119,staircase,,,0.031907313982350714,0.039673469387755116,0.001,0.004000000000000001,0.4680926860176493,1685,1915,0,,WHITE,,,0,,BLACK,False,INCORRECT,1.7749291000000085,1774.9291000000085
7,20260325_141148,J,D,True,CALIBRATION,1,120,120,staircase,,,0.03477710879499596,0.038673469387755115,0.001,0.004000000000000001,0.46522289120500404,1675,1925,0,,WHITE,,,0,,WHITE,True,CORRECT,1.9044716999997036,1904.4716999997036
7,20260325_141148,J,D,True,CALIBRATION,1,121,121,staircase,,,0.054785605304656454,0.037673469387755114,0.001,0.004000000000000001,0.5547856053046565,1997,1603,0,,BLACK,,,0,,BLACK,True,CORRECT,0.7356897999998182,735.6897999998182
7,20260325_141148,J,D,True,CALIBRATION,1,122,122,staircase,,,0.02775690567844427,0.03667346938775511,0.001,0.004000000000000001,0.5277569056784442,1900,1700,0,,BLACK,,,0,,BLACK,True,CORRECT,0.7351544999983162,735.1544999983162
7,20260325_141148,J,D,True,CALIBRATION,1,123,123,staircase,,,0.03752503910084078,0.03567346938775511,0.001,0.004000000000000001,0.5375250391008408,1935,1665,0,,BLACK,,,0,,BLACK,True,CORRECT,0.8220606000013504,822.0606000013504
7,20260325_141148,J,D,True,CALIBRATION,1,124,124,staircase,,,0.030497103833702476,0.03467346938775511,0.001,0.004000000000000001,0.5304971038337025,1910,1690,0,,BLACK,,,0,,BLACK,True,CORRECT,0.6524736000010307,652.4736000010307
7,20260325_141148,J,D,True,CALIBRATION,1,125,125,staircase,,,0.034537583266895065,0.03367346938775511,0.001,0.004000000000000001,0.46546241673310496,1676,1924,0,,WHITE,,,0,,WHITE,True,CORRECT,0.841848599999139,841.848599999139
7,20260325_141148,J,D,True,CALIBRATION,1,126,126,staircase,,,0.0227404128881794,0.03267346938775511,0.001,0.004000000000000001,0.4772595871118206,1718,1882,0,,WHITE,,,0,,WHITE,True,CORRECT,0.5841254999995726,584.1254999995726
7,20260325_141148,J,D,True,CALIBRATION,1,127,127,staircase,,,0.03250900585995302,0.03167346938775511,0.001,0.004000000000000001,0.46749099414004697,1683,1917,0,,WHITE,,,0,,WHITE,True,CORRECT,0.46146649999900546,461.46649999900546
7,20260325_141148,J,D,True,CALIBRATION,1,128,128,staircase,,,0.02105108478663239,0.030673469387755108,0.001,0.004000000000000001,0.47894891521336763,1724,1876,0,,WHITE,,,0,,WHITE,True,CORRECT,0.5917609999996785,591.7609999996785
7,20260325_141148,J,D,True,CALIBRATION,1,129,129,staircase,,,0.026594080048529367,0.03467346938775511,0.001,0.004000000000000001,0.47340591995147063,1704,1896,0,,WHITE,,,0,,BLACK,False,INCORRECT,0.46675280000090424,466.75280000090424
7,20260325_141148,J,D,True,CALIBRATION,1,130,130,staircase,,,0.03284575381900673,0.03367346938775511,0.001,0.004000000000000001,0.5328457538190068,1918,1682,0,,BLACK,,,0,,BLACK,True,CORRECT,0.7842743999990489,784.2743999990489
7,20260325_141148,J,D,True,CALIBRATION,1,131,131,staircase,,,0.03163484664986788,0.03267346938775511,0.001,0.004000000000000001,0.5316348466498679,1914,1686,0,,BLACK,,,0,,BLACK,True,CORRECT,0.7046344000009412,704.6344000009412
7,20260325_141148,J,D,True,CALIBRATION,1,132,132,staircase,,,0.04109819559841931,0.03167346938775511,0.001,0.004000000000000001,0.4589018044015807,1652,1948,0,,WHITE,,,0,,WHITE,True,CORRECT,0.6845182999986719,684.5182999986719
7,20260325_141148,J,D,True,CALIBRATION,1,133,133,staircase,,,0.03611973623794722,0.030673469387755108,0.001,0.004000000000000001,0.5361197362379472,1930,1670,0,,BLACK,,,0,,BLACK,True,CORRECT,0.6064208999996481,606.4208999996481
7,20260325_141148,J,D,True,CALIBRATION,1,134,134,staircase,,,0.027081764461073014,0.029673469387755107,0.001,0.004000000000000001,0.527081764461073,1897,1703,0,,BLACK,,,0,,BLACK,True,CORRECT,1.2671567000015784,1267.1567000015784
7,20260325_141148,J,D,True,CALIBRATION,1,135,135,staircase,,,0.015040671060726117,0.028673469387755106,0.001,0.004000000000000001,0.5150406710607262,1854,1746,0,,BLACK,,,0,,BLACK,True,CORRECT,1.6483104000017192,1648.3104000017192
7,20260325_141148,J,D,True,CALIBRATION,1,136,136,staircase,,,0.02537539777779398,0.03267346938775511,0.001,0.004000000000000001,0.525375397777794,1891,1709,0,,BLACK,,,0,,WHITE,False,INCORRECT,0.771358699999837,771.358699999837
7,20260325_141148,J,D,True,CALIBRATION,1,137,137,staircase,,,0.03219375096426258,0.03167346938775511,0.001,0.004000000000000001,0.4678062490357374,1684,1916,0,,WHITE,,,0,,WHITE,True,CORRECT,0.8060077999998612,806.0077999998612
7,20260325_141148,J,D,True,CALIBRATION,1,138,138,staircase,,,0.032309947255531574,0.03567346938775511,0.001,0.004000000000000001,0.4676900527444684,1684,1916,0,,WHITE,,,0,,BLACK,False,INCORRECT,0.7134446000000025,713.4446000000025
7,20260325_141148,J,D,True,CALIBRATION,1,139,139,staircase,,,0.04184983795368174,0.03467346938775511,0.001,0.004000000000000001,0.5418498379536817,1951,1649,0,,BLACK,,,0,,BLACK,True,CORRECT,0.6909797999996954,690.9797999996954
7,20260325_141148,J,D,True,CALIBRATION,1,140,140,staircase,,,0.03648499422375405,0.03367346938775511,0.001,0.004000000000000001,0.46351500577624594,1669,1931,0,,WHITE,,,0,,WHITE,True,CORRECT,1.4895369000005303,1489.5369000005303
7,20260325_141148,J,D,True,CALIBRATION,1,141,141,staircase,,,0.045438672590725246,0.03267346938775511,0.001,0.004000000000000001,0.5454386725907252,1964,1636,0,,BLACK,,,0,,BLACK,True,CORRECT,1.2801785999999993,1280.1785999999993
7,20260325_141148,J,D,True,CALIBRATION,1,142,142,staircase,,,0.016510320563743935,0.03667346938775511,0.001,0.004000000000000001,0.5165103205637439,1859,1741,0,,BLACK,,,0,,WHITE,False,INCORRECT,1.7267565000001923,1726.7565000001923
7,20260325_141148,J,D,True,CALIBRATION,1,143,143,staircase,,,0.03379820218752466,0.03567346938775511,0.001,0.004000000000000001,0.5337982021875247,1922,1678,0,,BLACK,,,0,,BLACK,True,CORRECT,1.4278923999991093,1427.8923999991093
7,20260325_141148,J,D,True,CALIBRATION,1,144,144,staircase,,,0.03532239548610159,0.03467346938775511,0.001,0.004000000000000001,0.5353223954861016,1927,1673,0,,BLACK,,,0,,BLACK,True,CORRECT,0.6632571999998618,663.2571999998618
7,20260325_141148,J,D,True,CALIBRATION,1,145,145,staircase,,,0.03629649946989873,0.03367346938775511,0.001,0.004000000000000001,0.5362964994698988,1931,1669,0,,BLACK,,,0,,BLACK,True,CORRECT,0.5530273999993369,553.0273999993369
7,20260325_141148,J,D,True,CALIBRATION,1,146,146,staircase,,,0.032889586749238274,0.037673469387755114,0.001,0.004000000000000001,0.46711041325076175,1682,1918,0,,WHITE,,,0,,BLACK,False,INCORRECT,0.5885304999992513,588.5304999992513
7,20260325_141148,J,D,True,CALIBRATION,1,147,147,staircase,,,0.03827176599918649,0.03667346938775511,0.001,0.004000000000000001,0.5382717659991865,1938,1662,0,,BLACK,,,0,,BLACK,True,CORRECT,1.210975199999666,1210.975199999666
7,20260325_141148,J,D,True,CALIBRATION,1,148,148,staircase,,,0.046419757219899105,0.03567346938775511,0.001,0.004000000000000001,0.4535802427801009,1633,1967,0,,WHITE,,,0,,WHITE,True,CORRECT,1.1162858000006963,1116.2858000006963
7,20260325_141148,J,D,True,CALIBRATION,1,149,149,staircase,,,0.038900544451710095,0.03467346938775511,0.001,0.004000000000000001,0.5389005444517101,1940,1660,0,,BLACK,,,0,,BLACK,True,CORRECT,0.6207035000006726,620.7035000006726
7,20260325_141148,J,D,True,CALIBRATION,1,150,150,staircase,,,0.03369506683821136,0.03367346938775511,0.001,0.004000000000000001,0.46630493316178867,1679,1921,0,,WHITE,,,0,,WHITE,True,CORRECT,1.073361799999475,1073.361799999475
7,20260325_141148,J,D,True,CALIBRATION,1,151,151,staircase,,,0.011476986815619566,0.03267346938775511,0.001,0.004000000000000001,0.4885230131843804,1759,1841,0,,WHITE,,,0,,WHITE,True,CORRECT,0.8176801999998133,817.6801999998133
7,20260325_141148,J,D,True,CALIBRATION,1,152,152,staircase,,,0.01056496534528411,0.03167346938775511,0.001,0.004000000000000001,0.4894350346547159,1762,1838,0,,WHITE,,,0,,WHITE,True,CORRECT,0.7161114000009547,716.1114000009547
7,20260325_141148,J,D,True,CALIBRATION,1,153,153,staircase,,,0.0161396440313804,0.03567346938775511,0.001,0.004000000000000001,0.5161396440313804,1858,1742,0,,BLACK,,,0,,WHITE,False,INCORRECT,0.7317258000002766,731.7258000002766
7,20260325_141148,J,D,True,CALIBRATION,1,154,154,staircase,,,0.04215012944652512,0.03467346938775511,0.001,0.004000000000000001,0.45784987055347487,1648,1952,0,,WHITE,,,0,,WHITE,True,CORRECT,2.173117000000275,2173.117000000275
7,20260325_141148,J,D,True,CALIBRATION,1,155,155,staircase,,,0.022542531024966554,0.038673469387755115,0.001,0.004000000000000001,0.47745746897503344,1719,1881,0,,WHITE,,,0,,BLACK,False,INCORRECT,1.9681287999992492,1968.1287999992492
7,20260325_141148,J,D,True,CALIBRATION,1,156,156,staircase,,,0.05030136419350722,0.037673469387755114,0.001,0.004000000000000001,0.4496986358064928,1619,1981,0,,WHITE,,,0,,WHITE,True,CORRECT,0.7312722999995458,731.2722999995458
7,20260325_141148,J,D,True,CALIBRATION,1,157,157,staircase,,,0.042363285177863336,0.03667346938775511,0.001,0.004000000000000001,0.45763671482213664,1647,1953,0,,WHITE,,,0,,WHITE,True,CORRECT,1.2947084000006726,1294.7084000006726
7,20260325_141148,J,D,True,CALIBRATION,1,158,158,staircase,,,0.031926235685678206,0.03567346938775511,0.001,0.004000000000000001,0.5319262356856782,1915,1685,0,,BLACK,,,0,,BLACK,True,CORRECT,0.6142420999985916,614.2420999985916
7,20260325_141148,J,D,True,CALIBRATION,1,159,159,staircase,,,0.04078440260305636,0.03467346938775511,0.001,0.004000000000000001,0.5407844026030564,1947,1653,0,,BLACK,,,0,,BLACK,True,CORRECT,1.2012144999989687,1201.2144999989687
7,20260325_141148,J,D,True,CALIBRATION,1,160,160,staircase,,,0.019285665875629507,0.03367346938775511,0.001,0.004000000000000001,0.4807143341243705,1731,1869,0,,WHITE,,,0,,WHITE,True,CORRECT,0.6366178999996919,636.6178999996919
7,20260325_141148,J,D,True,CALIBRATION,1,161,161,staircase,,,0.033941116957769774,0.03267346938775511,0.001,0.004000000000000001,0.5339411169577698,1922,1678,0,,BLACK,,,0,,BLACK,True,CORRECT,1.3049785000002885,1304.9785000002885
7,20260325_141148,J,D,True,CALIBRATION,1,162,162,staircase,,,0.035301966810885994,0.03167346938775511,0.001,0.004000000000000001,0.464698033189114,1673,1927,0,,WHITE,,,0,,WHITE,True,CORRECT,0.7523282000001927,752.3282000001927
7,20260325_141148,J,D,True,CALIBRATION,1,163,163,staircase,,,0.017984430808816954,0.030673469387755108,0.001,0.004000000000000001,0.48201556919118305,1735,1865,0,,WHITE,,,0,,WHITE,True,CORRECT,0.8413905000015802,841.3905000015802
7,20260325_141148,J,D,True,CALIBRATION,1,164,164,staircase,,,0.03817089291908601,0.029673469387755107,0.001,0.004000000000000001,0.461829107080914,1663,1937,0,,WHITE,,,0,,WHITE,True,CORRECT,0.6752741999989667,675.2741999989667
7,20260325_141148,J,D,True,CALIBRATION,1,165,165,staircase,,,0.017790970840279363,0.028673469387755106,0.001,0.004000000000000001,0.5177909708402794,1864,1736,0,,BLACK,,,0,,BLACK,True,CORRECT,1.1397600999989663,1139.7600999989663
7,20260325_141148,J,D,True,CALIBRATION,1,166,166,staircase,,,0.03154738257637557,0.027673469387755105,0.001,0.004000000000000001,0.5315473825763756,1914,1686,0,,BLACK,,,0,,BLACK,True,CORRECT,0.6216808000008314,621.6808000008314
7,20260325_141148,J,D,True,CALIBRATION,1,167,167,staircase,,,0.02377829370689949,0.026673469387755104,0.001,0.004000000000000001,0.4762217062931005,1714,1886,0,,WHITE,,,0,,WHITE,True,CORRECT,0.7877931000002718,787.7931000002718
7,20260325_141148,J,D,True,CALIBRATION,1,168,168,staircase,,,0.02373013084091815,0.025673469387755103,0.001,0.004000000000000001,0.5237301308409181,1885,1715,0,,BLACK,,,0,,BLACK,True,CORRECT,0.643867799999498,643.867799999498
7,20260325_141148,J,D,True,CALIBRATION,1,169,169,staircase,,,0.01693534115445658,0.029673469387755103,0.001,0.004000000000000001,0.4830646588455434,1739,1861,0,,WHITE,,,0,,BLACK,False,INCORRECT,1.7903133999989223,1790.3133999989223
7,20260325_141148,J,D,True,CALIBRATION,1,170,170,staircase,,,0.04737249942651893,0.028673469387755102,0.001,0.004000000000000001,0.45262750057348106,1629,1971,0,,WHITE,,,0,,WHITE,True,CORRECT,1.3441841999992903,1344.1841999992903
7,20260325_141148,J,D,True,CALIBRATION,1,171,171,staircase,,,0.03616074847216174,0.0276734693877551,0.001,0.004000000000000001,0.5361607484721618,1930,1670,0,,BLACK,,,0,,BLACK,True,CORRECT,0.6300430999999662,630.0430999999662
7,20260325_141148,J,D,True,CALIBRATION,1,172,172,staircase,,,0.0027607576267408805,0.0266734693877551,0.001,0.004000000000000001,0.4972392423732591,1790,1810,0,,WHITE,,,0,,WHITE,True,CORRECT,0.6454524000000674,645.4524000000674
7,20260325_141148,J,D,True,CALIBRATION,1,173,173,staircase,,,0.024749335140489104,0.0256734693877551,0.001,0.004000000000000001,0.524749335140489,1889,1711,0,,BLACK,,,0,,BLACK,True,CORRECT,0.6752137000003131,675.2137000003131
7,20260325_141148,J,D,True,CALIBRATION,1,174,174,staircase,,,0.023682602586681627,0.0246734693877551,0.001,0.004000000000000001,0.47631739741331836,1715,1885,0,,WHITE,,,0,,WHITE,True,CORRECT,0.8736110999998346,873.6110999998346
7,20260325_141148,J,D,True,CALIBRATION,1,175,175,staircase,,,0.05160862913026338,0.023673469387755098,0.001,0.004000000000000001,0.5516086291302634,1986,1614,0,,BLACK,,,0,,BLACK,True,CORRECT,0.6373647000000346,637.3647000000346
7,20260325_141148,J,D,True,CALIBRATION,1,176,176,staircase,,,0.011011055554761704,0.022673469387755097,0.001,0.004000000000000001,0.5110110555547617,1840,1760,0,,BLACK,,,0,,BLACK,True,CORRECT,0.5447511000002123,544.7511000002123
7,20260325_141148,J,D,True,CALIBRATION,1,177,177,staircase,,,0.028181297882259242,0.021673469387755096,0.001,0.004000000000000001,0.5281812978822592,1901,1699,0,,BLACK,,,0,,BLACK,True,CORRECT,0.5733911999996053,573.3911999996053
7,20260325_141148,J,D,True,CALIBRATION,1,178,178,staircase,,,0.03766600415349272,0.025673469387755096,0.001,0.004000000000000001,0.46233399584650725,1664,1936,0,,WHITE,,,0,,BLACK,False,INCORRECT,0.46920070000123815,469.20070000123815
7,20260325_141148,J,D,True,CALIBRATION,1,179,179,staircase,,,0.03072749346060424,0.029673469387755096,0.001,0.004000000000000001,0.5307274934606042,1911,1689,0,,BLACK,,,0,,WHITE,False,INCORRECT,0.7344639000002644,734.4639000002644
7,20260325_141148,J,D,True,CALIBRATION,1,180,180,staircase,,,0.0339367766897211,0.028673469387755095,0.001,0.004000000000000001,0.5339367766897211,1922,1678,0,,BLACK,,,0,,BLACK,True,CORRECT,0.7283473999996204,728.3473999996204
7,20260325_141148,J,D,True,CALIBRATION,1,181,181,staircase,,,0.02213328149098998,0.027673469387755095,0.001,0.004000000000000001,0.47786671850901,1720,1880,0,,WHITE,,,0,,WHITE,True,CORRECT,0.9343900000003487,934.3900000003487
7,20260325_141148,J,D,True,CALIBRATION,1,182,182,staircase,,,0.02986285156221247,0.026673469387755094,0.001,0.004000000000000001,0.5298628515622125,1908,1692,0,,BLACK,,,0,,BLACK,True,CORRECT,0.6410006000005524,641.0006000005524
7,20260325_141148,J,D,True,CALIBRATION,1,183,183,staircase,,,0.016981843979661453,0.025673469387755093,0.001,0.004000000000000001,0.5169818439796614,1861,1739,0,,BLACK,,,0,,BLACK,True,CORRECT,0.7204589000011765,720.4589000011765
7,20260325_141148,J,D,True,CALIBRATION,1,184,184,staircase,,,0.025152659811676248,0.024673469387755092,0.001,0.004000000000000001,0.47484734018832375,1709,1891,0,,WHITE,,,0,,WHITE,True,CORRECT,1.2909913999992568,1290.9913999992568
7,20260325_141148,J,D,True,CALIBRATION,1,185,185,staircase,,,0.01995765584571078,0.028673469387755092,0.001,0.004000000000000001,0.4800423441542892,1728,1872,0,,WHITE,,,0,,BLACK,False,INCORRECT,0.6683552000013151,668.3552000013151
7,20260325_141148,J,D,True,CALIBRATION,1,186,186,staircase,,,0.03152180248026257,0.02767346938775509,0.001,0.004000000000000001,0.4684781975197374,1687,1913,0,,WHITE,,,0,,WHITE,True,CORRECT,1.5348786000013206,1534.8786000013206
7,20260325_141148,J,D,True,CALIBRATION,1,187,187,staircase,,,0.016215949955663615,0.02667346938775509,0.001,0.004000000000000001,0.5162159499556637,1858,1742,0,,BLACK,,,0,,BLACK,True,CORRECT,0.7805565999988175,780.5565999988175
7,20260325_141148,J,D,True,CALIBRATION,1,188,188,staircase,,,0.015512645927699777,0.02567346938775509,0.001,0.004000000000000001,0.4844873540723002,1744,1856,0,,WHITE,,,0,,WHITE,True,CORRECT,0.8624135000009119,862.4135000009119
7,20260325_141148,J,D,True,CALIBRATION,1,189,189,staircase,,,0.026081969753897264,0.02467346938775509,0.001,0.004000000000000001,0.5260819697538973,1894,1706,0,,BLACK,,,0,,BLACK,True,CORRECT,0.6804216000000451,680.4216000000451
7,20260325_141148,J,D,True,CALIBRATION,1,190,190,staircase,,,0.02310996873326713,0.023673469387755088,0.001,0.004000000000000001,0.5231099687332671,1883,1717,0,,BLACK,,,0,,BLACK,True,CORRECT,0.6871499999997468,687.1499999997468
7,20260325_141148,J,D,True,CALIBRATION,1,191,191,staircase,,,0.0237532796143479,0.022673469387755087,0.001,0.004000000000000001,0.4762467203856521,1714,1886,0,,WHITE,,,0,,WHITE,True,CORRECT,0.6341281000004528,634.1281000004528
7,20260325_141148,J,D,True,CALIBRATION,1,192,192,staircase,,,0.031194338468941346,0.026673469387755087,0.001,0.004000000000000001,0.4688056615310586,1688,1912,0,,WHITE,,,0,,BLACK,False,INCORRECT,1.2486171000000468,1248.6171000000468
7,20260325_141148,J,D,True,CALIBRATION,1,193,193,staircase,,,0.023362523604719805,0.025673469387755086,0.001,0.004000000000000001,0.5233625236047198,1884,1716,0,,BLACK,,,0,,BLACK,True,CORRECT,0.938556700000845,938.556700000845
7,20260325_141148,J,D,True,CALIBRATION,1,194,194,staircase,,,0.029418252506725324,0.024673469387755085,0.001,0.004000000000000001,0.4705817474932747,1694,1906,0,,WHITE,,,0,,WHITE,True,CORRECT,0.7371870000006311,737.1870000006311
7,20260325_141148,J,D,True,CALIBRATION,1,195,195,staircase,,,0.02530838639718708,0.023673469387755084,0.001,0.004000000000000001,0.4746916136028129,1709,1891,0,,WHITE,,,0,,WHITE,True,CORRECT,2.11244810000062,2112.44810000062
7,20260325_141148,J,D,True,CALIBRATION,1,196,196,staircase,,,0.03849561668943993,0.022673469387755083,0.001,0.004000000000000001,0.4615043833105601,1661,1939,0,,WHITE,,,0,,WHITE,True,CORRECT,0.867040299999644,867.040299999644
7,20260325_141148,J,D,True,CALIBRATION,1,197,197,staircase,,,0.011085357759823186,0.026673469387755083,0.001,0.004000000000000001,0.48891464224017683,1760,1840,0,,WHITE,,,0,,BLACK,False,INCORRECT,0.703148800001145,703.148800001145
7,20260325_141148,J,D,True,CALIBRATION,1,198,198,staircase,,,0.037761604040717614,0.030673469387755083,0.001,0.004000000000000001,0.4622383959592824,1664,1936,0,,WHITE,,,0,,BLACK,False,INCORRECT,2.7079665000001114,2707.9665000001114
7,20260325_141148,J,D,True,CALIBRATION,1,199,199,staircase,,,0.029036215580561124,0.029673469387755082,0.001,0.004000000000000001,0.47096378441943887,1695,1905,0,,WHITE,,,0,,WHITE,True,CORRECT,0.8127764000000752,812.7764000000752
7,20260325_141148,J,D,True,CALIBRATION,1,200,200,staircase,,,0.02964424171385162,0.02867346938775508,0.001,0.004000000000000001,0.4703557582861484,1693,1907,0,,WHITE,,,0,,WHITE,True,CORRECT,1.082668700000795,1082.668700000795
7,20260325_141148,J,D,True,CALIBRATION,1,201,201,staircase,,,0.025525075593196986,0.02767346938775508,0.001,0.004000000000000001,0.5255250755931969,1892,1708,0,,BLACK,,,0,,BLACK,True,CORRECT,0.96308130000034,963.08130000034
7,20260325_141148,J,D,True,CALIBRATION,1,202,202,staircase,,,0.02443629123364658,0.03167346938775508,0.001,0.004000000000000001,0.4755637087663534,1712,1888,0,,WHITE,,,0,,BLACK,False,INCORRECT,0.8153762999991159,815.3762999991159
7,20260325_141148,J,D,True,CALIBRATION,1,203,203,staircase,,,0.029876467582573066,0.03067346938775508,0.001,0.004000000000000001,0.5298764675825731,1908,1692,0,,BLACK,,,0,,BLACK,True,CORRECT,3.0670997999986866,3067.0997999986866
7,20260325_141148,J,D,True,CALIBRATION,1,204,204,staircase,,,0.04203201247000532,0.02967346938775508,0.001,0.004000000000000001,0.5420320124700053,1951,1649,0,,BLACK,,,0,,BLACK,True,CORRECT,3.372164200000043,3372.164200000043
7,20260325_141148,J,D,True,CALIBRATION,1,205,205,staircase,,,0.02320733278166681,0.028673469387755078,0.001,0.004000000000000001,0.4767926672183332,1716,1884,0,,WHITE,,,0,,WHITE,True,CORRECT,0.7605225999996037,760.5225999996037
7,20260325_141148,J,D,True,CALIBRATION,1,206,206,staircase,,,0.038006738952170445,0.03267346938775508,0.001,0.004000000000000001,0.5380067389521704,1937,1663,0,,BLACK,,,0,,WHITE,False,INCORRECT,1.0796745999996347,1079.6745999996347
7,20260325_141148,J,D,True,CALIBRATION,1,207,207,staircase,,,0.03916190396313755,0.03167346938775508,0.001,0.004000000000000001,0.46083809603686243,1659,1941,0,,WHITE,,,0,,WHITE,True,CORRECT,0.689489100001083,689.489100001083
7,20260325_141148,J,D,True,CALIBRATION,1,208,208,staircase,,,0.050995209265548555,0.03067346938775508,0.001,0.004000000000000001,0.44900479073445143,1616,1984,0,,WHITE,,,0,,WHITE,True,CORRECT,0.8546161000012944,854.6161000012944
7,20260325_141148,J,D,True,CALIBRATION,1,209,209,staircase,,,0.030204332702478853,0.03467346938775508,0.001,0.004000000000000001,0.5302043327024788,1909,1691,0,,BLACK,,,0,,WHITE,False,INCORRECT,0.860568100000819,860.568100000819
7,20260325_141148,J,D,True,CALIBRATION,1,210,210,staircase,,,0.023231799902432876,0.03867346938775509,0.001,0.004000000000000001,0.47676820009756715,1716,1884,0,,WHITE,,,0,,BLACK,False,INCORRECT,2.654409200000373,2654.409200000373
7,20260325_141148,J,D,True,CALIBRATION,1,211,211,staircase,,,0.027703055665688495,0.04267346938775509,0.001,0.004000000000000001,0.5277030556656885,1900,1700,0,,BLACK,,,0,,WHITE,False,INCORRECT,1.2637123999993491,1263.7123999993491
7,20260325_141148,J,D,True,CALIBRATION,1,212,212,staircase,,,0.05909194029244995,0.04167346938775509,0.001,0.004000000000000001,0.5590919402924499,2013,1587,0,,BLACK,,,0,,BLACK,True,CORRECT,0.9039075000000594,903.9075000000594
7,20260325_141148,J,D,True,CALIBRATION,1,213,213,staircase,,,0.06348183910519382,0.04567346938775509,0.001,0.004000000000000001,0.5634818391051938,2029,1571,0,,BLACK,,,0,,WHITE,False,INCORRECT,1.1775940000006813,1177.5940000006813
7,20260325_141148,J,D,True,CALIBRATION,1,214,214,staircase,,,0.04217269536314358,0.04467346938775509,0.001,0.004000000000000001,0.4578273046368564,1648,1952,0,,WHITE,,,0,,WHITE,True,CORRECT,0.9195123999998032,919.5123999998032
7,20260325_141148,J,D,True,CALIBRATION,1,215,215,staircase,,,0.032652411196964444,0.04367346938775509,0.001,0.004000000000000001,0.46734758880303556,1682,1918,0,,WHITE,,,0,,WHITE,True,CORRECT,2.8325467000013305,2832.5467000013305
7,20260325_141148,J,D,True,CALIBRATION,1,216,216,staircase,,,0.04932846022388016,0.04267346938775509,0.001,0.004000000000000001,0.45067153977611984,1622,1978,0,,WHITE,,,0,,WHITE,True,CORRECT,1.329394600001251,1329.394600001251
7,20260325_141148,J,D,True,CALIBRATION,1,217,217,staircase,,,0.04561474687359344,0.04167346938775509,0.001,0.004000000000000001,0.5456147468735935,1964,1636,0,,BLACK,,,0,,BLACK,True,CORRECT,0.7402046999995946,740.2046999995946
7,20260325_141148,J,D,True,CALIBRATION,1,218,218,staircase,,,0.03907457602670819,0.04567346938775509,0.001,0.004000000000000001,0.5390745760267082,1941,1659,0,,BLACK,,,0,,WHITE,False,INCORRECT,1.6218099999987317,1621.8099999987317
7,20260325_141148,J,D,True,CALIBRATION,1,219,219,staircase,,,0.0405726769823303,0.04467346938775509,0.001,0.004000000000000001,0.4594273230176697,1654,1946,0,,WHITE,,,0,,WHITE,True,CORRECT,2.6514370999993844,2651.4370999993844
7,20260325_141148,J,D,True,CALIBRATION,1,220,220,staircase,,,0.05616876452543087,0.048673469387755096,0.001,0.004000000000000001,0.44383123547456915,1598,2002,0,,WHITE,,,0,,BLACK,False,INCORRECT,1.9213252000008652,1921.3252000008652
7,20260325_141148,J,D,True,CALIBRATION,1,221,221,staircase,,,0.054447339297464536,0.047673469387755095,0.001,0.004000000000000001,0.5544473392974645,1996,1604,0,,BLACK,,,0,,BLACK,True,CORRECT,1.2700205000001006,1270.0205000001006
7,20260325_141148,J,D,True,CALIBRATION,1,222,222,staircase,,,0.06657837940884176,0.046673469387755094,0.001,0.004000000000000001,0.43342162059115824,1560,2040,0,,WHITE,,,0,,WHITE,True,CORRECT,0.7707876000004035,770.7876000004035
7,20260325_141148,J,D,True,CALIBRATION,1,223,223,staircase,,,0.04716724126058421,0.04567346938775509,0.001,0.004000000000000001,0.4528327587394158,1630,1970,0,,WHITE,,,0,,WHITE,True,CORRECT,1.3394867000006343,1339.4867000006343
7,20260325_141148,J,D,True,CALIBRATION,1,224,224,staircase,,,0.056572665171070215,0.04467346938775509,0.001,0.004000000000000001,0.44342733482892976,1596,2004,0,,WHITE,,,0,,WHITE,True,CORRECT,1.0924470999998448,1092.4470999998448
7,20260325_141148,J,D,True,CALIBRATION,1,225,225,staircase,,,0.054910264162978194,0.04367346938775509,0.001,0.004000000000000001,0.5549102641629782,1998,1602,0,,BLACK,,,0,,BLACK,True,CORRECT,1.006411799999114,1006.411799999114
7,20260325_141148,J,D,True,CALIBRATION,1,226,226,staircase,,,0.04290067649681531,0.04267346938775509,0.001,0.004000000000000001,0.5429006764968153,1954,1646,0,,BLACK,,,0,,BLACK,True,CORRECT,1.1003170000003593,1100.3170000003593
7,20260325_141148,J,D,True,CALIBRATION,1,227,227,staircase,,,0.04766108518335125,0.046673469387755094,0.001,0.004000000000000001,0.45233891481664873,1628,1972,0,,WHITE,,,0,,BLACK,False,INCORRECT,1.0680222999999387,1068.0222999999387
7,20260325_141148,J,D,True,CALIBRATION,1,228,228,staircase,,,0.05646261846438018,0.04567346938775509,0.001,0.004000000000000001,0.44353738153561983,1597,2003,0,,WHITE,,,0,,WHITE,True,CORRECT,3.280528899998899,3280.528899998899
7,20260325_141148,J,D,True,CALIBRATION,1,229,229,staircase,,,0.046452171282197106,0.04467346938775509,0.001,0.004000000000000001,0.5464521712821971,1967,1633,0,,BLACK,,,0,,BLACK,True,CORRECT,0.7013395999983913,701.3395999983913
7,20260325_141148,J,D,True,CALIBRATION,1,230,230,staircase,,,0.046866548105212215,0.04367346938775509,0.001,0.004000000000000001,0.45313345189478776,1631,1969,0,,WHITE,,,0,,WHITE,True,CORRECT,1.8426724000000831,1842.6724000000831
7,20260325_141148,J,D,True,CALIBRATION,1,231,231,staircase,,,0.025775894250363966,0.04267346938775509,0.001,0.004000000000000001,0.525775894250364,1893,1707,0,,BLACK,,,0,,BLACK,True,CORRECT,0.6343923999993422,634.3923999993422
7,20260325_141148,J,D,True,CALIBRATION,1,232,232,staircase,,,0.03747149335303847,0.046673469387755094,0.001,0.004000000000000001,0.46252850664696155,1665,1935,0,,WHITE,,,0,,BLACK,False,INCORRECT,2.59410939999907,2594.10939999907
7,20260325_141148,J,D,True,CALIBRATION,1,233,233,staircase,,,0.02505477632165986,0.04567346938775509,0.001,0.004000000000000001,0.5250547763216599,1890,1710,0,,BLACK,,,0,,BLACK,True,CORRECT,5.833357499999693,5833.357499999693
7,20260325_141148,J,D,True,CALIBRATION,1,234,234,staircase,,,0.041549543997551966,0.04467346938775509,0.001,0.004000000000000001,0.541549543997552,1950,1650,0,,BLACK,,,0,,BLACK,True,CORRECT,0.7193698999999469,719.3698999999469
7,20260325_141148,J,D,True,CALIBRATION,1,235,235,staircase,,,0.049606496460874,0.048673469387755096,0.001,0.004000000000000001,0.450393503539126,1621,1979,0,,WHITE,,,0,,BLACK,False,INCORRECT,1.1230101000001014,1123.0101000001014
7,20260325_141148,J,D,True,CALIBRATION,1,236,236,staircase,,,0.04221232450207725,0.047673469387755095,0.001,0.004000000000000001,0.5422123245020772,1952,1648,0,,BLACK,,,0,,BLACK,True,CORRECT,0.7221539999991364,722.1539999991364
7,20260325_141148,J,D,True,CALIBRATION,1,237,237,staircase,,,0.06478162391856931,0.046673469387755094,0.001,0.004000000000000001,0.5647816239185693,2033,1567,0,,BLACK,,,0,,BLACK,True,CORRECT,0.5913970999990852,591.3970999990852
7,20260325_141148,J,D,True,CALIBRATION,1,238,238,staircase,,,0.04793960752658442,0.04567346938775509,0.001,0.004000000000000001,0.5479396075265844,1973,1627,0,,BLACK,,,0,,BLACK,True,CORRECT,0.603055099998528,603.055099998528
7,20260325_141148,J,D,True,CALIBRATION,1,239,239,staircase,,,0.020627549258554076,0.04467346938775509,0.001,0.004000000000000001,0.520627549258554,1874,1726,0,,BLACK,,,0,,BLACK,True,CORRECT,0.599664200000916,599.664200000916
7,20260325_141148,J,D,True,CALIBRATION,1,240,240,staircase,,,0.05247092054976775,0.04367346938775509,0.001,0.004000000000000001,0.5524709205497678,1989,1611,0,,BLACK,,,0,,BLACK,True,CORRECT,0.6239781000003859,623.9781000003859
7,20260325_141148,J,D,True,CALIBRATION,1,241,241,staircase,,,0.03281999145980909,0.04267346938775509,0.001,0.004000000000000001,0.4671800085401909,1682,1918,0,,WHITE,,,0,,WHITE,True,CORRECT,0.5024646000001667,502.4646000001667
7,20260325_141148,J,D,True,CALIBRATION,1,242,242,staircase,,,0.05017076172761224,0.04167346938775509,0.001,0.004000000000000001,0.5501707617276123,1981,1619,0,,BLACK,,,0,,BLACK,True,CORRECT,0.5261838999995234,526.1838999995234
7,20260325_141148,J,D,True,CALIBRATION,1,243,243,staircase,,,0.05121440968378251,0.04067346938775509,0.001,0.004000000000000001,0.5512144096837825,1984,1616,0,,BLACK,,,0,,BLACK,True,CORRECT,0.5447765000008076,544.7765000008076
7,20260325_141148,J,D,True,CALIBRATION,1,244,244,staircase,,,0.05187488719413129,0.03967346938775509,0.001,0.004000000000000001,0.4481251128058687,1613,1987,0,,WHITE,,,0,,WHITE,True,CORRECT,1.012240699999893,1012.240699999893
7,20260325_141148,J,D,True,CALIBRATION,1,245,245,staircase,,,0.025125289883407103,0.03867346938775509,0.001,0.004000000000000001,0.5251252898834071,1890,1710,0,,BLACK,,,0,,BLACK,True,CORRECT,0.6215261999986978,621.5261999986978
7,20260325_141148,J,D,True,CALIBRATION,1,246,246,staircase,,,0.05060317238818328,0.037673469387755086,0.001,0.004000000000000001,0.4493968276118167,1618,1982,0,,WHITE,,,0,,WHITE,True,CORRECT,0.6561150999987149,656.1150999987149
7,20260325_141148,J,D,True,CALIBRATION,1,247,247,staircase,,,0.024622929236635303,0.036673469387755085,0.001,0.004000000000000001,0.5246229292366353,1889,1711,0,,BLACK,,,0,,BLACK,True,CORRECT,0.5704198999992514,570.4198999992514
7,20260325_141148,J,D,True,CALIBRATION,1,248,248,staircase,,,0.043874550849041294,0.035673469387755084,0.001,0.004000000000000001,0.5438745508490412,1958,1642,0,,BLACK,,,0,,BLACK,True,CORRECT,0.8945358999990276,894.5358999990276
7,20260325_141148,J,D,True,CALIBRATION,1,249,249,staircase,,,0.02753790740819546,0.03467346938775508,0.001,0.004000000000000001,0.5275379074081955,1899,1701,0,,BLACK,,,0,,BLACK,True,CORRECT,0.6889453000003414,688.9453000003414
7,20260325_141148,J,D,True,CALIBRATION,1,250,250,staircase,,,0.035453125828720684,0.03367346938775508,0.001,0.004000000000000001,0.4645468741712793,1672,1928,0,,WHITE,,,0,,WHITE,True,CORRECT,1.0270161999997072,1027.0161999997072
7,20260325_141148,J,D,True,CALIBRATION,1,251,251,staircase,,,0.04255733530313169,0.03267346938775508,0.001,0.004000000000000001,0.5425573353031317,1953,1647,0,,BLACK,,,0,,BLACK,True,CORRECT,0.6856788000004599,685.6788000004599
7,20260325_141148,J,D,True,CALIBRATION,1,252,252,staircase,,,0.01462399330076243,0.03167346938775508,0.001,0.004000000000000001,0.5146239933007625,1853,1747,0,,BLACK,,,0,,BLACK,True,CORRECT,0.6294343999998091,629.4343999998091
7,20260325_141148,J,D,True,CALIBRATION,1,253,253,staircase,,,0.042665071052709946,0.03067346938775508,0.001,0.004000000000000001,0.45733492894729005,1646,1954,0,,WHITE,,,0,,WHITE,True,CORRECT,0.7691969999996218,769.1969999996218
7,20260325_141148,J,D,True,CALIBRATION,1,254,254,staircase,,,0.032551530840101345,0.02967346938775508,0.001,0.004000000000000001,0.5325515308401013,1917,1683,0,,BLACK,,,0,,BLACK,True,CORRECT,0.5531867999998212,553.1867999998212
7,20260325_141148,J,D,True,CALIBRATION,1,255,255,staircase,,,0.025740271453392728,0.028673469387755078,0.001,0.004000000000000001,0.5257402714533927,1893,1707,0,,BLACK,,,0,,BLACK,True,CORRECT,0.7032262000011542,703.2262000011542
7,20260325_141148,J,D,True,CALIBRATION,1,256,256,staircase,,,0.03503837768080842,0.027673469387755077,0.001,0.004000000000000001,0.5350383776808084,1926,1674,0,,BLACK,,,0,,BLACK,True,CORRECT,0.7510758000007627,751.0758000007627
7,20260325_141148,J,D,True,CALIBRATION,1,257,257,staircase,,,0.03797255114471916,0.026673469387755076,0.001,0.004000000000000001,0.46202744885528085,1663,1937,0,,WHITE,,,0,,WHITE,True,CORRECT,0.8000945000003412,800.0945000003412
7,20260325_141148,J,D,True,CALIBRATION,1,258,258,staircase,,,0.029351855816322023,0.030673469387755076,0.001,0.004000000000000001,0.47064814418367795,1694,1906,0,,WHITE,,,0,,BLACK,False,INCORRECT,0.6567291999999725,656.7291999999725
7,20260325_141148,J,D,True,CALIBRATION,1,259,259,staircase,,,0.04033522735342429,0.029673469387755076,0.001,0.004000000000000001,0.4596647726465757,1655,1945,0,,WHITE,,,0,,WHITE,True,CORRECT,1.0718007999985275,1071.8007999985275
7,20260325_141148,J,D,True,CALIBRATION,1,260,260,staircase,,,0.012532189228460434,0.028673469387755075,0.001,0.004000000000000001,0.48746781077153956,1755,1845,0,,WHITE,,,0,,WHITE,True,CORRECT,1.815300500000376,1815.300500000376
7,20260325_141148,J,D,True,CALIBRATION,1,261,261,staircase,,,0.006185478300839695,0.027673469387755074,0.001,0.004000000000000001,0.4938145216991603,1778,1822,0,,WHITE,,,0,,WHITE,True,CORRECT,1.24061249999977,1240.61249999977
7,20260325_141148,J,D,True,CALIBRATION,1,262,262,staircase,,,0.032701637410397555,0.026673469387755073,0.001,0.004000000000000001,0.5327016374103976,1918,1682,0,,BLACK,,,0,,BLACK,True,CORRECT,0.639730499999132,639.730499999132
7,20260325_141148,J,D,True,CALIBRATION,1,263,263,staircase,,,0.025198491631089844,0.025673469387755072,0.001,0.004000000000000001,0.47480150836891016,1709,1891,0,,WHITE,,,0,,WHITE,True,CORRECT,1.276292000000467,1276.292000000467
7,20260325_141148,J,D,True,CALIBRATION,1,264,264,staircase,,,0.020150651355185102,0.029673469387755072,0.001,0.004000000000000001,0.5201506513551851,1873,1727,0,,BLACK,,,0,,WHITE,False,INCORRECT,0.9418413999992481,941.8413999992481
7,20260325_141148,J,D,True,CALIBRATION,1,265,265,staircase,,,0.02808640191259692,0.02867346938775507,0.001,0.004000000000000001,0.5280864019125969,1901,1699,0,,BLACK,,,0,,BLACK,True,CORRECT,0.9582484000002296,958.2484000002296
7,20260325_141148,J,D,True,CALIBRATION,1,266,266,staircase,,,0.02990427487240973,0.02767346938775507,0.001,0.004000000000000001,0.4700957251275903,1692,1908,0,,WHITE,,,0,,WHITE,True,CORRECT,4.139553700000761,4139.553700000761
7,20260325_141148,J,D,True,CALIBRATION,1,267,267,staircase,,,0.0382138112598147,0.02667346938775507,0.001,0.004000000000000001,0.5382138112598147,1938,1662,0,,BLACK,,,0,,BLACK,True,CORRECT,0.7017663000005996,701.7663000005996
7,20260325_141148,J,D,True,CALIBRATION,1,268,268,staircase,,,0.041258021918970544,0.02567346938775507,0.001,0.004000000000000001,0.45874197808102946,1651,1949,0,,WHITE,,,0,,WHITE,True,CORRECT,1.2929863999997906,1292.9863999997906
7,20260325_141148,J,D,True,CALIBRATION,1,269,269,staircase,,,0.018729809709513295,0.02967346938775507,0.001,0.004000000000000001,0.5187298097095133,1867,1733,0,,BLACK,,,0,,WHITE,False,INCORRECT,1.2557646000004752,1255.7646000004752
7,20260325_141148,J,D,True,CALIBRATION,1,270,270,staircase,,,0.0002777777777777778,0.028673469387755068,0.001,0.004000000000000001,0.49972222222222223,1799,1801,0,,WHITE,,,0,,WHITE,True,CORRECT,1.5646909999995842,1564.6909999995842
7,20260325_141148,J,D,True,CALIBRATION,1,271,271,staircase,,,0.025599500342979448,0.027673469387755067,0.001,0.004000000000000001,0.4744004996570206,1708,1892,0,,WHITE,,,0,,WHITE,True,CORRECT,3.2600992000006954,3260.0992000006954
7,20260325_141148,J,D,True,CALIBRATION,1,272,272,staircase,,,0.03398387432531626,0.026673469387755066,0.001,0.004000000000000001,0.46601612567468376,1678,1922,0,,WHITE,,,0,,WHITE,True,CORRECT,2.956550699998843,2956.550699998843
7,20260325_141148,J,D,True,CALIBRATION,1,273,273,staircase,,,0.02084351068495048,0.025673469387755065,0.001,0.004000000000000001,0.4791564893150495,1725,1875,0,,WHITE,,,0,,WHITE,True,CORRECT,2.3039731999997457,2303.9731999997457
7,20260325_141148,J,D,True,CALIBRATION,1,274,274,staircase,,,0.02533519717307788,0.029673469387755065,0.001,0.004000000000000001,0.47466480282692214,1709,1891,0,,WHITE,,,0,,BLACK,False,INCORRECT,1.0433245999993233,1043.3245999993233
7,20260325_141148,J,D,True,CALIBRATION,1,275,275,staircase,,,0.03498260229815975,0.028673469387755064,0.001,0.004000000000000001,0.46501739770184025,1674,1926,0,,WHITE,,,0,,WHITE,True,CORRECT,0.7791392999988602,779.1392999988602
7,20260325_141148,J,D,True,CALIBRATION,1,276,276,staircase,,,0.040236420291916056,0.027673469387755063,0.001,0.004000000000000001,0.45976357970808396,1655,1945,0,,WHITE,,,0,,WHITE,True,CORRECT,1.2646544999988691,1264.6544999988691
7,20260325_141148,J,D,True,CALIBRATION,1,277,277,staircase,,,0.024301800591259998,0.03167346938775507,0.001,0.004000000000000001,0.47569819940874003,1713,1887,0,,WHITE,,,0,,BLACK,False,INCORRECT,1.0244294999993144,1024.4294999993144
7,20260325_141148,J,D,True,CALIBRATION,1,278,278,staircase,,,0.03106835418963791,0.030673469387755066,0.001,0.004000000000000001,0.46893164581036206,1688,1912,0,,WHITE,,,0,,WHITE,True,CORRECT,1.6096677000005002,1609.6677000005002
7,20260325_141148,J,D,True,CALIBRATION,1,279,279,staircase,,,0.03497794622191676,0.03467346938775507,0.001,0.004000000000000001,0.46502205377808326,1674,1926,0,,WHITE,,,0,,BLACK,False,INCORRECT,2.3159934999985126,2315.9934999985126
7,20260325_141148,J,D,True,CALIBRATION,1,280,280,staircase,,,0.007663171853703014,0.03367346938775507,0.001,0.004000000000000001,0.492336828146297,1772,1828,0,,WHITE,,,0,,WHITE,True,CORRECT,0.8337744000000384,833.7744000000384
7,20260325_141148,J,D,True,CALIBRATION,1,281,281,staircase,,,0.03265674511212044,0.03267346938775507,0.001,0.004000000000000001,0.5326567451121205,1918,1682,0,,BLACK,,,0,,BLACK,True,CORRECT,0.7534696000002441,753.4696000002441
7,20260325_141148,J,D,True,CALIBRATION,1,282,282,staircase,,,0.04008614362544403,0.03667346938775507,0.001,0.004000000000000001,0.540086143625444,1944,1656,0,,BLACK,,,0,,WHITE,False,INCORRECT,1.104437300000427,1104.437300000427
7,20260325_141148,J,D,True,CALIBRATION,1,283,283,staircase,,,0.03933626551586208,0.03567346938775507,0.001,0.004000000000000001,0.5393362655158621,1942,1658,0,,BLACK,,,0,,BLACK,True,CORRECT,1.5200389999990875,1520.0389999990875
7,20260325_141148,J,D,True,CALIBRATION,1,284,284,staircase,,,0.04548137028623219,0.03467346938775507,0.001,0.004000000000000001,0.5454813702862322,1964,1636,0,,BLACK,,,0,,BLACK,True,CORRECT,0.6238399000012578,623.8399000012578
7,20260325_141148,J,D,True,CALIBRATION,1,285,285,staircase,,,0.021183845583926414,0.03367346938775507,0.001,0.004000000000000001,0.4788161544160736,1724,1876,0,,WHITE,,,0,,WHITE,True,CORRECT,0.8038741999989725,803.8741999989725
7,20260325_141148,J,D,True,CALIBRATION,1,286,286,staircase,,,0.04397618137726228,0.03267346938775507,0.001,0.004000000000000001,0.4560238186227377,1642,1958,0,,WHITE,,,0,,WHITE,True,CORRECT,1.3308654000011302,1330.8654000011302
7,20260325_141148,J,D,True,CALIBRATION,1,287,287,staircase,,,0.019827503987567822,0.03167346938775507,0.001,0.004000000000000001,0.5198275039875678,1871,1729,0,,BLACK,,,0,,BLACK,True,CORRECT,0.7487121000012849,748.7121000012849
7,20260325_141148,J,D,True,CALIBRATION,1,288,288,staircase,,,0.041742714123298476,0.030673469387755066,0.001,0.004000000000000001,0.5417427141232984,1950,1650,0,,BLACK,,,0,,BLACK,True,CORRECT,0.9705873000002612,970.5873000002612
7,20260325_141148,J,D,True,CALIBRATION,1,289,289,staircase,,,0.03267740168423824,0.029673469387755065,0.001,0.004000000000000001,0.5326774016842383,1918,1682,0,,BLACK,,,0,,BLACK,True,CORRECT,0.7612348999991809,761.2348999991809
7,20260325_141148,J,D,True,CALIBRATION,1,290,290,staircase,,,0.03316833893851684,0.028673469387755064,0.001,0.004000000000000001,0.46683166106148316,1681,1919,0,,WHITE,,,0,,WHITE,True,CORRECT,0.8937100000002829,893.7100000002829
7,20260325_141148,J,D,True,CALIBRATION,1,291,291,staircase,,,0.038038529224852576,0.027673469387755063,0.001,0.004000000000000001,0.46196147077514743,1663,1937,0,,WHITE,,,0,,WHITE,True,CORRECT,0.6726705000000948,672.6705000000948
7,20260325_141148,J,D,True,CALIBRATION,1,292,292,staircase,,,0.02637750366503063,0.03167346938775507,0.001,0.004000000000000001,0.5263775036650307,1895,1705,0,,BLACK,,,0,,WHITE,False,INCORRECT,0.6803244000002451,680.3244000002451
7,20260325_141148,J,D,True,CALIBRATION,1,293,293,staircase,,,0.02684926014077127,0.03567346938775507,0.001,0.004000000000000001,0.47315073985922873,1703,1897,0,,WHITE,,,0,,BLACK,False,INCORRECT,1.6814735000007204,1681.4735000007204
7,20260325_141148,J,D,True,CALIBRATION,1,294,294,staircase,,,0.053435525344468174,0.03467346938775507,0.001,0.004000000000000001,0.44656447465553184,1608,1992,0,,WHITE,,,0,,WHITE,True,CORRECT,0.6634270000013203,663.4270000013203
7,20260325_141148,J,D,True,CALIBRATION,1,295,295,staircase,,,0.03029476376790679,0.03367346938775507,0.001,0.004000000000000001,0.4697052362320932,1691,1909,0,,WHITE,,,0,,WHITE,True,CORRECT,0.8189079000003403,818.9079000003403
7,20260325_141148,J,D,True,CALIBRATION,1,296,296,staircase,,,0.04192167426169578,0.03267346938775507,0.001,0.004000000000000001,0.4580783257383042,1649,1951,0,,WHITE,,,0,,WHITE,True,CORRECT,0.8402540000006411,840.2540000006411
7,20260325_141148,J,D,True,CALIBRATION,1,297,297,staircase,,,0.04848965812728069,0.03167346938775507,0.001,0.004000000000000001,0.5484896581272807,1975,1625,0,,BLACK,,,0,,BLACK,True,CORRECT,1.6136587000000873,1613.6587000000873
7,20260325_141148,J,D,True,CALIBRATION,1,298,298,staircase,,,0.033369350665233416,0.03567346938775507,0.001,0.004000000000000001,0.5333693506652334,1920,1680,0,,BLACK,,,0,,WHITE,False,INCORRECT,0.6233382999998867,623.3382999998867
7,20260325_141148,J,D,True,CALIBRATION,1,299,299,staircase,,,0.0481100203606461,0.03467346938775507,0.001,0.004000000000000001,0.4518899796393539,1627,1973,0,,WHITE,,,0,,WHITE,True,CORRECT,0.6415894000001572,641.5894000001572
7,20260325_141148,J,D,True,CALIBRATION,1,300,300,staircase,,,0.01260799020915987,0.03367346938775507,0.001,0.004000000000000001,0.5126079902091598,1845,1755,0,,BLACK,,,0,,BLACK,True,CORRECT,1.3106344999996509,1310.6344999996509
7,20260325_141148,J,D,True,MANUAL,2,1,301,fixed_delta,0.033374705876577364,0.013109562710342202,,,,,0.4738479270736893,1706,1894,0,,WHITE,,,0,,WHITE,True,CORRECT,1.273743399997329,1273.743399997329
7,20260325_141148,J,D,True,MANUAL,2,2,302,fixed_delta,0.033374705876577364,0.013109562710342202,,,,,0.5302914454992761,1909,1691,0,,BLACK,,,0,,BLACK,True,CORRECT,0.8594454000012774,859.4454000012774
7,20260325_141148,J,D,True,MANUAL,2,3,303,fixed_delta,0.033374705876577364,0.013109562710342202,,,,,0.4839499014321264,1742,1858,0,,WHITE,,,0,,BLACK,False,INCORRECT,0.6169230999985302,616.9230999985302
7,20260325_141148,J,D,True,MANUAL,2,4,304,fixed_delta,0.033374705876577364,0.013109562710342202,,,,,0.4641290054361916,1671,1929,0,,WHITE,,,0,,WHITE,True,CORRECT,0.5056120000008377,505.6120000008377
7,20260325_141148,J,D,True,MANUAL,2,5,305,fixed_delta,0.033374705876577364,0.013109562710342202,,,,,0.5333655401204472,1920,1680,0,,BLACK,,,0,,BLACK,True,CORRECT,0.5055089999987104,505.50899999871035
7,20260325_141148,J,D,True,MANUAL,2,6,306,fixed_delta,0.033374705876577364,0.013109562710342202,,,,,0.46817017646265546,1685,1915,0,,WHITE,,,0,,BLACK,False,INCORRECT,0.9294355000020005,929.4355000020005
7,20260325_141148,J,D,True,MANUAL,2,7,307,fixed_delta,0.033374705876577364,0.013109562710342202,,,,,0.5102545504555936,1837,1763,0,,BLACK,,,0,,WHITE,False,INCORRECT,1.7861874000009266,1786.1874000009266
7,20260325_141148,J,D,True,MANUAL,2,8,308,fixed_delta,0.033374705876577364,0.013109562710342202,,,,,0.5392632091891921,1941,1659,0,,BLACK,,,0,,WHITE,False,INCORRECT,0.9543044000020018,954.3044000020018
7,20260325_141148,J,D,True,MANUAL,2,9,309,fixed_delta,0.033374705876577364,0.013109562710342202,,,,,0.5499294466123336,1980,1620,0,,BLACK,,,0,,BLACK,True,CORRECT,1.5715773000010813,1571.5773000010813
7,20260325_141148,J,D,True,MANUAL,2,10,310,fixed_delta,0.033374705876577364,0.013109562710342202,,,,,0.4821804519767631,1736,1864,0,,WHITE,,,0,,BLACK,False,INCORRECT,1.6003404000002774,1600.3404000002774
7,20260325_141148,J,D,True,MANUAL,2,11,311,fixed_delta,0.033374705876577364,0.013109562710342202,,,,,0.5276431395424493,1900,1700,0,,BLACK,,,0,,WHITE,False,INCORRECT,0.7049858999998833,704.9858999998833
7,20260325_141148,J,D,True,MANUAL,2,12,312,fixed_delta,0.033374705876577364,0.013109562710342202,,,,,0.5314761210216556,1913,1687,0,,BLACK,,,0,,BLACK,True,CORRECT,1.0954514000004565,1095.4514000004565
7,20260325_141148,J,D,True,MANUAL,2,13,313,fixed_delta,0.033374705876577364,0.013109562710342202,,,,,0.5302728634936862,1909,1691,0,,BLACK,,,0,,WHITE,False,INCORRECT,0.7959139000013238,795.9139000013238
7,20260325_141148,J,D,True,MANUAL,2,14,314,fixed_delta,0.033374705876577364,0.013109562710342202,,,,,0.4894796589477301,1762,1838,0,,WHITE,,,0,,BLACK,False,INCORRECT,1.1356809999997495,1135.6809999997495
7,20260325_141148,J,D,True,MANUAL,2,15,315,fixed_delta,0.033374705876577364,0.013109562710342202,,,,,0.5266609065498972,1896,1704,0,,BLACK,,,0,,BLACK,True,CORRECT,0.7038434999994934,703.8434999994934
7,20260325_141148,J,D,True,MANUAL,2,16,316,fixed_delta,0.033374705876577364,0.013109562710342202,,,,,0.459126122608143,1653,1947,0,,WHITE,,,0,,WHITE,True,CORRECT,0.6425831999986258,642.5831999986258
7,20260325_141148,J,D,True,MANUAL,2,17,317,fixed_delta,0.033374705876577364,0.013109562710342202,,,,,0.5424453988179776,1953,1647,0,,BLACK,,,0,,BLACK,True,CORRECT,0.6637742999992042,663.7742999992042
7,20260325_141148,J,D,True,MANUAL,2,18,318,fixed_delta,0.033374705876577364,0.013109562710342202,,,,,0.446155567586039,1606,1994,0,,WHITE,,,0,,WHITE,True,CORRECT,0.7455195000002277,745.5195000002277
7,20260325_141148,J,D,True,MANUAL,2,19,319,fixed_delta,0.033374705876577364,0.013109562710342202,,,,,0.48480686994347666,1745,1855,0,,WHITE,,,0,,BLACK,False,INCORRECT,0.6226730999987922,622.6730999987922
7,20260325_141148,J,D,True,MANUAL,2,20,320,fixed_delta,0.033374705876577364,0.013109562710342202,,,,,0.45810071532393914,1649,1951,0,,WHITE,,,0,,WHITE,True,CORRECT,0.7345996000003652,734.5996000003652
7,20260325_141148,J,D,True,MANUAL,2,21,321,fixed_delta,0.033374705876577364,0.013109562710342202,,,,,0.48236975388985937,1737,1863,0,,WHITE,,,0,,BLACK,False,INCORRECT,0.6232707999988634,623.2707999988634
7,20260325_141148,J,D,True,MANUAL,2,22,322,fixed_delta,0.033374705876577364,0.013109562710342202,,,,,0.5232550657757192,1884,1716,0,,BLACK,,,0,,BLACK,True,CORRECT,0.8594434999977238,859.4434999977238
7,20260325_141148,J,D,True,MANUAL,2,23,323,fixed_delta,0.033374705876577364,0.013109562710342202,,,,,0.5320695955602676,1915,1685,0,,BLACK,,,0,,BLACK,True,CORRECT,1.2145492999989074,1214.5492999989074
7,20260325_141148,J,D,True,MANUAL,2,24,324,fixed_delta,0.033374705876577364,0.013109562710342202,,,,,0.4846787678890719,1745,1855,0,,WHITE,,,0,,BLACK,False,INCORRECT,0.7950879000018176,795.0879000018176
7,20260325_141148,J,D,True,MANUAL,2,25,325,fixed_delta,0.033374705876577364,0.013109562710342202,,,,,0.485884992642139,1749,1851,0,,WHITE,,,0,,BLACK,False,INCORRECT,1.346911700002238,1346.911700002238
7,20260325_141148,J,D,True,MANUAL,2,26,326,fixed_delta,0.033374705876577364,0.013109562710342202,,,,,0.5449024446839352,1962,1638,0,,BLACK,,,0,,BLACK,True,CORRECT,1.6713015000023006,1671.3015000023006
7,20260325_141148,J,D,True,MANUAL,2,27,327,fixed_delta,0.033374705876577364,0.013109562710342202,,,,,0.5102009826051545,1837,1763,0,,BLACK,,,0,,WHITE,False,INCORRECT,0.7840188999980455,784.0188999980455
7,20260325_141148,J,D,True,MANUAL,2,28,328,fixed_delta,0.033374705876577364,0.013109562710342202,,,,,0.4628255498378828,1666,1934,0,,WHITE,,,0,,WHITE,True,CORRECT,0.8714510999998311,871.4510999998311
7,20260325_141148,J,D,True,MANUAL,2,29,329,fixed_delta,0.033374705876577364,0.013109562710342202,,,,,0.5044175830817511,1816,1784,0,,BLACK,,,0,,BLACK,True,CORRECT,0.7535701000015251,753.5701000015251
7,20260325_141148,J,D,True,MANUAL,2,30,330,fixed_delta,0.033374705876577364,0.013109562710342202,,,,,0.4703212405741442,1693,1907,0,,WHITE,,,0,,WHITE,True,CORRECT,0.948850400000083,948.850400000083
7,20260325_141148,J,D,True,MANUAL,2,31,331,fixed_delta,0.033374705876577364,0.013109562710342202,,,,,0.5379487023828797,1937,1663,0,,BLACK,,,0,,BLACK,True,CORRECT,1.1314859999984037,1131.4859999984037
7,20260325_141148,J,D,True,MANUAL,2,32,332,fixed_delta,0.033374705876577364,0.013109562710342202,,,,,0.5002777777777778,1801,1799,0,,BLACK,,,0,,BLACK,True,CORRECT,2.5837785999974585,2583.7785999974585
7,20260325_141148,J,D,True,MANUAL,2,33,333,fixed_delta,0.033374705876577364,0.013109562710342202,,,,,0.542327540218615,1952,1648,0,,BLACK,,,0,,BLACK,True,CORRECT,1.1891794000002847,1189.1794000002847
7,20260325_141148,J,D,True,MANUAL,2,34,334,fixed_delta,0.033374705876577364,0.013109562710342202,,,,,0.5331489255725487,1919,1681,0,,BLACK,,,0,,WHITE,False,INCORRECT,0.875998299998173,875.998299998173
7,20260325_141148,J,D,True,MANUAL,2,35,335,fixed_delta,0.033374705876577364,0.013109562710342202,,,,,0.4629802498167021,1667,1933,0,,WHITE,,,0,,BLACK,False,INCORRECT,1.006794799999625,1006.794799999625
7,20260325_141148,J,D,True,MANUAL,2,36,336,fixed_delta,0.033374705876577364,0.013109562710342202,,,,,0.5385497930213095,1939,1661,0,,BLACK,,,0,,BLACK,True,CORRECT,0.7015232000012475,701.5232000012475
7,20260325_141148,J,D,True,MANUAL,2,37,337,fixed_delta,0.033374705876577364,0.013109562710342202,,,,,0.4399543399944411,1584,2016,0,,WHITE,,,0,,WHITE,True,CORRECT,0.5922678000024462,592.2678000024462
7,20260325_141148,J,D,True,MANUAL,2,38,338,fixed_delta,0.033374705876577364,0.013109562710342202,,,,,0.48593131798321,1749,1851,0,,WHITE,,,0,,BLACK,False,INCORRECT,0.674044600000343,674.044600000343
7,20260325_141148,J,D,True,MANUAL,2,39,339,fixed_delta,0.033374705876577364,0.013109562710342202,,,,,0.45302243906763123,1631,1969,0,,WHITE,,,0,,BLACK,False,INCORRECT,0.9008187999970687,900.8187999970687
7,20260325_141148,J,D,True,MANUAL,2,40,340,fixed_delta,0.033374705876577364,0.013109562710342202,,,,,0.4567582835888114,1644,1956,0,,WHITE,,,0,,WHITE,True,CORRECT,0.49279930000193417,492.79930000193417
7,20260325_141148,J,D,True,MANUAL,2,41,341,fixed_delta,0.033374705876577364,0.013109562710342202,,,,,0.4688690629991784,1688,1912,0,,WHITE,,,0,,WHITE,True,CORRECT,0.5159954999980982,515.9954999980982
7,20260325_141148,J,D,True,MANUAL,2,42,342,fixed_delta,0.033374705876577364,0.013109562710342202,,,,,0.5235875157058093,1885,1715,0,,BLACK,,,0,,BLACK,True,CORRECT,0.7260333999984141,726.0333999984141
7,20260325_141148,J,D,True,MANUAL,2,43,343,fixed_delta,0.033374705876577364,0.013109562710342202,,,,,0.45215932810730763,1628,1972,0,,WHITE,,,0,,WHITE,True,CORRECT,0.5802421000007598,580.2421000007598
7,20260325_141148,J,D,True,MANUAL,2,44,344,fixed_delta,0.033374705876577364,0.013109562710342202,,,,,0.46464046191647684,1673,1927,0,,WHITE,,,0,,WHITE,True,CORRECT,1.1481858999977703,1148.1858999977703
7,20260325_141148,J,D,True,MANUAL,2,45,345,fixed_delta,0.033374705876577364,0.013109562710342202,,,,,0.5332596652804013,1920,1680,0,,BLACK,,,0,,BLACK,True,CORRECT,0.5770188000024064,577.0188000024064
7,20260325_141148,J,D,True,MANUAL,2,46,346,fixed_delta,0.033374705876577364,0.013109562710342202,,,,,0.5201866695818833,1873,1727,0,,BLACK,,,0,,BLACK,True,CORRECT,0.586566900001344,586.566900001344
7,20260325_141148,J,D,True,MANUAL,2,47,347,fixed_delta,0.033374705876577364,0.013109562710342202,,,,,0.5302077046552415,1909,1691,0,,BLACK,,,0,,BLACK,True,CORRECT,0.5984519999983604,598.4519999983604
7,20260325_141148,J,D,True,MANUAL,2,48,348,fixed_delta,0.033374705876577364,0.013109562710342202,,,,,0.5223859395753802,1881,1719,0,,BLACK,,,0,,BLACK,True,CORRECT,0.6879192999986117,687.9192999986117
7,20260325_141148,J,D,True,MANUAL,2,49,349,fixed_delta,0.033374705876577364,0.013109562710342202,,,,,0.5303887770567934,1909,1691,0,,BLACK,,,0,,BLACK,True,CORRECT,0.7374617000023136,737.4617000023136
7,20260325_141148,J,D,True,MANUAL,2,50,350,fixed_delta,0.033374705876577364,0.013109562710342202,,,,,0.530367346193448,1909,1691,0,,BLACK,,,0,,BLACK,True,CORRECT,0.510661500000424,510.661500000424
7,20260325_141148,J,D,True,MANUAL,2,51,351,fixed_delta,0.033374705876577364,0.013109562710342202,,,,,0.46371319234680847,1669,1931,0,,WHITE,,,0,,WHITE,True,CORRECT,0.7985241999995196,798.5241999995196
7,20260325_141148,J,D,True,MANUAL,2,52,352,fixed_delta,0.033374705876577364,0.013109562710342202,,,,,0.4750286887901969,1710,1890,0,,WHITE,,,0,,WHITE,True,CORRECT,0.7832918999993126,783.2918999993126
7,20260325_141148,J,D,True,MANUAL,2,53,353,fixed_delta,0.033374705876577364,0.013109562710342202,,,,,0.5219159170982277,1879,1721,0,,BLACK,,,0,,BLACK,True,CORRECT,0.5601462000013271,560.1462000013271
7,20260325_141148,J,D,True,MANUAL,2,54,354,fixed_delta,0.033374705876577364,0.013109562710342202,,,,,0.46648419640014704,1679,1921,0,,WHITE,,,0,,WHITE,True,CORRECT,0.7707363000008627,770.7363000008627
7,20260325_141148,J,D,True,MANUAL,2,55,355,fixed_delta,0.033374705876577364,0.013109562710342202,,,,,0.5465713142269083,1968,1632,0,,BLACK,,,0,,BLACK,True,CORRECT,0.5202865000028396,520.2865000028396
7,20260325_141148,J,D,True,MANUAL,2,56,356,fixed_delta,0.033374705876577364,0.013109562710342202,,,,,0.4767023288229973,1716,1884,0,,WHITE,,,0,,WHITE,True,CORRECT,0.6432529999983672,643.2529999983672
7,20260325_141148,J,D,True,MANUAL,2,57,357,fixed_delta,0.033374705876577364,0.013109562710342202,,,,,0.5291810678999741,1905,1695,0,,BLACK,,,0,,BLACK,True,CORRECT,0.49684699999852455,496.84699999852455
7,20260325_141148,J,D,True,MANUAL,2,58,358,fixed_delta,0.033374705876577364,0.013109562710342202,,,,,0.4680237393486614,1685,1915,0,,WHITE,,,0,,WHITE,True,CORRECT,0.5505424000002677,550.5424000002677
7,20260325_141148,J,D,True,MANUAL,2,59,359,fixed_delta,0.033374705876577364,0.013109562710342202,,,,,0.5405872993203479,1946,1654,0,,BLACK,,,0,,BLACK,True,CORRECT,0.49425350000092294,494.25350000092294
7,20260325_141148,J,D,True,MANUAL,2,60,360,fixed_delta,0.033374705876577364,0.013109562710342202,,,,,0.48571857518417466,1749,1851,0,,WHITE,,,0,,WHITE,True,CORRECT,0.5302287999984401,530.2287999984401
7,20260325_141148,J,D,True,MANUAL,2,61,361,fixed_delta,0.033374705876577364,0.013109562710342202,,,,,0.5262801525684454,1895,1705,0,,BLACK,,,0,,WHITE,False,INCORRECT,0.6696723999993992,669.6723999993992
7,20260325_141148,J,D,True,MANUAL,2,62,362,fixed_delta,0.033374705876577364,0.013109562710342202,,,,,0.5048473473338613,1817,1783,0,,BLACK,,,0,,WHITE,False,INCORRECT,0.48658160000195494,486.58160000195494
7,20260325_141148,J,D,True,MANUAL,2,63,363,fixed_delta,0.033374705876577364,0.013109562710342202,,,,,0.4719243606803785,1699,1901,0,,WHITE,,,0,,WHITE,True,CORRECT,0.5120783999991545,512.0783999991545
7,20260325_141148,J,D,True,MANUAL,2,64,364,fixed_delta,0.033374705876577364,0.013109562710342202,,,,,0.5264272860798679,1895,1705,0,,BLACK,,,0,,BLACK,True,CORRECT,0.7658007999998517,765.8007999998517
7,20260325_141148,J,D,True,MANUAL,2,65,365,fixed_delta,0.033374705876577364,0.013109562710342202,,,,,0.5449611851204521,1962,1638,0,,BLACK,,,0,,BLACK,True,CORRECT,0.9729003000029479,972.9003000029479
7,20260325_141148,J,D,True,MANUAL,2,66,366,fixed_delta,0.033374705876577364,0.013109562710342202,,,,,0.48950489227919686,1762,1838,0,,WHITE,,,0,,WHITE,True,CORRECT,0.6912421999986691,691.2421999986691
7,20260325_141148,J,D,True,MANUAL,2,67,367,fixed_delta,0.033374705876577364,0.013109562710342202,,,,,0.4767243873791893,1716,1884,0,,WHITE,,,0,,WHITE,True,CORRECT,0.9508886000003258,950.8886000003258
7,20260325_141148,J,D,True,MANUAL,2,68,368,fixed_delta,0.033374705876577364,0.013109562710342202,,,,,0.5453673020196436,1963,1637,0,,BLACK,,,0,,BLACK,True,CORRECT,1.2298406000008981,1229.8406000008981
7,20260325_141148,J,D,True,MANUAL,2,69,369,fixed_delta,0.033374705876577364,0.013109562710342202,,,,,0.4700846762004071,1692,1908,0,,WHITE,,,0,,WHITE,True,CORRECT,0.7342013000015868,734.2013000015868
7,20260325_141148,J,D,True,MANUAL,2,70,370,fixed_delta,0.033374705876577364,0.013109562710342202,,,,,0.5254728150930871,1892,1708,0,,BLACK,,,0,,BLACK,True,CORRECT,0.6257130000012694,625.7130000012694
7,20260325_141148,J,D,True,MANUAL,2,71,371,fixed_delta,0.033374705876577364,0.013109562710342202,,,,,0.5360604329861245,1930,1670,0,,BLACK,,,0,,BLACK,True,CORRECT,0.6464334999982384,646.4334999982384
7,20260325_141148,J,D,True,MANUAL,2,72,372,fixed_delta,0.033374705876577364,0.013109562710342202,,,,,0.4814212402551041,1733,1867,0,,WHITE,,,0,,WHITE,True,CORRECT,0.8941835000005085,894.1835000005085
7,20260325_141148,J,D,True,MANUAL,2,73,373,fixed_delta,0.033374705876577364,0.013109562710342202,,,,,0.5339330365146885,1922,1678,0,,BLACK,,,0,,BLACK,True,CORRECT,1.6803061999999045,1680.3061999999045
7,20260325_141148,J,D,True,MANUAL,2,74,374,fixed_delta,0.033374705876577364,0.013109562710342202,,,,,0.4580133760996993,1649,1951,0,,WHITE,,,0,,WHITE,True,CORRECT,0.6632948999977089,663.2948999977089
7,20260325_141148,J,D,True,MANUAL,2,75,375,fixed_delta,0.033374705876577364,0.013109562710342202,,,,,0.5092962901476417,1833,1767,0,,BLACK,,,0,,BLACK,True,CORRECT,0.6252667000007932,625.2667000007932
7,20260325_141148,J,D,True,MANUAL,2,76,376,fixed_delta,0.033374705876577364,0.013109562710342202,,,,,0.47577077176730626,1713,1887,0,,WHITE,,,0,,WHITE,True,CORRECT,0.625087700002041,625.087700002041
7,20260325_141148,J,D,True,MANUAL,2,77,377,fixed_delta,0.033374705876577364,0.013109562710342202,,,,,0.4383100891090799,1578,2022,0,,WHITE,,,0,,WHITE,True,CORRECT,0.5487462999990385,548.7462999990385
7,20260325_141148,J,D,True,MANUAL,2,78,378,fixed_delta,0.033374705876577364,0.013109562710342202,,,,,0.4812592600646232,1733,1867,0,,WHITE,,,0,,WHITE,True,CORRECT,1.194146699999692,1194.146699999692
7,20260325_141148,J,D,True,MANUAL,2,79,379,fixed_delta,0.033374705876577364,0.013109562710342202,,,,,0.49758407649065983,1791,1809,0,,WHITE,,,0,,WHITE,True,CORRECT,0.6012603999988642,601.2603999988642
7,20260325_141148,J,D,True,MANUAL,2,80,380,fixed_delta,0.033374705876577364,0.013109562710342202,,,,,0.5466648715679411,1968,1632,0,,BLACK,,,0,,WHITE,False,INCORRECT,0.519089299999905,519.089299999905
7,20260325_141148,J,D,True,MANUAL,2,81,381,fixed_delta,0.033374705876577364,0.013109562710342202,,,,,0.5367778101550719,1932,1668,0,,BLACK,,,0,,BLACK,True,CORRECT,0.5991792999993777,599.1792999993777
7,20260325_141148,J,D,True,MANUAL,2,82,382,fixed_delta,0.033374705876577364,0.013109562710342202,,,,,0.5348789749289555,1926,1674,0,,BLACK,,,0,,WHITE,False,INCORRECT,0.875780999998824,875.780999998824
7,20260325_141148,J,D,True,MANUAL,2,83,383,fixed_delta,0.033374705876577364,0.013109562710342202,,,,,0.5395764261336988,1942,1658,0,,BLACK,,,0,,WHITE,False,INCORRECT,1.4434103000021423,1443.4103000021423
7,20260325_141148,J,D,True,MANUAL,2,84,384,fixed_delta,0.033374705876577364,0.013109562710342202,,,,,0.5123801537964355,1845,1755,0,,BLACK,,,0,,BLACK,True,CORRECT,0.6755605999969703,675.5605999969703
7,20260325_141148,J,D,True,MANUAL,2,85,385,fixed_delta,0.033374705876577364,0.013109562710342202,,,,,0.45562565002740635,1640,1960,0,,WHITE,,,0,,WHITE,True,CORRECT,0.4937296000025526,493.7296000025526
7,20260325_141148,J,D,True,MANUAL,2,86,386,fixed_delta,0.033374705876577364,0.013109562710342202,,,,,0.5296318631321084,1907,1693,0,,BLACK,,,0,,WHITE,False,INCORRECT,0.9145681000009063,914.5681000009063
7,20260325_141148,J,D,True,MANUAL,2,87,387,fixed_delta,0.033374705876577364,0.013109562710342202,,,,,0.5189474596558215,1868,1732,0,,BLACK,,,0,,BLACK,True,CORRECT,0.5265057999968121,526.5057999968121
7,20260325_141148,J,D,True,MANUAL,2,88,388,fixed_delta,0.033374705876577364,0.013109562710342202,,,,,0.5429628050377919,1955,1645,0,,BLACK,,,0,,WHITE,False,INCORRECT,0.9933428000003914,993.3428000003914
7,20260325_141148,J,D,True,MANUAL,2,89,389,fixed_delta,0.033374705876577364,0.013109562710342202,,,,,0.4625639600281532,1665,1935,0,,WHITE,,,0,,WHITE,True,CORRECT,2.0512769000015396,2051.2769000015396
7,20260325_141148,J,D,True,MANUAL,2,90,390,fixed_delta,0.033374705876577364,0.013109562710342202,,,,,0.43855324250638794,1579,2021,0,,WHITE,,,0,,WHITE,True,CORRECT,0.7699800000009418,769.9800000009418
7,20260325_141148,J,D,True,MANUAL,2,91,391,fixed_delta,0.033374705876577364,0.013109562710342202,,,,,0.5351248668362311,1926,1674,0,,BLACK,,,0,,BLACK,True,CORRECT,0.6085322999970231,608.5322999970231
7,20260325_141148,J,D,True,MANUAL,2,92,392,fixed_delta,0.033374705876577364,0.013109562710342202,,,,,0.5323775628827186,1917,1683,0,,BLACK,,,0,,BLACK,True,CORRECT,1.1024122000017087,1102.4122000017087
7,20260325_141148,J,D,True,MANUAL,2,93,393,fixed_delta,0.033374705876577364,0.013109562710342202,,,,,0.4535970430306317,1633,1967,0,,WHITE,,,0,,WHITE,True,CORRECT,0.9087234999969951,908.7234999969951
7,20260325_141148,J,D,True,MANUAL,2,94,394,fixed_delta,0.033374705876577364,0.013109562710342202,,,,,0.5550626979765821,1998,1602,0,,BLACK,,,0,,BLACK,True,CORRECT,0.6563000000023749,656.3000000023749
7,20260325_141148,J,D,True,MANUAL,2,95,395,fixed_delta,0.033374705876577364,0.013109562710342202,,,,,0.54567709359881,1964,1636,0,,BLACK,,,0,,BLACK,True,CORRECT,0.4866013999999268,486.6013999999268
7,20260325_141148,J,D,True,MANUAL,2,96,396,fixed_delta,0.033374705876577364,0.013109562710342202,,,,,0.4849611915531186,1746,1854,0,,WHITE,,,0,,WHITE,True,CORRECT,0.46167480000076466,461.67480000076466
7,20260325_141148,J,D,True,MANUAL,2,97,397,fixed_delta,0.033374705876577364,0.013109562710342202,,,,,0.4657668516907777,1677,1923,0,,WHITE,,,0,,BLACK,False,INCORRECT,0.5954987000004621,595.4987000004621
7,20260325_141148,J,D,True,MANUAL,2,98,398,fixed_delta,0.033374705876577364,0.013109562710342202,,,,,0.4816233726892054,1734,1866,0,,WHITE,,,0,,WHITE,True,CORRECT,0.9246821999986423,924.6821999986423
7,20260325_141148,J,D,True,MANUAL,2,99,399,fixed_delta,0.033374705876577364,0.013109562710342202,,,,,0.4613560697084644,1661,1939,0,,WHITE,,,0,,WHITE,True,CORRECT,0.7203282999980729,720.3282999980729
7,20260325_141148,J,D,True,MANUAL,2,100,400,fixed_delta,0.033374705876577364,0.013109562710342202,,,,,0.4661496231236213,1678,1922,0,,WHITE,,,0,,BLACK,False,INCORRECT,0.6298688000024413,629.8688000024413
7,20260325_141148,J,D,True,MANUAL,2,101,401,fixed_delta,0.033374705876577364,0.013109562710342202,,,,,0.4729274925394481,1703,1897,0,,WHITE,,,0,,WHITE,True,CORRECT,0.6466467999998713,646.6467999998713
7,20260325_141148,J,D,True,MANUAL,2,102,402,fixed_delta,0.033374705876577364,0.013109562710342202,,,,,0.46886286248813425,1688,1912,0,,WHITE,,,0,,BLACK,False,INCORRECT,0.591397499996674,591.397499996674
7,20260325_141148,J,D,True,MANUAL,2,103,403,fixed_delta,0.033374705876577364,0.013109562710342202,,,,,0.5465126129802291,1967,1633,0,,BLACK,,,0,,BLACK,True,CORRECT,0.6093910999989021,609.3910999989021
7,20260325_141148,J,D,True,MANUAL,2,104,404,fixed_delta,0.033374705876577364,0.013109562710342202,,,,,0.4536544280510407,1633,1967,0,,WHITE,,,0,,WHITE,True,CORRECT,0.6092677000015101,609.2677000015101
7,20260325_141148,J,D,True,MANUAL,2,105,405,fixed_delta,0.033374705876577364,0.013109562710342202,,,,,0.44672388021620324,1608,1992,0,,WHITE,,,0,,WHITE,True,CORRECT,0.5602360000011686,560.2360000011686
7,20260325_141148,J,D,True,MANUAL,2,106,406,fixed_delta,0.033374705876577364,0.013109562710342202,,,,,0.4927877836376647,1774,1826,0,,WHITE,,,0,,BLACK,False,INCORRECT,0.5125465999990411,512.5465999990411
7,20260325_141148,J,D,True,MANUAL,2,107,407,fixed_delta,0.033374705876577364,0.013109562710342202,,,,,0.5439971017748044,1958,1642,0,,BLACK,,,0,,WHITE,False,INCORRECT,0.5256257000000915,525.6257000000915
7,20260325_141148,J,D,True,MANUAL,2,108,408,fixed_delta,0.033374705876577364,0.013109562710342202,,,,,0.5460764839176665,1966,1634,0,,BLACK,,,0,,WHITE,False,INCORRECT,4.367335999999341,4367.335999999341
7,20260325_141148,J,D,True,MANUAL,2,109,409,fixed_delta,0.033374705876577364,0.013109562710342202,,,,,0.5596400633592045,2015,1585,0,,BLACK,,,0,,BLACK,True,CORRECT,0.7178576000005705,717.8576000005705
7,20260325_141148,J,D,True,MANUAL,2,110,410,fixed_delta,0.033374705876577364,0.013109562710342202,,,,,0.5261556259785181,1894,1706,0,,BLACK,,,0,,WHITE,False,INCORRECT,1.0216577999999572,1021.6577999999572
7,20260325_141148,J,D,True,MANUAL,2,111,411,fixed_delta,0.033374705876577364,0.013109562710342202,,,,,0.5244780757181818,1888,1712,0,,BLACK,,,0,,BLACK,True,CORRECT,0.7988968999998178,798.8968999998178
7,20260325_141148,J,D,True,MANUAL,2,112,412,fixed_delta,0.033374705876577364,0.013109562710342202,,,,,0.46956426420425834,1690,1910,0,,WHITE,,,0,,WHITE,True,CORRECT,0.7643394000006083,764.3394000006083
7,20260325_141148,J,D,True,MANUAL,2,113,413,fixed_delta,0.033374705876577364,0.013109562710342202,,,,,0.4744974711826753,1708,1892,0,,WHITE,,,0,,WHITE,True,CORRECT,0.8475725000025705,847.5725000025705
7,20260325_141148,J,D,True,MANUAL,2,114,414,fixed_delta,0.033374705876577364,0.013109562710342202,,,,,0.4616526196012995,1662,1938,0,,WHITE,,,0,,WHITE,True,CORRECT,0.8422100000025239,842.2100000025239
7,20260325_141148,J,D,True,MANUAL,2,115,415,fixed_delta,0.033374705876577364,0.013109562710342202,,,,,0.5237751185963085,1886,1714,0,,BLACK,,,0,,BLACK,True,CORRECT,0.6235553000005893,623.5553000005893
7,20260325_141148,J,D,True,MANUAL,2,116,416,fixed_delta,0.033374705876577364,0.013109562710342202,,,,,0.4741265667089857,1707,1893,0,,WHITE,,,0,,WHITE,True,CORRECT,0.5125458000002254,512.5458000002254
7,20260325_141148,J,D,True,MANUAL,2,117,417,fixed_delta,0.033374705876577364,0.013109562710342202,,,,,0.5272079231735928,1898,1702,0,,BLACK,,,0,,BLACK,True,CORRECT,0.5355965000017022,535.5965000017022
7,20260325_141148,J,D,True,MANUAL,2,118,418,fixed_delta,0.033374705876577364,0.013109562710342202,,,,,0.47789531138488966,1720,1880,0,,WHITE,,,0,,WHITE,True,CORRECT,0.47857999999905587,478.5799999990559
7,20260325_141148,J,D,True,MANUAL,2,119,419,fixed_delta,0.033374705876577364,0.013109562710342202,,,,,0.48508130866981425,1746,1854,0,,WHITE,,,0,,BLACK,False,INCORRECT,0.48371959999713,483.71959999713
7,20260325_141148,J,D,True,MANUAL,2,120,420,fixed_delta,0.033374705876577364,0.013109562710342202,,,,,0.5078019009018393,1828,1772,0,,BLACK,,,0,,WHITE,False,INCORRECT,0.7421328999989782,742.1328999989782
7,20260325_141148,J,D,True,MANUAL,2,121,421,fixed_delta,0.033374705876577364,0.013109562710342202,,,,,0.5515109283108909,1985,1615,0,,BLACK,,,0,,BLACK,True,CORRECT,0.6438583999988623,643.8583999988623
7,20260325_141148,J,D,True,MANUAL,2,122,422,fixed_delta,0.033374705876577364,0.013109562710342202,,,,,0.49158555884495647,1770,1830,0,,WHITE,,,0,,WHITE,True,CORRECT,0.9021677999990061,902.1677999990061
7,20260325_141148,J,D,True,MANUAL,2,123,423,fixed_delta,0.033374705876577364,0.013109562710342202,,,,,0.43445274899628394,1564,2036,0,,WHITE,,,0,,WHITE,True,CORRECT,0.6814812999982678,681.4812999982678
7,20260325_141148,J,D,True,MANUAL,2,124,424,fixed_delta,0.033374705876577364,0.013109562710342202,,,,,0.5002777777777778,1801,1799,0,,BLACK,,,0,,BLACK,True,CORRECT,0.6421063999987382,642.1063999987382
7,20260325_141148,J,D,True,MANUAL,2,125,425,fixed_delta,0.033374705876577364,0.013109562710342202,,,,,0.4708867083959682,1695,1905,0,,WHITE,,,0,,WHITE,True,CORRECT,0.5420880999990914,542.0880999990914
7,20260325_141148,J,D,True,MANUAL,2,126,426,fixed_delta,0.033374705876577364,0.013109562710342202,,,,,0.5409951141723919,1948,1652,0,,BLACK,,,0,,BLACK,True,CORRECT,0.5718965999985812,571.8965999985812
7,20260325_141148,J,D,True,MANUAL,2,127,427,fixed_delta,0.033374705876577364,0.013109562710342202,,,,,0.5442932711955166,1959,1641,0,,BLACK,,,0,,BLACK,True,CORRECT,0.5928377000018372,592.8377000018372
7,20260325_141148,J,D,True,MANUAL,2,128,428,fixed_delta,0.033374705876577364,0.013109562710342202,,,,,0.45932594898989065,1654,1946,0,,WHITE,,,0,,WHITE,True,CORRECT,0.6478404000008595,647.8404000008595
7,20260325_141148,J,D,True,MANUAL,2,129,429,fixed_delta,0.033374705876577364,0.013109562710342202,,,,,0.45183240002002834,1627,1973,0,,WHITE,,,0,,BLACK,False,INCORRECT,0.47936399999889545,479.36399999889545
7,20260325_141148,J,D,True,MANUAL,2,130,430,fixed_delta,0.033374705876577364,0.013109562710342202,,,,,0.5445221661771638,1960,1640,0,,BLACK,,,0,,BLACK,True,CORRECT,0.669243500000448,669.243500000448
7,20260325_141148,J,D,True,MANUAL,2,131,431,fixed_delta,0.033374705876577364,0.013109562710342202,,,,,0.45298689659951197,1631,1969,0,,WHITE,,,0,,BLACK,False,INCORRECT,0.7064277999998012,706.4277999998012
7,20260325_141148,J,D,True,MANUAL,2,132,432,fixed_delta,0.033374705876577364,0.013109562710342202,,,,,0.5324717629011648,1917,1683,0,,BLACK,,,0,,WHITE,False,INCORRECT,1.1016312000028847,1101.6312000028847
7,20260325_141148,J,D,True,MANUAL,2,133,433,fixed_delta,0.033374705876577364,0.013109562710342202,,,,,0.5556345444923725,2000,1600,0,,BLACK,,,0,,BLACK,True,CORRECT,0.7298324000003049,729.8324000003049
7,20260325_141148,J,D,True,MANUAL,2,134,434,fixed_delta,0.033374705876577364,0.013109562710342202,,,,,0.4726811825534215,1702,1898,0,,WHITE,,,0,,WHITE,True,CORRECT,0.8095055999983742,809.5055999983742
7,20260325_141148,J,D,True,MANUAL,2,135,435,fixed_delta,0.033374705876577364,0.013109562710342202,,,,,0.46787178219460246,1684,1916,0,,WHITE,,,0,,WHITE,True,CORRECT,1.2814521999971475,1281.4521999971475
7,20260325_141148,J,D,True,MANUAL,2,136,436,fixed_delta,0.033374705876577364,0.013109562710342202,,,,,0.47134586798538775,1697,1903,0,,WHITE,,,0,,BLACK,False,INCORRECT,0.7189780000007886,718.9780000007886
7,20260325_141148,J,D,True,MANUAL,2,137,437,fixed_delta,0.033374705876577364,0.013109562710342202,,,,,0.5263781236370245,1895,1705,0,,BLACK,,,0,,BLACK,True,CORRECT,0.7473442000009527,747.3442000009527
7,20260325_141148,J,D,True,MANUAL,2,138,438,fixed_delta,0.033374705876577364,0.013109562710342202,,,,,0.4815002939774968,1733,1867,0,,WHITE,,,0,,WHITE,True,CORRECT,1.2180654000003415,1218.0654000003415
7,20260325_141148,J,D,True,MANUAL,2,139,439,fixed_delta,0.033374705876577364,0.013109562710342202,,,,,0.4675927515360139,1683,1917,0,,WHITE,,,0,,WHITE,True,CORRECT,0.9173683000008168,917.3683000008168
7,20260325_141148,J,D,True,MANUAL,2,140,440,fixed_delta,0.033374705876577364,0.013109562710342202,,,,,0.45274378682779515,1630,1970,0,,WHITE,,,0,,WHITE,True,CORRECT,0.9621219000000565,962.1219000000565
7,20260325_141148,J,D,True,MANUAL,2,141,441,fixed_delta,0.033374705876577364,0.013109562710342202,,,,,0.46638861581252017,1679,1921,0,,WHITE,,,0,,WHITE,True,CORRECT,0.8898969000001671,889.8969000001671
7,20260325_141148,J,D,True,MANUAL,2,142,442,fixed_delta,0.033374705876577364,0.013109562710342202,,,,,0.44934631061844366,1618,1982,0,,WHITE,,,0,,WHITE,True,CORRECT,0.8779266000019561,877.9266000019561
7,20260325_141148,J,D,True,MANUAL,2,143,443,fixed_delta,0.033374705876577364,0.013109562710342202,,,,,0.5358986813990425,1929,1671,0,,BLACK,,,0,,BLACK,True,CORRECT,0.7428460999981326,742.8460999981326
7,20260325_141148,J,D,True,MANUAL,2,144,444,fixed_delta,0.033374705876577364,0.013109562710342202,,,,,0.46952511152084936,1690,1910,0,,WHITE,,,0,,WHITE,True,CORRECT,0.7115254999989702,711.5254999989702
7,20260325_141148,J,D,True,MANUAL,2,145,445,fixed_delta,0.033374705876577364,0.013109562710342202,,,,,0.5229597677551988,1883,1717,0,,BLACK,,,0,,BLACK,True,CORRECT,0.5956430000005639,595.6430000005639
7,20260325_141148,J,D,True,MANUAL,2,146,446,fixed_delta,0.033374705876577364,0.013109562710342202,,,,,0.46755499750065943,1683,1917,0,,WHITE,,,0,,WHITE,True,CORRECT,0.6320438000002468,632.0438000002468
7,20260325_141148,J,D,True,MANUAL,2,147,447,fixed_delta,0.033374705876577364,0.013109562710342202,,,,,0.4633291177893488,1668,1932,0,,WHITE,,,0,,WHITE,True,CORRECT,0.61142800000016,611.42800000016
7,20260325_141148,J,D,True,MANUAL,2,148,448,fixed_delta,0.033374705876577364,0.013109562710342202,,,,,0.5342242610501606,1923,1677,0,,BLACK,,,0,,BLACK,True,CORRECT,0.578692899998714,578.692899998714
7,20260325_141148,J,D,True,MANUAL,2,149,449,fixed_delta,0.033374705876577364,0.013109562710342202,,,,,0.4554432610813923,1640,1960,0,,WHITE,,,0,,WHITE,True,CORRECT,0.6072698999996646,607.2698999996646
7,20260325_141148,J,D,True,MANUAL,2,150,450,fixed_delta,0.033374705876577364,0.013109562710342202,,,,,0.4661987477805934,1678,1922,0,,WHITE,,,0,,WHITE,True,CORRECT,0.5749390999990283,574.9390999990283
