participant_id,run_timestamp,key_black,key_white,keymap_flip,block,block_idx,trial,global_trial,difficulty_mode,delta_fixed_mean,delta_fixed_sd,delta_stair_realised,delta_stair_mean,delta_step_down_used,delta_step_up_used,vblack_prop,n_vblack,n_vwhite,auto_on,aid_accuracy_setting,stimulus,aid_label,aid_correct,aid_onset_ms,aid_onset_ms_rel,response,correct,feedback,rt_s,rt_ms
7,20260325_141148,J,D,True,MANUAL,2,1,301,fixed_delta,0.033374705876577364,0.013109562710342202,,,,,0.4738479270736893,1706,1894,0,,WHITE,,,0,,WHITE,True,CORRECT,1.273743399997329,1273.743399997329
7,20260325_141148,J,D,True,MANUAL,2,2,302,fixed_delta,0.033374705876577364,0.013109562710342202,,,,,0.5302914454992761,1909,1691,0,,BLACK,,,0,,BLACK,True,CORRECT,0.8594454000012774,859.4454000012774
7,20260325_141148,J,D,True,MANUAL,2,3,303,fixed_delta,0.033374705876577364,0.013109562710342202,,,,,0.4839499014321264,1742,1858,0,,WHITE,,,0,,BLACK,False,INCORRECT,0.6169230999985302,616.9230999985302
7,20260325_141148,J,D,True,MANUAL,2,4,304,fixed_delta,0.033374705876577364,0.013109562710342202,,,,,0.4641290054361916,1671,1929,0,,WHITE,,,0,,WHITE,True,CORRECT,0.5056120000008377,505.6120000008377
7,20260325_141148,J,D,True,MANUAL,2,5,305,fixed_delta,0.033374705876577364,0.013109562710342202,,,,,0.5333655401204472,1920,1680,0,,BLACK,,,0,,BLACK,True,CORRECT,0.5055089999987104,505.50899999871035
7,20260325_141148,J,D,True,MANUAL,2,6,306,fixed_delta,0.033374705876577364,0.013109562710342202,,,,,0.46817017646265546,1685,1915,0,,WHITE,,,0,,BLACK,False,INCORRECT,0.9294355000020005,929.4355000020005
7,20260325_141148,J,D,True,MANUAL,2,7,307,fixed_delta,0.033374705876577364,0.013109562710342202,,,,,0.5102545504555936,1837,1763,0,,BLACK,,,0,,WHITE,False,INCORRECT,1.7861874000009266,1786.1874000009266
7,20260325_141148,J,D,True,MANUAL,2,8,308,fixed_delta,0.033374705876577364,0.013109562710342202,,,,,0.5392632091891921,1941,1659,0,,BLACK,,,0,,WHITE,False,INCORRECT,0.9543044000020018,954.3044000020018
7,20260325_141148,J,D,True,MANUAL,2,9,309,fixed_delta,0.033374705876577364,0.013109562710342202,,,,,0.5499294466123336,1980,1620,0,,BLACK,,,0,,BLACK,True,CORRECT,1.5715773000010813,1571.5773000010813
7,20260325_141148,J,D,True,MANUAL,2,10,310,fixed_delta,0.033374705876577364,0.013109562710342202,,,,,0.4821804519767631,1736,1864,0,,WHITE,,,0,,BLACK,False,INCORRECT,1.6003404000002774,1600.3404000002774
7,20260325_141148,J,D,True,MANUAL,2,11,311,fixed_delta,0.033374705876577364,0.013109562710342202,,,,,0.5276431395424493,1900,1700,0,,BLACK,,,0,,WHITE,False,INCORRECT,0.7049858999998833,704.9858999998833
7,20260325_141148,J,D,True,MANUAL,2,12,312,fixed_delta,0.033374705876577364,0.013109562710342202,,,,,0.5314761210216556,1913,1687,0,,BLACK,,,0,,BLACK,True,CORRECT,1.0954514000004565,1095.4514000004565
7,20260325_141148,J,D,True,MANUAL,2,13,313,fixed_delta,0.033374705876577364,0.013109562710342202,,,,,0.5302728634936862,1909,1691,0,,BLACK,,,0,,WHITE,False,INCORRECT,0.7959139000013238,795.9139000013238
7,20260325_141148,J,D,True,MANUAL,2,14,314,fixed_delta,0.033374705876577364,0.013109562710342202,,,,,0.4894796589477301,1762,1838,0,,WHITE,,,0,,BLACK,False,INCORRECT,1.1356809999997495,1135.6809999997495
7,20260325_141148,J,D,True,MANUAL,2,15,315,fixed_delta,0.033374705876577364,0.013109562710342202,,,,,0.5266609065498972,1896,1704,0,,BLACK,,,0,,BLACK,True,CORRECT,0.7038434999994934,703.8434999994934
7,20260325_141148,J,D,True,MANUAL,2,16,316,fixed_delta,0.033374705876577364,0.013109562710342202,,,,,0.459126122608143,1653,1947,0,,WHITE,,,0,,WHITE,True,CORRECT,0.6425831999986258,642.5831999986258
7,20260325_141148,J,D,True,MANUAL,2,17,317,fixed_delta,0.033374705876577364,0.013109562710342202,,,,,0.5424453988179776,1953,1647,0,,BLACK,,,0,,BLACK,True,CORRECT,0.6637742999992042,663.7742999992042
7,20260325_141148,J,D,True,MANUAL,2,18,318,fixed_delta,0.033374705876577364,0.013109562710342202,,,,,0.446155567586039,1606,1994,0,,WHITE,,,0,,WHITE,True,CORRECT,0.7455195000002277,745.5195000002277
7,20260325_141148,J,D,True,MANUAL,2,19,319,fixed_delta,0.033374705876577364,0.013109562710342202,,,,,0.48480686994347666,1745,1855,0,,WHITE,,,0,,BLACK,False,INCORRECT,0.6226730999987922,622.6730999987922
7,20260325_141148,J,D,True,MANUAL,2,20,320,fixed_delta,0.033374705876577364,0.013109562710342202,,,,,0.45810071532393914,1649,1951,0,,WHITE,,,0,,WHITE,True,CORRECT,0.7345996000003652,734.5996000003652
7,20260325_141148,J,D,True,MANUAL,2,21,321,fixed_delta,0.033374705876577364,0.013109562710342202,,,,,0.48236975388985937,1737,1863,0,,WHITE,,,0,,BLACK,False,INCORRECT,0.6232707999988634,623.2707999988634
7,20260325_141148,J,D,True,MANUAL,2,22,322,fixed_delta,0.033374705876577364,0.013109562710342202,,,,,0.5232550657757192,1884,1716,0,,BLACK,,,0,,BLACK,True,CORRECT,0.8594434999977238,859.4434999977238
7,20260325_141148,J,D,True,MANUAL,2,23,323,fixed_delta,0.033374705876577364,0.013109562710342202,,,,,0.5320695955602676,1915,1685,0,,BLACK,,,0,,BLACK,True,CORRECT,1.2145492999989074,1214.5492999989074
7,20260325_141148,J,D,True,MANUAL,2,24,324,fixed_delta,0.033374705876577364,0.013109562710342202,,,,,0.4846787678890719,1745,1855,0,,WHITE,,,0,,BLACK,False,INCORRECT,0.7950879000018176,795.0879000018176
7,20260325_141148,J,D,True,MANUAL,2,25,325,fixed_delta,0.033374705876577364,0.013109562710342202,,,,,0.485884992642139,1749,1851,0,,WHITE,,,0,,BLACK,False,INCORRECT,1.346911700002238,1346.911700002238
7,20260325_141148,J,D,True,MANUAL,2,26,326,fixed_delta,0.033374705876577364,0.013109562710342202,,,,,0.5449024446839352,1962,1638,0,,BLACK,,,0,,BLACK,True,CORRECT,1.6713015000023006,1671.3015000023006
7,20260325_141148,J,D,True,MANUAL,2,27,327,fixed_delta,0.033374705876577364,0.013109562710342202,,,,,0.5102009826051545,1837,1763,0,,BLACK,,,0,,WHITE,False,INCORRECT,0.7840188999980455,784.0188999980455
7,20260325_141148,J,D,True,MANUAL,2,28,328,fixed_delta,0.033374705876577364,0.013109562710342202,,,,,0.4628255498378828,1666,1934,0,,WHITE,,,0,,WHITE,True,CORRECT,0.8714510999998311,871.4510999998311
7,20260325_141148,J,D,True,MANUAL,2,29,329,fixed_delta,0.033374705876577364,0.013109562710342202,,,,,0.5044175830817511,1816,1784,0,,BLACK,,,0,,BLACK,True,CORRECT,0.7535701000015251,753.5701000015251
7,20260325_141148,J,D,True,MANUAL,2,30,330,fixed_delta,0.033374705876577364,0.013109562710342202,,,,,0.4703212405741442,1693,1907,0,,WHITE,,,0,,WHITE,True,CORRECT,0.948850400000083,948.850400000083
7,20260325_141148,J,D,True,MANUAL,2,31,331,fixed_delta,0.033374705876577364,0.013109562710342202,,,,,0.5379487023828797,1937,1663,0,,BLACK,,,0,,BLACK,True,CORRECT,1.1314859999984037,1131.4859999984037
7,20260325_141148,J,D,True,MANUAL,2,32,332,fixed_delta,0.033374705876577364,0.013109562710342202,,,,,0.5002777777777778,1801,1799,0,,BLACK,,,0,,BLACK,True,CORRECT,2.5837785999974585,2583.7785999974585
7,20260325_141148,J,D,True,MANUAL,2,33,333,fixed_delta,0.033374705876577364,0.013109562710342202,,,,,0.542327540218615,1952,1648,0,,BLACK,,,0,,BLACK,True,CORRECT,1.1891794000002847,1189.1794000002847
7,20260325_141148,J,D,True,MANUAL,2,34,334,fixed_delta,0.033374705876577364,0.013109562710342202,,,,,0.5331489255725487,1919,1681,0,,BLACK,,,0,,WHITE,False,INCORRECT,0.875998299998173,875.998299998173
7,20260325_141148,J,D,True,MANUAL,2,35,335,fixed_delta,0.033374705876577364,0.013109562710342202,,,,,0.4629802498167021,1667,1933,0,,WHITE,,,0,,BLACK,False,INCORRECT,1.006794799999625,1006.794799999625
7,20260325_141148,J,D,True,MANUAL,2,36,336,fixed_delta,0.033374705876577364,0.013109562710342202,,,,,0.5385497930213095,1939,1661,0,,BLACK,,,0,,BLACK,True,CORRECT,0.7015232000012475,701.5232000012475
7,20260325_141148,J,D,True,MANUAL,2,37,337,fixed_delta,0.033374705876577364,0.013109562710342202,,,,,0.4399543399944411,1584,2016,0,,WHITE,,,0,,WHITE,True,CORRECT,0.5922678000024462,592.2678000024462
7,20260325_141148,J,D,True,MANUAL,2,38,338,fixed_delta,0.033374705876577364,0.013109562710342202,,,,,0.48593131798321,1749,1851,0,,WHITE,,,0,,BLACK,False,INCORRECT,0.674044600000343,674.044600000343
7,20260325_141148,J,D,True,MANUAL,2,39,339,fixed_delta,0.033374705876577364,0.013109562710342202,,,,,0.45302243906763123,1631,1969,0,,WHITE,,,0,,BLACK,False,INCORRECT,0.9008187999970687,900.8187999970687
7,20260325_141148,J,D,True,MANUAL,2,40,340,fixed_delta,0.033374705876577364,0.013109562710342202,,,,,0.4567582835888114,1644,1956,0,,WHITE,,,0,,WHITE,True,CORRECT,0.49279930000193417,492.79930000193417
7,20260325_141148,J,D,True,MANUAL,2,41,341,fixed_delta,0.033374705876577364,0.013109562710342202,,,,,0.4688690629991784,1688,1912,0,,WHITE,,,0,,WHITE,True,CORRECT,0.5159954999980982,515.9954999980982
7,20260325_141148,J,D,True,MANUAL,2,42,342,fixed_delta,0.033374705876577364,0.013109562710342202,,,,,0.5235875157058093,1885,1715,0,,BLACK,,,0,,BLACK,True,CORRECT,0.7260333999984141,726.0333999984141
7,20260325_141148,J,D,True,MANUAL,2,43,343,fixed_delta,0.033374705876577364,0.013109562710342202,,,,,0.45215932810730763,1628,1972,0,,WHITE,,,0,,WHITE,True,CORRECT,0.5802421000007598,580.2421000007598
7,20260325_141148,J,D,True,MANUAL,2,44,344,fixed_delta,0.033374705876577364,0.013109562710342202,,,,,0.46464046191647684,1673,1927,0,,WHITE,,,0,,WHITE,True,CORRECT,1.1481858999977703,1148.1858999977703
7,20260325_141148,J,D,True,MANUAL,2,45,345,fixed_delta,0.033374705876577364,0.013109562710342202,,,,,0.5332596652804013,1920,1680,0,,BLACK,,,0,,BLACK,True,CORRECT,0.5770188000024064,577.0188000024064
7,20260325_141148,J,D,True,MANUAL,2,46,346,fixed_delta,0.033374705876577364,0.013109562710342202,,,,,0.5201866695818833,1873,1727,0,,BLACK,,,0,,BLACK,True,CORRECT,0.586566900001344,586.566900001344
7,20260325_141148,J,D,True,MANUAL,2,47,347,fixed_delta,0.033374705876577364,0.013109562710342202,,,,,0.5302077046552415,1909,1691,0,,BLACK,,,0,,BLACK,True,CORRECT,0.5984519999983604,598.4519999983604
7,20260325_141148,J,D,True,MANUAL,2,48,348,fixed_delta,0.033374705876577364,0.013109562710342202,,,,,0.5223859395753802,1881,1719,0,,BLACK,,,0,,BLACK,True,CORRECT,0.6879192999986117,687.9192999986117
7,20260325_141148,J,D,True,MANUAL,2,49,349,fixed_delta,0.033374705876577364,0.013109562710342202,,,,,0.5303887770567934,1909,1691,0,,BLACK,,,0,,BLACK,True,CORRECT,0.7374617000023136,737.4617000023136
7,20260325_141148,J,D,True,MANUAL,2,50,350,fixed_delta,0.033374705876577364,0.013109562710342202,,,,,0.530367346193448,1909,1691,0,,BLACK,,,0,,BLACK,True,CORRECT,0.510661500000424,510.661500000424
7,20260325_141148,J,D,True,MANUAL,2,51,351,fixed_delta,0.033374705876577364,0.013109562710342202,,,,,0.46371319234680847,1669,1931,0,,WHITE,,,0,,WHITE,True,CORRECT,0.7985241999995196,798.5241999995196
7,20260325_141148,J,D,True,MANUAL,2,52,352,fixed_delta,0.033374705876577364,0.013109562710342202,,,,,0.4750286887901969,1710,1890,0,,WHITE,,,0,,WHITE,True,CORRECT,0.7832918999993126,783.2918999993126
7,20260325_141148,J,D,True,MANUAL,2,53,353,fixed_delta,0.033374705876577364,0.013109562710342202,,,,,0.5219159170982277,1879,1721,0,,BLACK,,,0,,BLACK,True,CORRECT,0.5601462000013271,560.1462000013271
7,20260325_141148,J,D,True,MANUAL,2,54,354,fixed_delta,0.033374705876577364,0.013109562710342202,,,,,0.46648419640014704,1679,1921,0,,WHITE,,,0,,WHITE,True,CORRECT,0.7707363000008627,770.7363000008627
7,20260325_141148,J,D,True,MANUAL,2,55,355,fixed_delta,0.033374705876577364,0.013109562710342202,,,,,0.5465713142269083,1968,1632,0,,BLACK,,,0,,BLACK,True,CORRECT,0.5202865000028396,520.2865000028396
7,20260325_141148,J,D,True,MANUAL,2,56,356,fixed_delta,0.033374705876577364,0.013109562710342202,,,,,0.4767023288229973,1716,1884,0,,WHITE,,,0,,WHITE,True,CORRECT,0.6432529999983672,643.2529999983672
7,20260325_141148,J,D,True,MANUAL,2,57,357,fixed_delta,0.033374705876577364,0.013109562710342202,,,,,0.5291810678999741,1905,1695,0,,BLACK,,,0,,BLACK,True,CORRECT,0.49684699999852455,496.84699999852455
7,20260325_141148,J,D,True,MANUAL,2,58,358,fixed_delta,0.033374705876577364,0.013109562710342202,,,,,0.4680237393486614,1685,1915,0,,WHITE,,,0,,WHITE,True,CORRECT,0.5505424000002677,550.5424000002677
7,20260325_141148,J,D,True,MANUAL,2,59,359,fixed_delta,0.033374705876577364,0.013109562710342202,,,,,0.5405872993203479,1946,1654,0,,BLACK,,,0,,BLACK,True,CORRECT,0.49425350000092294,494.25350000092294
7,20260325_141148,J,D,True,MANUAL,2,60,360,fixed_delta,0.033374705876577364,0.013109562710342202,,,,,0.48571857518417466,1749,1851,0,,WHITE,,,0,,WHITE,True,CORRECT,0.5302287999984401,530.2287999984401
7,20260325_141148,J,D,True,MANUAL,2,61,361,fixed_delta,0.033374705876577364,0.013109562710342202,,,,,0.5262801525684454,1895,1705,0,,BLACK,,,0,,WHITE,False,INCORRECT,0.6696723999993992,669.6723999993992
7,20260325_141148,J,D,True,MANUAL,2,62,362,fixed_delta,0.033374705876577364,0.013109562710342202,,,,,0.5048473473338613,1817,1783,0,,BLACK,,,0,,WHITE,False,INCORRECT,0.48658160000195494,486.58160000195494
7,20260325_141148,J,D,True,MANUAL,2,63,363,fixed_delta,0.033374705876577364,0.013109562710342202,,,,,0.4719243606803785,1699,1901,0,,WHITE,,,0,,WHITE,True,CORRECT,0.5120783999991545,512.0783999991545
7,20260325_141148,J,D,True,MANUAL,2,64,364,fixed_delta,0.033374705876577364,0.013109562710342202,,,,,0.5264272860798679,1895,1705,0,,BLACK,,,0,,BLACK,True,CORRECT,0.7658007999998517,765.8007999998517
7,20260325_141148,J,D,True,MANUAL,2,65,365,fixed_delta,0.033374705876577364,0.013109562710342202,,,,,0.5449611851204521,1962,1638,0,,BLACK,,,0,,BLACK,True,CORRECT,0.9729003000029479,972.9003000029479
7,20260325_141148,J,D,True,MANUAL,2,66,366,fixed_delta,0.033374705876577364,0.013109562710342202,,,,,0.48950489227919686,1762,1838,0,,WHITE,,,0,,WHITE,True,CORRECT,0.6912421999986691,691.2421999986691
7,20260325_141148,J,D,True,MANUAL,2,67,367,fixed_delta,0.033374705876577364,0.013109562710342202,,,,,0.4767243873791893,1716,1884,0,,WHITE,,,0,,WHITE,True,CORRECT,0.9508886000003258,950.8886000003258
7,20260325_141148,J,D,True,MANUAL,2,68,368,fixed_delta,0.033374705876577364,0.013109562710342202,,,,,0.5453673020196436,1963,1637,0,,BLACK,,,0,,BLACK,True,CORRECT,1.2298406000008981,1229.8406000008981
7,20260325_141148,J,D,True,MANUAL,2,69,369,fixed_delta,0.033374705876577364,0.013109562710342202,,,,,0.4700846762004071,1692,1908,0,,WHITE,,,0,,WHITE,True,CORRECT,0.7342013000015868,734.2013000015868
7,20260325_141148,J,D,True,MANUAL,2,70,370,fixed_delta,0.033374705876577364,0.013109562710342202,,,,,0.5254728150930871,1892,1708,0,,BLACK,,,0,,BLACK,True,CORRECT,0.6257130000012694,625.7130000012694
7,20260325_141148,J,D,True,MANUAL,2,71,371,fixed_delta,0.033374705876577364,0.013109562710342202,,,,,0.5360604329861245,1930,1670,0,,BLACK,,,0,,BLACK,True,CORRECT,0.6464334999982384,646.4334999982384
7,20260325_141148,J,D,True,MANUAL,2,72,372,fixed_delta,0.033374705876577364,0.013109562710342202,,,,,0.4814212402551041,1733,1867,0,,WHITE,,,0,,WHITE,True,CORRECT,0.8941835000005085,894.1835000005085
7,20260325_141148,J,D,True,MANUAL,2,73,373,fixed_delta,0.033374705876577364,0.013109562710342202,,,,,0.5339330365146885,1922,1678,0,,BLACK,,,0,,BLACK,True,CORRECT,1.6803061999999045,1680.3061999999045
7,20260325_141148,J,D,True,MANUAL,2,74,374,fixed_delta,0.033374705876577364,0.013109562710342202,,,,,0.4580133760996993,1649,1951,0,,WHITE,,,0,,WHITE,True,CORRECT,0.6632948999977089,663.2948999977089
7,20260325_141148,J,D,True,MANUAL,2,75,375,fixed_delta,0.033374705876577364,0.013109562710342202,,,,,0.5092962901476417,1833,1767,0,,BLACK,,,0,,BLACK,True,CORRECT,0.6252667000007932,625.2667000007932
7,20260325_141148,J,D,True,MANUAL,2,76,376,fixed_delta,0.033374705876577364,0.013109562710342202,,,,,0.47577077176730626,1713,1887,0,,WHITE,,,0,,WHITE,True,CORRECT,0.625087700002041,625.087700002041
7,20260325_141148,J,D,True,MANUAL,2,77,377,fixed_delta,0.033374705876577364,0.013109562710342202,,,,,0.4383100891090799,1578,2022,0,,WHITE,,,0,,WHITE,True,CORRECT,0.5487462999990385,548.7462999990385
7,20260325_141148,J,D,True,MANUAL,2,78,378,fixed_delta,0.033374705876577364,0.013109562710342202,,,,,0.4812592600646232,1733,1867,0,,WHITE,,,0,,WHITE,True,CORRECT,1.194146699999692,1194.146699999692
7,20260325_141148,J,D,True,MANUAL,2,79,379,fixed_delta,0.033374705876577364,0.013109562710342202,,,,,0.49758407649065983,1791,1809,0,,WHITE,,,0,,WHITE,True,CORRECT,0.6012603999988642,601.2603999988642
7,20260325_141148,J,D,True,MANUAL,2,80,380,fixed_delta,0.033374705876577364,0.013109562710342202,,,,,0.5466648715679411,1968,1632,0,,BLACK,,,0,,WHITE,False,INCORRECT,0.519089299999905,519.089299999905
7,20260325_141148,J,D,True,MANUAL,2,81,381,fixed_delta,0.033374705876577364,0.013109562710342202,,,,,0.5367778101550719,1932,1668,0,,BLACK,,,0,,BLACK,True,CORRECT,0.5991792999993777,599.1792999993777
7,20260325_141148,J,D,True,MANUAL,2,82,382,fixed_delta,0.033374705876577364,0.013109562710342202,,,,,0.5348789749289555,1926,1674,0,,BLACK,,,0,,WHITE,False,INCORRECT,0.875780999998824,875.780999998824
7,20260325_141148,J,D,True,MANUAL,2,83,383,fixed_delta,0.033374705876577364,0.013109562710342202,,,,,0.5395764261336988,1942,1658,0,,BLACK,,,0,,WHITE,False,INCORRECT,1.4434103000021423,1443.4103000021423
7,20260325_141148,J,D,True,MANUAL,2,84,384,fixed_delta,0.033374705876577364,0.013109562710342202,,,,,0.5123801537964355,1845,1755,0,,BLACK,,,0,,BLACK,True,CORRECT,0.6755605999969703,675.5605999969703
7,20260325_141148,J,D,True,MANUAL,2,85,385,fixed_delta,0.033374705876577364,0.013109562710342202,,,,,0.45562565002740635,1640,1960,0,,WHITE,,,0,,WHITE,True,CORRECT,0.4937296000025526,493.7296000025526
7,20260325_141148,J,D,True,MANUAL,2,86,386,fixed_delta,0.033374705876577364,0.013109562710342202,,,,,0.5296318631321084,1907,1693,0,,BLACK,,,0,,WHITE,False,INCORRECT,0.9145681000009063,914.5681000009063
7,20260325_141148,J,D,True,MANUAL,2,87,387,fixed_delta,0.033374705876577364,0.013109562710342202,,,,,0.5189474596558215,1868,1732,0,,BLACK,,,0,,BLACK,True,CORRECT,0.5265057999968121,526.5057999968121
7,20260325_141148,J,D,True,MANUAL,2,88,388,fixed_delta,0.033374705876577364,0.013109562710342202,,,,,0.5429628050377919,1955,1645,0,,BLACK,,,0,,WHITE,False,INCORRECT,0.9933428000003914,993.3428000003914
7,20260325_141148,J,D,True,MANUAL,2,89,389,fixed_delta,0.033374705876577364,0.013109562710342202,,,,,0.4625639600281532,1665,1935,0,,WHITE,,,0,,WHITE,True,CORRECT,2.0512769000015396,2051.2769000015396
7,20260325_141148,J,D,True,MANUAL,2,90,390,fixed_delta,0.033374705876577364,0.013109562710342202,,,,,0.43855324250638794,1579,2021,0,,WHITE,,,0,,WHITE,True,CORRECT,0.7699800000009418,769.9800000009418
7,20260325_141148,J,D,True,MANUAL,2,91,391,fixed_delta,0.033374705876577364,0.013109562710342202,,,,,0.5351248668362311,1926,1674,0,,BLACK,,,0,,BLACK,True,CORRECT,0.6085322999970231,608.5322999970231
7,20260325_141148,J,D,True,MANUAL,2,92,392,fixed_delta,0.033374705876577364,0.013109562710342202,,,,,0.5323775628827186,1917,1683,0,,BLACK,,,0,,BLACK,True,CORRECT,1.1024122000017087,1102.4122000017087
7,20260325_141148,J,D,True,MANUAL,2,93,393,fixed_delta,0.033374705876577364,0.013109562710342202,,,,,0.4535970430306317,1633,1967,0,,WHITE,,,0,,WHITE,True,CORRECT,0.9087234999969951,908.7234999969951
7,20260325_141148,J,D,True,MANUAL,2,94,394,fixed_delta,0.033374705876577364,0.013109562710342202,,,,,0.5550626979765821,1998,1602,0,,BLACK,,,0,,BLACK,True,CORRECT,0.6563000000023749,656.3000000023749
7,20260325_141148,J,D,True,MANUAL,2,95,395,fixed_delta,0.033374705876577364,0.013109562710342202,,,,,0.54567709359881,1964,1636,0,,BLACK,,,0,,BLACK,True,CORRECT,0.4866013999999268,486.6013999999268
7,20260325_141148,J,D,True,MANUAL,2,96,396,fixed_delta,0.033374705876577364,0.013109562710342202,,,,,0.4849611915531186,1746,1854,0,,WHITE,,,0,,WHITE,True,CORRECT,0.46167480000076466,461.67480000076466
7,20260325_141148,J,D,True,MANUAL,2,97,397,fixed_delta,0.033374705876577364,0.013109562710342202,,,,,0.4657668516907777,1677,1923,0,,WHITE,,,0,,BLACK,False,INCORRECT,0.5954987000004621,595.4987000004621
7,20260325_141148,J,D,True,MANUAL,2,98,398,fixed_delta,0.033374705876577364,0.013109562710342202,,,,,0.4816233726892054,1734,1866,0,,WHITE,,,0,,WHITE,True,CORRECT,0.9246821999986423,924.6821999986423
7,20260325_141148,J,D,True,MANUAL,2,99,399,fixed_delta,0.033374705876577364,0.013109562710342202,,,,,0.4613560697084644,1661,1939,0,,WHITE,,,0,,WHITE,True,CORRECT,0.7203282999980729,720.3282999980729
7,20260325_141148,J,D,True,MANUAL,2,100,400,fixed_delta,0.033374705876577364,0.013109562710342202,,,,,0.4661496231236213,1678,1922,0,,WHITE,,,0,,BLACK,False,INCORRECT,0.6298688000024413,629.8688000024413
7,20260325_141148,J,D,True,MANUAL,2,101,401,fixed_delta,0.033374705876577364,0.013109562710342202,,,,,0.4729274925394481,1703,1897,0,,WHITE,,,0,,WHITE,True,CORRECT,0.6466467999998713,646.6467999998713
7,20260325_141148,J,D,True,MANUAL,2,102,402,fixed_delta,0.033374705876577364,0.013109562710342202,,,,,0.46886286248813425,1688,1912,0,,WHITE,,,0,,BLACK,False,INCORRECT,0.591397499996674,591.397499996674
7,20260325_141148,J,D,True,MANUAL,2,103,403,fixed_delta,0.033374705876577364,0.013109562710342202,,,,,0.5465126129802291,1967,1633,0,,BLACK,,,0,,BLACK,True,CORRECT,0.6093910999989021,609.3910999989021
7,20260325_141148,J,D,True,MANUAL,2,104,404,fixed_delta,0.033374705876577364,0.013109562710342202,,,,,0.4536544280510407,1633,1967,0,,WHITE,,,0,,WHITE,True,CORRECT,0.6092677000015101,609.2677000015101
7,20260325_141148,J,D,True,MANUAL,2,105,405,fixed_delta,0.033374705876577364,0.013109562710342202,,,,,0.44672388021620324,1608,1992,0,,WHITE,,,0,,WHITE,True,CORRECT,0.5602360000011686,560.2360000011686
7,20260325_141148,J,D,True,MANUAL,2,106,406,fixed_delta,0.033374705876577364,0.013109562710342202,,,,,0.4927877836376647,1774,1826,0,,WHITE,,,0,,BLACK,False,INCORRECT,0.5125465999990411,512.5465999990411
7,20260325_141148,J,D,True,MANUAL,2,107,407,fixed_delta,0.033374705876577364,0.013109562710342202,,,,,0.5439971017748044,1958,1642,0,,BLACK,,,0,,WHITE,False,INCORRECT,0.5256257000000915,525.6257000000915
7,20260325_141148,J,D,True,MANUAL,2,108,408,fixed_delta,0.033374705876577364,0.013109562710342202,,,,,0.5460764839176665,1966,1634,0,,BLACK,,,0,,WHITE,False,INCORRECT,4.367335999999341,4367.335999999341
7,20260325_141148,J,D,True,MANUAL,2,109,409,fixed_delta,0.033374705876577364,0.013109562710342202,,,,,0.5596400633592045,2015,1585,0,,BLACK,,,0,,BLACK,True,CORRECT,0.7178576000005705,717.8576000005705
7,20260325_141148,J,D,True,MANUAL,2,110,410,fixed_delta,0.033374705876577364,0.013109562710342202,,,,,0.5261556259785181,1894,1706,0,,BLACK,,,0,,WHITE,False,INCORRECT,1.0216577999999572,1021.6577999999572
7,20260325_141148,J,D,True,MANUAL,2,111,411,fixed_delta,0.033374705876577364,0.013109562710342202,,,,,0.5244780757181818,1888,1712,0,,BLACK,,,0,,BLACK,True,CORRECT,0.7988968999998178,798.8968999998178
7,20260325_141148,J,D,True,MANUAL,2,112,412,fixed_delta,0.033374705876577364,0.013109562710342202,,,,,0.46956426420425834,1690,1910,0,,WHITE,,,0,,WHITE,True,CORRECT,0.7643394000006083,764.3394000006083
7,20260325_141148,J,D,True,MANUAL,2,113,413,fixed_delta,0.033374705876577364,0.013109562710342202,,,,,0.4744974711826753,1708,1892,0,,WHITE,,,0,,WHITE,True,CORRECT,0.8475725000025705,847.5725000025705
7,20260325_141148,J,D,True,MANUAL,2,114,414,fixed_delta,0.033374705876577364,0.013109562710342202,,,,,0.4616526196012995,1662,1938,0,,WHITE,,,0,,WHITE,True,CORRECT,0.8422100000025239,842.2100000025239
7,20260325_141148,J,D,True,MANUAL,2,115,415,fixed_delta,0.033374705876577364,0.013109562710342202,,,,,0.5237751185963085,1886,1714,0,,BLACK,,,0,,BLACK,True,CORRECT,0.6235553000005893,623.5553000005893
7,20260325_141148,J,D,True,MANUAL,2,116,416,fixed_delta,0.033374705876577364,0.013109562710342202,,,,,0.4741265667089857,1707,1893,0,,WHITE,,,0,,WHITE,True,CORRECT,0.5125458000002254,512.5458000002254
7,20260325_141148,J,D,True,MANUAL,2,117,417,fixed_delta,0.033374705876577364,0.013109562710342202,,,,,0.5272079231735928,1898,1702,0,,BLACK,,,0,,BLACK,True,CORRECT,0.5355965000017022,535.5965000017022
7,20260325_141148,J,D,True,MANUAL,2,118,418,fixed_delta,0.033374705876577364,0.013109562710342202,,,,,0.47789531138488966,1720,1880,0,,WHITE,,,0,,WHITE,True,CORRECT,0.47857999999905587,478.5799999990559
7,20260325_141148,J,D,True,MANUAL,2,119,419,fixed_delta,0.033374705876577364,0.013109562710342202,,,,,0.48508130866981425,1746,1854,0,,WHITE,,,0,,BLACK,False,INCORRECT,0.48371959999713,483.71959999713
7,20260325_141148,J,D,True,MANUAL,2,120,420,fixed_delta,0.033374705876577364,0.013109562710342202,,,,,0.5078019009018393,1828,1772,0,,BLACK,,,0,,WHITE,False,INCORRECT,0.7421328999989782,742.1328999989782
7,20260325_141148,J,D,True,MANUAL,2,121,421,fixed_delta,0.033374705876577364,0.013109562710342202,,,,,0.5515109283108909,1985,1615,0,,BLACK,,,0,,BLACK,True,CORRECT,0.6438583999988623,643.8583999988623
7,20260325_141148,J,D,True,MANUAL,2,122,422,fixed_delta,0.033374705876577364,0.013109562710342202,,,,,0.49158555884495647,1770,1830,0,,WHITE,,,0,,WHITE,True,CORRECT,0.9021677999990061,902.1677999990061
7,20260325_141148,J,D,True,MANUAL,2,123,423,fixed_delta,0.033374705876577364,0.013109562710342202,,,,,0.43445274899628394,1564,2036,0,,WHITE,,,0,,WHITE,True,CORRECT,0.6814812999982678,681.4812999982678
7,20260325_141148,J,D,True,MANUAL,2,124,424,fixed_delta,0.033374705876577364,0.013109562710342202,,,,,0.5002777777777778,1801,1799,0,,BLACK,,,0,,BLACK,True,CORRECT,0.6421063999987382,642.1063999987382
7,20260325_141148,J,D,True,MANUAL,2,125,425,fixed_delta,0.033374705876577364,0.013109562710342202,,,,,0.4708867083959682,1695,1905,0,,WHITE,,,0,,WHITE,True,CORRECT,0.5420880999990914,542.0880999990914
7,20260325_141148,J,D,True,MANUAL,2,126,426,fixed_delta,0.033374705876577364,0.013109562710342202,,,,,0.5409951141723919,1948,1652,0,,BLACK,,,0,,BLACK,True,CORRECT,0.5718965999985812,571.8965999985812
7,20260325_141148,J,D,True,MANUAL,2,127,427,fixed_delta,0.033374705876577364,0.013109562710342202,,,,,0.5442932711955166,1959,1641,0,,BLACK,,,0,,BLACK,True,CORRECT,0.5928377000018372,592.8377000018372
7,20260325_141148,J,D,True,MANUAL,2,128,428,fixed_delta,0.033374705876577364,0.013109562710342202,,,,,0.45932594898989065,1654,1946,0,,WHITE,,,0,,WHITE,True,CORRECT,0.6478404000008595,647.8404000008595
7,20260325_141148,J,D,True,MANUAL,2,129,429,fixed_delta,0.033374705876577364,0.013109562710342202,,,,,0.45183240002002834,1627,1973,0,,WHITE,,,0,,BLACK,False,INCORRECT,0.47936399999889545,479.36399999889545
7,20260325_141148,J,D,True,MANUAL,2,130,430,fixed_delta,0.033374705876577364,0.013109562710342202,,,,,0.5445221661771638,1960,1640,0,,BLACK,,,0,,BLACK,True,CORRECT,0.669243500000448,669.243500000448
7,20260325_141148,J,D,True,MANUAL,2,131,431,fixed_delta,0.033374705876577364,0.013109562710342202,,,,,0.45298689659951197,1631,1969,0,,WHITE,,,0,,BLACK,False,INCORRECT,0.7064277999998012,706.4277999998012
7,20260325_141148,J,D,True,MANUAL,2,132,432,fixed_delta,0.033374705876577364,0.013109562710342202,,,,,0.5324717629011648,1917,1683,0,,BLACK,,,0,,WHITE,False,INCORRECT,1.1016312000028847,1101.6312000028847
7,20260325_141148,J,D,True,MANUAL,2,133,433,fixed_delta,0.033374705876577364,0.013109562710342202,,,,,0.5556345444923725,2000,1600,0,,BLACK,,,0,,BLACK,True,CORRECT,0.7298324000003049,729.8324000003049
7,20260325_141148,J,D,True,MANUAL,2,134,434,fixed_delta,0.033374705876577364,0.013109562710342202,,,,,0.4726811825534215,1702,1898,0,,WHITE,,,0,,WHITE,True,CORRECT,0.8095055999983742,809.5055999983742
7,20260325_141148,J,D,True,MANUAL,2,135,435,fixed_delta,0.033374705876577364,0.013109562710342202,,,,,0.46787178219460246,1684,1916,0,,WHITE,,,0,,WHITE,True,CORRECT,1.2814521999971475,1281.4521999971475
7,20260325_141148,J,D,True,MANUAL,2,136,436,fixed_delta,0.033374705876577364,0.013109562710342202,,,,,0.47134586798538775,1697,1903,0,,WHITE,,,0,,BLACK,False,INCORRECT,0.7189780000007886,718.9780000007886
7,20260325_141148,J,D,True,MANUAL,2,137,437,fixed_delta,0.033374705876577364,0.013109562710342202,,,,,0.5263781236370245,1895,1705,0,,BLACK,,,0,,BLACK,True,CORRECT,0.7473442000009527,747.3442000009527
7,20260325_141148,J,D,True,MANUAL,2,138,438,fixed_delta,0.033374705876577364,0.013109562710342202,,,,,0.4815002939774968,1733,1867,0,,WHITE,,,0,,WHITE,True,CORRECT,1.2180654000003415,1218.0654000003415
7,20260325_141148,J,D,True,MANUAL,2,139,439,fixed_delta,0.033374705876577364,0.013109562710342202,,,,,0.4675927515360139,1683,1917,0,,WHITE,,,0,,WHITE,True,CORRECT,0.9173683000008168,917.3683000008168
7,20260325_141148,J,D,True,MANUAL,2,140,440,fixed_delta,0.033374705876577364,0.013109562710342202,,,,,0.45274378682779515,1630,1970,0,,WHITE,,,0,,WHITE,True,CORRECT,0.9621219000000565,962.1219000000565
7,20260325_141148,J,D,True,MANUAL,2,141,441,fixed_delta,0.033374705876577364,0.013109562710342202,,,,,0.46638861581252017,1679,1921,0,,WHITE,,,0,,WHITE,True,CORRECT,0.8898969000001671,889.8969000001671
7,20260325_141148,J,D,True,MANUAL,2,142,442,fixed_delta,0.033374705876577364,0.013109562710342202,,,,,0.44934631061844366,1618,1982,0,,WHITE,,,0,,WHITE,True,CORRECT,0.8779266000019561,877.9266000019561
7,20260325_141148,J,D,True,MANUAL,2,143,443,fixed_delta,0.033374705876577364,0.013109562710342202,,,,,0.5358986813990425,1929,1671,0,,BLACK,,,0,,BLACK,True,CORRECT,0.7428460999981326,742.8460999981326
7,20260325_141148,J,D,True,MANUAL,2,144,444,fixed_delta,0.033374705876577364,0.013109562710342202,,,,,0.46952511152084936,1690,1910,0,,WHITE,,,0,,WHITE,True,CORRECT,0.7115254999989702,711.5254999989702
7,20260325_141148,J,D,True,MANUAL,2,145,445,fixed_delta,0.033374705876577364,0.013109562710342202,,,,,0.5229597677551988,1883,1717,0,,BLACK,,,0,,BLACK,True,CORRECT,0.5956430000005639,595.6430000005639
7,20260325_141148,J,D,True,MANUAL,2,146,446,fixed_delta,0.033374705876577364,0.013109562710342202,,,,,0.46755499750065943,1683,1917,0,,WHITE,,,0,,WHITE,True,CORRECT,0.6320438000002468,632.0438000002468
7,20260325_141148,J,D,True,MANUAL,2,147,447,fixed_delta,0.033374705876577364,0.013109562710342202,,,,,0.4633291177893488,1668,1932,0,,WHITE,,,0,,WHITE,True,CORRECT,0.61142800000016,611.42800000016
7,20260325_141148,J,D,True,MANUAL,2,148,448,fixed_delta,0.033374705876577364,0.013109562710342202,,,,,0.5342242610501606,1923,1677,0,,BLACK,,,0,,BLACK,True,CORRECT,0.578692899998714,578.692899998714
7,20260325_141148,J,D,True,MANUAL,2,149,449,fixed_delta,0.033374705876577364,0.013109562710342202,,,,,0.4554432610813923,1640,1960,0,,WHITE,,,0,,WHITE,True,CORRECT,0.6072698999996646,607.2698999996646
7,20260325_141148,J,D,True,MANUAL,2,150,450,fixed_delta,0.033374705876577364,0.013109562710342202,,,,,0.4661987477805934,1678,1922,0,,WHITE,,,0,,WHITE,True,CORRECT,0.5749390999990283,574.9390999990283
7,20260325_141148,J,D,True,MANUAL,2,151,451,fixed_delta,0.033374705876577364,0.013109562710342202,,,,,0.5406594301664166,1946,1654,0,,BLACK,,,0,,BLACK,True,CORRECT,0.5540475999987393,554.0475999987393
7,20260325_141148,J,D,True,MANUAL,2,152,452,fixed_delta,0.033374705876577364,0.013109562710342202,,,,,0.542226522370627,1952,1648,0,,BLACK,,,0,,WHITE,False,INCORRECT,0.9758032000027015,975.8032000027015
7,20260325_141148,J,D,True,MANUAL,2,153,453,fixed_delta,0.033374705876577364,0.013109562710342202,,,,,0.5326178790282843,1917,1683,0,,BLACK,,,0,,BLACK,True,CORRECT,2.0325235999989673,2032.5235999989673
7,20260325_141148,J,D,True,MANUAL,2,154,454,fixed_delta,0.033374705876577364,0.013109562710342202,,,,,0.4778781965602412,1720,1880,0,,WHITE,,,0,,WHITE,True,CORRECT,0.7426522000023397,742.6522000023397
7,20260325_141148,J,D,True,MANUAL,2,155,455,fixed_delta,0.033374705876577364,0.013109562710342202,,,,,0.5364487115045582,1931,1669,0,,BLACK,,,0,,WHITE,False,INCORRECT,0.819831199998589,819.831199998589
7,20260325_141148,J,D,True,MANUAL,2,156,456,fixed_delta,0.033374705876577364,0.013109562710342202,,,,,0.5202256382620923,1873,1727,0,,BLACK,,,0,,BLACK,True,CORRECT,2.4542179000018223,2454.2179000018223
7,20260325_141148,J,D,True,MANUAL,2,157,457,fixed_delta,0.033374705876577364,0.013109562710342202,,,,,0.520710943745726,1875,1725,0,,BLACK,,,0,,WHITE,False,INCORRECT,0.8445017999983975,844.5017999983975
7,20260325_141148,J,D,True,MANUAL,2,158,458,fixed_delta,0.033374705876577364,0.013109562710342202,,,,,0.47809569543785513,1721,1879,0,,WHITE,,,0,,WHITE,True,CORRECT,0.7596650999985286,759.6650999985286
7,20260325_141148,J,D,True,MANUAL,2,159,459,fixed_delta,0.033374705876577364,0.013109562710342202,,,,,0.45504120058913156,1638,1962,0,,WHITE,,,0,,WHITE,True,CORRECT,0.6427963000023738,642.7963000023738
7,20260325_141148,J,D,True,MANUAL,2,160,460,fixed_delta,0.033374705876577364,0.013109562710342202,,,,,0.4680986489196835,1685,1915,0,,WHITE,,,0,,WHITE,True,CORRECT,0.6904508000006899,690.4508000006899
7,20260325_141148,J,D,True,MANUAL,2,161,461,fixed_delta,0.033374705876577364,0.013109562710342202,,,,,0.47167856298591887,1698,1902,0,,WHITE,,,0,,WHITE,True,CORRECT,3.081210500000452,3081.210500000452
7,20260325_141148,J,D,True,MANUAL,2,162,462,fixed_delta,0.033374705876577364,0.013109562710342202,,,,,0.5514108959369799,1985,1615,0,,BLACK,,,0,,BLACK,True,CORRECT,1.0483139000025403,1048.3139000025403
7,20260325_141148,J,D,True,MANUAL,2,163,463,fixed_delta,0.033374705876577364,0.013109562710342202,,,,,0.47232808562336975,1700,1900,0,,WHITE,,,0,,WHITE,True,CORRECT,0.6124907000012172,612.4907000012172
7,20260325_141148,J,D,True,MANUAL,2,164,464,fixed_delta,0.033374705876577364,0.013109562710342202,,,,,0.4730252491049294,1703,1897,0,,WHITE,,,0,,BLACK,False,INCORRECT,1.8524593000001914,1852.4593000001914
7,20260325_141148,J,D,True,MANUAL,2,165,465,fixed_delta,0.033374705876577364,0.013109562710342202,,,,,0.5439503818415988,1958,1642,0,,BLACK,,,0,,BLACK,True,CORRECT,0.8980117999999493,898.0117999999493
7,20260325_141148,J,D,True,MANUAL,2,166,466,fixed_delta,0.033374705876577364,0.013109562710342202,,,,,0.46452151332026426,1672,1928,0,,WHITE,,,0,,WHITE,True,CORRECT,0.634270500002458,634.270500002458
7,20260325_141148,J,D,True,MANUAL,2,167,467,fixed_delta,0.033374705876577364,0.013109562710342202,,,,,0.5365342846885933,1932,1668,0,,BLACK,,,0,,BLACK,True,CORRECT,0.6157069000000774,615.7069000000774
7,20260325_141148,J,D,True,MANUAL,2,168,468,fixed_delta,0.033374705876577364,0.013109562710342202,,,,,0.45369288760827364,1633,1967,0,,WHITE,,,0,,WHITE,True,CORRECT,0.582141099999717,582.141099999717
7,20260325_141148,J,D,True,MANUAL,2,169,469,fixed_delta,0.033374705876577364,0.013109562710342202,,,,,0.4573226344336001,1646,1954,0,,WHITE,,,0,,BLACK,False,INCORRECT,1.2254381999991892,1225.4381999991892
7,20260325_141148,J,D,True,MANUAL,2,170,470,fixed_delta,0.033374705876577364,0.013109562710342202,,,,,0.46510278064549454,1674,1926,0,,WHITE,,,0,,WHITE,True,CORRECT,1.4673798000003444,1467.3798000003444
7,20260325_141148,J,D,True,MANUAL,2,171,471,fixed_delta,0.033374705876577364,0.013109562710342202,,,,,0.47526283689561305,1711,1889,0,,WHITE,,,0,,BLACK,False,INCORRECT,1.1972376000012446,1197.2376000012446
7,20260325_141148,J,D,True,MANUAL,2,172,472,fixed_delta,0.033374705876577364,0.013109562710342202,,,,,0.47878595373883404,1724,1876,0,,WHITE,,,0,,WHITE,True,CORRECT,2.8872996999998577,2887.2996999998577
7,20260325_141148,J,D,True,MANUAL,2,173,473,fixed_delta,0.033374705876577364,0.013109562710342202,,,,,0.5134427312741711,1848,1752,0,,BLACK,,,0,,WHITE,False,INCORRECT,1.7227913999995508,1722.7913999995508
7,20260325_141148,J,D,True,MANUAL,2,174,474,fixed_delta,0.033374705876577364,0.013109562710342202,,,,,0.4669577682173035,1681,1919,0,,WHITE,,,0,,WHITE,True,CORRECT,1.9247214999995776,1924.7214999995776
7,20260325_141148,J,D,True,MANUAL,2,175,475,fixed_delta,0.033374705876577364,0.013109562710342202,,,,,0.5257358516563931,1893,1707,0,,BLACK,,,0,,BLACK,True,CORRECT,0.6866890000019339,686.6890000019339
7,20260325_141148,J,D,True,MANUAL,2,176,476,fixed_delta,0.033374705876577364,0.013109562710342202,,,,,0.5281491367540458,1901,1699,0,,BLACK,,,0,,BLACK,True,CORRECT,1.2431781999985105,1243.1781999985105
7,20260325_141148,J,D,True,MANUAL,2,177,477,fixed_delta,0.033374705876577364,0.013109562710342202,,,,,0.45066691354341615,1622,1978,0,,WHITE,,,0,,WHITE,True,CORRECT,0.9866943999986688,986.6943999986688
7,20260325_141148,J,D,True,MANUAL,2,178,478,fixed_delta,0.033374705876577364,0.013109562710342202,,,,,0.4684459560331855,1686,1914,0,,WHITE,,,0,,WHITE,True,CORRECT,0.9440781999983301,944.0781999983301
7,20260325_141148,J,D,True,MANUAL,2,179,479,fixed_delta,0.033374705876577364,0.013109562710342202,,,,,0.5236301212084198,1885,1715,0,,BLACK,,,0,,BLACK,True,CORRECT,0.611782799998764,611.782799998764
7,20260325_141148,J,D,True,MANUAL,2,180,480,fixed_delta,0.033374705876577364,0.013109562710342202,,,,,0.4811075194893387,1732,1868,0,,WHITE,,,0,,WHITE,True,CORRECT,0.6416757000006328,641.6757000006328
7,20260325_141148,J,D,True,MANUAL,2,181,481,fixed_delta,0.033374705876577364,0.013109562710342202,,,,,0.5228236138445889,1882,1718,0,,BLACK,,,0,,BLACK,True,CORRECT,0.6474038999986078,647.4038999986078
7,20260325_141148,J,D,True,MANUAL,2,182,482,fixed_delta,0.033374705876577364,0.013109562710342202,,,,,0.4595370340353135,1654,1946,0,,WHITE,,,0,,WHITE,True,CORRECT,0.5924022999970475,592.4022999970475
7,20260325_141148,J,D,True,MANUAL,2,183,483,fixed_delta,0.033374705876577364,0.013109562710342202,,,,,0.46610013380192,1678,1922,0,,WHITE,,,0,,WHITE,True,CORRECT,0.6734428000017942,673.4428000017942
7,20260325_141148,J,D,True,MANUAL,2,184,484,fixed_delta,0.033374705876577364,0.013109562710342202,,,,,0.5354644651692851,1928,1672,0,,BLACK,,,0,,BLACK,True,CORRECT,1.347839699999895,1347.839699999895
7,20260325_141148,J,D,True,MANUAL,2,185,485,fixed_delta,0.033374705876577364,0.013109562710342202,,,,,0.5202597989234202,1873,1727,0,,BLACK,,,0,,WHITE,False,INCORRECT,1.1106433000022662,1110.6433000022662
7,20260325_141148,J,D,True,MANUAL,2,186,486,fixed_delta,0.033374705876577364,0.013109562710342202,,,,,0.47253228232847844,1701,1899,0,,WHITE,,,0,,WHITE,True,CORRECT,0.5880159999978787,588.0159999978787
7,20260325_141148,J,D,True,MANUAL,2,187,487,fixed_delta,0.033374705876577364,0.013109562710342202,,,,,0.4603002548672514,1657,1943,0,,WHITE,,,0,,BLACK,False,INCORRECT,1.0268897999994806,1026.8897999994806
7,20260325_141148,J,D,True,MANUAL,2,188,488,fixed_delta,0.033374705876577364,0.013109562710342202,,,,,0.4530030827041216,1631,1969,0,,WHITE,,,0,,WHITE,True,CORRECT,1.717577399998845,1717.577399998845
7,20260325_141148,J,D,True,MANUAL,2,189,489,fixed_delta,0.033374705876577364,0.013109562710342202,,,,,0.462743174629187,1666,1934,0,,WHITE,,,0,,WHITE,True,CORRECT,0.6559811999977683,655.9811999977683
7,20260325_141148,J,D,True,MANUAL,2,190,490,fixed_delta,0.033374705876577364,0.013109562710342202,,,,,0.5315535911107641,1914,1686,0,,BLACK,,,0,,BLACK,True,CORRECT,0.6494093000001158,649.4093000001158
7,20260325_141148,J,D,True,MANUAL,2,191,491,fixed_delta,0.033374705876577364,0.013109562710342202,,,,,0.5265198450389219,1895,1705,0,,BLACK,,,0,,BLACK,True,CORRECT,1.2735798000030627,1273.5798000030627
7,20260325_141148,J,D,True,MANUAL,2,192,492,fixed_delta,0.033374705876577364,0.013109562710342202,,,,,0.4623998511423161,1665,1935,0,,WHITE,,,0,,WHITE,True,CORRECT,0.6632114999993064,663.2114999993064
7,20260325_141148,J,D,True,MANUAL,2,193,493,fixed_delta,0.033374705876577364,0.013109562710342202,,,,,0.5479596379002348,1973,1627,0,,BLACK,,,0,,BLACK,True,CORRECT,0.6138448999990942,613.8448999990942
7,20260325_141148,J,D,True,MANUAL,2,194,494,fixed_delta,0.033374705876577364,0.013109562710342202,,,,,0.5470015809426758,1969,1631,0,,BLACK,,,0,,BLACK,True,CORRECT,0.6547308999979577,654.7308999979577
7,20260325_141148,J,D,True,MANUAL,2,195,495,fixed_delta,0.033374705876577364,0.013109562710342202,,,,,0.4653033109083301,1675,1925,0,,WHITE,,,0,,WHITE,True,CORRECT,0.6796146000015142,679.6146000015142
7,20260325_141148,J,D,True,MANUAL,2,196,496,fixed_delta,0.033374705876577364,0.013109562710342202,,,,,0.5308901424916667,1911,1689,0,,BLACK,,,0,,BLACK,True,CORRECT,0.5106602000014391,510.6602000014391
7,20260325_141148,J,D,True,MANUAL,2,197,497,fixed_delta,0.033374705876577364,0.013109562710342202,,,,,0.4682085913349896,1686,1914,0,,WHITE,,,0,,WHITE,True,CORRECT,0.6483083999992232,648.3083999992232
7,20260325_141148,J,D,True,MANUAL,2,198,498,fixed_delta,0.033374705876577364,0.013109562710342202,,,,,0.47036970573106224,1693,1907,0,,WHITE,,,0,,WHITE,True,CORRECT,1.180788500001654,1180.788500001654
7,20260325_141148,J,D,True,MANUAL,2,199,499,fixed_delta,0.033374705876577364,0.013109562710342202,,,,,0.5375845180664349,1935,1665,0,,BLACK,,,0,,BLACK,True,CORRECT,0.9620208000014827,962.0208000014827
7,20260325_141148,J,D,True,MANUAL,2,200,500,fixed_delta,0.033374705876577364,0.013109562710342202,,,,,0.47153517478855994,1698,1902,0,,WHITE,,,0,,WHITE,True,CORRECT,0.6222950999981549,622.2950999981549
7,20260325_141148,J,D,True,MANUAL,2,201,501,fixed_delta,0.033374705876577364,0.013109562710342202,,,,,0.4795079162320593,1726,1874,0,,WHITE,,,0,,WHITE,True,CORRECT,0.8345282999980554,834.5282999980554
7,20260325_141148,J,D,True,MANUAL,2,202,502,fixed_delta,0.033374705876577364,0.013109562710342202,,,,,0.5632157365810532,2028,1572,0,,BLACK,,,0,,BLACK,True,CORRECT,0.6215106999989075,621.5106999989075
7,20260325_141148,J,D,True,MANUAL,2,203,503,fixed_delta,0.033374705876577364,0.013109562710342202,,,,,0.5453232608287645,1963,1637,0,,BLACK,,,0,,BLACK,True,CORRECT,0.6682801000024483,668.2801000024483
7,20260325_141148,J,D,True,MANUAL,2,204,504,fixed_delta,0.033374705876577364,0.013109562710342202,,,,,0.4519411569587469,1627,1973,0,,WHITE,,,0,,WHITE,True,CORRECT,0.7059417000018584,705.9417000018584
7,20260325_141148,J,D,True,MANUAL,2,205,505,fixed_delta,0.033374705876577364,0.013109562710342202,,,,,0.5136609398498866,1849,1751,0,,BLACK,,,0,,BLACK,True,CORRECT,0.4454562999999325,445.4562999999325
7,20260325_141148,J,D,True,MANUAL,2,206,506,fixed_delta,0.033374705876577364,0.013109562710342202,,,,,0.45981081938130813,1655,1945,0,,WHITE,,,0,,WHITE,True,CORRECT,0.8226131000010355,822.6131000010355
7,20260325_141148,J,D,True,MANUAL,2,207,507,fixed_delta,0.033374705876577364,0.013109562710342202,,,,,0.5363625354600504,1931,1669,0,,BLACK,,,0,,BLACK,True,CORRECT,0.613572700000077,613.572700000077
7,20260325_141148,J,D,True,MANUAL,2,208,508,fixed_delta,0.033374705876577364,0.013109562710342202,,,,,0.5379800890558817,1937,1663,0,,BLACK,,,0,,WHITE,False,INCORRECT,0.8084583999989263,808.4583999989263
7,20260325_141148,J,D,True,MANUAL,2,209,509,fixed_delta,0.033374705876577364,0.013109562710342202,,,,,0.5263883524709131,1895,1705,0,,BLACK,,,0,,BLACK,True,CORRECT,0.6368581999995513,636.8581999995513
7,20260325_141148,J,D,True,MANUAL,2,210,510,fixed_delta,0.033374705876577364,0.013109562710342202,,,,,0.4668952520502868,1681,1919,0,,WHITE,,,0,,WHITE,True,CORRECT,0.8082184999984747,808.2184999984747
7,20260325_141148,J,D,True,MANUAL,2,211,511,fixed_delta,0.033374705876577364,0.013109562710342202,,,,,0.4612462594848103,1660,1940,0,,WHITE,,,0,,WHITE,True,CORRECT,0.6909792000005837,690.9792000005837
7,20260325_141148,J,D,True,MANUAL,2,212,512,fixed_delta,0.033374705876577364,0.013109562710342202,,,,,0.504685338740588,1817,1783,0,,BLACK,,,0,,BLACK,True,CORRECT,0.8404205000006186,840.4205000006186
7,20260325_141148,J,D,True,MANUAL,2,213,513,fixed_delta,0.033374705876577364,0.013109562710342202,,,,,0.5481415999864528,1973,1627,0,,BLACK,,,0,,BLACK,True,CORRECT,0.7351577000008547,735.1577000008547
7,20260325_141148,J,D,True,MANUAL,2,214,514,fixed_delta,0.033374705876577364,0.013109562710342202,,,,,0.46826631259323026,1686,1914,0,,WHITE,,,0,,WHITE,True,CORRECT,0.7144444000005024,714.4444000005024
7,20260325_141148,J,D,True,MANUAL,2,215,515,fixed_delta,0.033374705876577364,0.013109562710342202,,,,,0.4853995008366021,1747,1853,0,,WHITE,,,0,,WHITE,True,CORRECT,1.3722178999996686,1372.2178999996686
7,20260325_141148,J,D,True,MANUAL,2,216,516,fixed_delta,0.033374705876577364,0.013109562710342202,,,,,0.47571086783451083,1713,1887,0,,WHITE,,,0,,WHITE,True,CORRECT,0.7053350999995018,705.3350999995018
7,20260325_141148,J,D,True,MANUAL,2,217,517,fixed_delta,0.033374705876577364,0.013109562710342202,,,,,0.5036768801224852,1813,1787,0,,BLACK,,,0,,BLACK,True,CORRECT,0.5707043000002159,570.7043000002159
7,20260325_141148,J,D,True,MANUAL,2,218,518,fixed_delta,0.033374705876577364,0.013109562710342202,,,,,0.5318185748993611,1915,1685,0,,BLACK,,,0,,BLACK,True,CORRECT,0.6390327000008256,639.0327000008256
7,20260325_141148,J,D,True,MANUAL,2,219,519,fixed_delta,0.033374705876577364,0.013109562710342202,,,,,0.5325388598493681,1917,1683,0,,BLACK,,,0,,BLACK,True,CORRECT,1.052136899998004,1052.136899998004
7,20260325_141148,J,D,True,MANUAL,2,220,520,fixed_delta,0.033374705876577364,0.013109562710342202,,,,,0.47981730835759506,1727,1873,0,,WHITE,,,0,,WHITE,True,CORRECT,0.7038944000014453,703.8944000014453
7,20260325_141148,J,D,True,MANUAL,2,221,521,fixed_delta,0.033374705876577364,0.013109562710342202,,,,,0.4908578035380591,1767,1833,0,,WHITE,,,0,,BLACK,False,INCORRECT,0.9813881999980367,981.3881999980367
7,20260325_141148,J,D,True,MANUAL,2,222,522,fixed_delta,0.033374705876577364,0.013109562710342202,,,,,0.5126806984580807,1846,1754,0,,BLACK,,,0,,BLACK,True,CORRECT,1.0095373000003747,1009.5373000003747
7,20260325_141148,J,D,True,MANUAL,2,223,523,fixed_delta,0.033374705876577364,0.013109562710342202,,,,,0.5181720946588506,1865,1735,0,,BLACK,,,0,,WHITE,False,INCORRECT,0.7180814000021201,718.0814000021201
7,20260325_141148,J,D,True,MANUAL,2,224,524,fixed_delta,0.033374705876577364,0.013109562710342202,,,,,0.518418742821273,1866,1734,0,,BLACK,,,0,,BLACK,True,CORRECT,0.547437399996852,547.437399996852
7,20260325_141148,J,D,True,MANUAL,2,225,525,fixed_delta,0.033374705876577364,0.013109562710342202,,,,,0.473007396795045,1703,1897,0,,WHITE,,,0,,WHITE,True,CORRECT,0.6088930000005348,608.8930000005348
7,20260325_141148,J,D,True,MANUAL,2,226,526,fixed_delta,0.033374705876577364,0.013109562710342202,,,,,0.44989543037899116,1620,1980,0,,WHITE,,,0,,WHITE,True,CORRECT,1.727340400000685,1727.340400000685
7,20260325_141148,J,D,True,MANUAL,2,227,527,fixed_delta,0.033374705876577364,0.013109562710342202,,,,,0.5335055305574142,1921,1679,0,,BLACK,,,0,,BLACK,True,CORRECT,0.8188752999994904,818.8752999994904
7,20260325_141148,J,D,True,MANUAL,2,228,528,fixed_delta,0.033374705876577364,0.013109562710342202,,,,,0.5148656557500241,1854,1746,0,,BLACK,,,0,,BLACK,True,CORRECT,0.7208217000006698,720.8217000006698
7,20260325_141148,J,D,True,MANUAL,2,229,529,fixed_delta,0.033374705876577364,0.013109562710342202,,,,,0.5501879656692148,1981,1619,0,,BLACK,,,0,,BLACK,True,CORRECT,0.5531778000004124,553.1778000004124
7,20260325_141148,J,D,True,MANUAL,2,230,530,fixed_delta,0.033374705876577364,0.013109562710342202,,,,,0.460198688241356,1657,1943,0,,WHITE,,,0,,WHITE,True,CORRECT,0.8051885000022594,805.1885000022594
7,20260325_141148,J,D,True,MANUAL,2,231,531,fixed_delta,0.033374705876577364,0.013109562710342202,,,,,0.4479672487520848,1613,1987,0,,WHITE,,,0,,WHITE,True,CORRECT,0.7094071999999869,709.4071999999869
7,20260325_141148,J,D,True,MANUAL,2,232,532,fixed_delta,0.033374705876577364,0.013109562710342202,,,,,0.46964104821635383,1691,1909,0,,WHITE,,,0,,WHITE,True,CORRECT,2.580854600000748,2580.854600000748
7,20260325_141148,J,D,True,MANUAL,2,233,533,fixed_delta,0.033374705876577364,0.013109562710342202,,,,,0.5360614098423971,1930,1670,0,,BLACK,,,0,,BLACK,True,CORRECT,0.7319681000008131,731.9681000008131
7,20260325_141148,J,D,True,MANUAL,2,234,534,fixed_delta,0.033374705876577364,0.013109562710342202,,,,,0.5250494996324868,1890,1710,0,,BLACK,,,0,,WHITE,False,INCORRECT,1.2941423000011127,1294.1423000011127
7,20260325_141148,J,D,True,MANUAL,2,235,535,fixed_delta,0.033374705876577364,0.013109562710342202,,,,,0.4719143692419049,1699,1901,0,,WHITE,,,0,,WHITE,True,CORRECT,4.333219899999676,4333.219899999676
7,20260325_141148,J,D,True,MANUAL,2,236,536,fixed_delta,0.033374705876577364,0.013109562710342202,,,,,0.4582834302342944,1650,1950,0,,WHITE,,,0,,WHITE,True,CORRECT,0.8296741999984079,829.6741999984079
7,20260325_141148,J,D,True,MANUAL,2,237,537,fixed_delta,0.033374705876577364,0.013109562710342202,,,,,0.4439723923415724,1598,2002,0,,WHITE,,,0,,WHITE,True,CORRECT,1.0932419999990088,1093.2419999990088
7,20260325_141148,J,D,True,MANUAL,2,238,538,fixed_delta,0.033374705876577364,0.013109562710342202,,,,,0.46384017411922296,1670,1930,0,,WHITE,,,0,,BLACK,False,INCORRECT,1.0760661999993317,1076.0661999993317
7,20260325_141148,J,D,True,MANUAL,2,239,539,fixed_delta,0.033374705876577364,0.013109562710342202,,,,,0.5293998333715855,1906,1694,0,,BLACK,,,0,,WHITE,False,INCORRECT,3.9268721000007645,3926.8721000007645
7,20260325_141148,J,D,True,MANUAL,2,240,540,fixed_delta,0.033374705876577364,0.013109562710342202,,,,,0.5142518429284445,1851,1749,0,,BLACK,,,0,,BLACK,True,CORRECT,0.6664605000005395,666.4605000005395
7,20260325_141148,J,D,True,MANUAL,2,241,541,fixed_delta,0.033374705876577364,0.013109562710342202,,,,,0.47112962850651247,1696,1904,0,,WHITE,,,0,,WHITE,True,CORRECT,0.6955674000018917,695.5674000018917
7,20260325_141148,J,D,True,MANUAL,2,242,542,fixed_delta,0.033374705876577364,0.013109562710342202,,,,,0.5212580038435872,1877,1723,0,,BLACK,,,0,,BLACK,True,CORRECT,0.703697099997953,703.697099997953
7,20260325_141148,J,D,True,MANUAL,2,243,543,fixed_delta,0.033374705876577364,0.013109562710342202,,,,,0.5095414825827976,1834,1766,0,,BLACK,,,0,,WHITE,False,INCORRECT,0.5894153999979608,589.4153999979608
7,20260325_141148,J,D,True,MANUAL,2,244,544,fixed_delta,0.033374705876577364,0.013109562710342202,,,,,0.536707894193665,1932,1668,0,,BLACK,,,0,,WHITE,False,INCORRECT,1.2084557999987737,1208.4557999987737
7,20260325_141148,J,D,True,MANUAL,2,245,545,fixed_delta,0.033374705876577364,0.013109562710342202,,,,,0.4498687595567966,1620,1980,0,,WHITE,,,0,,WHITE,True,CORRECT,0.639146500001516,639.146500001516
7,20260325_141148,J,D,True,MANUAL,2,246,546,fixed_delta,0.033374705876577364,0.013109562710342202,,,,,0.5472296487697691,1970,1630,0,,BLACK,,,0,,BLACK,True,CORRECT,0.5820104000013089,582.0104000013089
7,20260325_141148,J,D,True,MANUAL,2,247,547,fixed_delta,0.033374705876577364,0.013109562710342202,,,,,0.5333133160748731,1920,1680,0,,BLACK,,,0,,BLACK,True,CORRECT,0.6264041000031284,626.4041000031284
7,20260325_141148,J,D,True,MANUAL,2,248,548,fixed_delta,0.033374705876577364,0.013109562710342202,,,,,0.46716899932853173,1682,1918,0,,WHITE,,,0,,WHITE,True,CORRECT,0.6977772000027471,697.7772000027471
7,20260325_141148,J,D,True,MANUAL,2,249,549,fixed_delta,0.033374705876577364,0.013109562710342202,,,,,0.5349821668060514,1926,1674,0,,BLACK,,,0,,BLACK,True,CORRECT,0.6743214000016451,674.3214000016451
7,20260325_141148,J,D,True,MANUAL,2,250,550,fixed_delta,0.033374705876577364,0.013109562710342202,,,,,0.5458014013777908,1965,1635,0,,BLACK,,,0,,BLACK,True,CORRECT,0.8844809000001987,884.4809000001987
7,20260325_141148,J,D,True,MANUAL,2,251,551,fixed_delta,0.033374705876577364,0.013109562710342202,,,,,0.5456084343626278,1964,1636,0,,BLACK,,,0,,BLACK,True,CORRECT,0.8340781000006245,834.0781000006245
7,20260325_141148,J,D,True,MANUAL,2,252,552,fixed_delta,0.033374705876577364,0.013109562710342202,,,,,0.4506295628969789,1622,1978,0,,WHITE,,,0,,WHITE,True,CORRECT,0.6400112999981502,640.0112999981502
7,20260325_141148,J,D,True,MANUAL,2,253,553,fixed_delta,0.033374705876577364,0.013109562710342202,,,,,0.545878981287439,1965,1635,0,,BLACK,,,0,,BLACK,True,CORRECT,0.5984975999999733,598.4975999999733
7,20260325_141148,J,D,True,MANUAL,2,254,554,fixed_delta,0.033374705876577364,0.013109562710342202,,,,,0.4739863449000688,1706,1894,0,,WHITE,,,0,,WHITE,True,CORRECT,0.766577900001721,766.577900001721
7,20260325_141148,J,D,True,MANUAL,2,255,555,fixed_delta,0.033374705876577364,0.013109562710342202,,,,,0.4667128853241549,1680,1920,0,,WHITE,,,0,,WHITE,True,CORRECT,1.0050411000011081,1005.0411000011081
7,20260325_141148,J,D,True,MANUAL,2,256,556,fixed_delta,0.033374705876577364,0.013109562710342202,,,,,0.4408586377459264,1587,2013,0,,WHITE,,,0,,WHITE,True,CORRECT,1.8664160000007541,1866.4160000007541
7,20260325_141148,J,D,True,MANUAL,2,257,557,fixed_delta,0.033374705876577364,0.013109562710342202,,,,,0.5259399354979174,1893,1707,0,,BLACK,,,0,,WHITE,False,INCORRECT,1.4015677999996115,1401.5677999996115
7,20260325_141148,J,D,True,MANUAL,2,258,558,fixed_delta,0.033374705876577364,0.013109562710342202,,,,,0.453029340884172,1631,1969,0,,WHITE,,,0,,WHITE,True,CORRECT,0.5291741000000911,529.1741000000911
7,20260325_141148,J,D,True,MANUAL,2,259,559,fixed_delta,0.033374705876577364,0.013109562710342202,,,,,0.4747836544328812,1709,1891,0,,WHITE,,,0,,WHITE,True,CORRECT,0.8333996000001207,833.3996000001207
7,20260325_141148,J,D,True,MANUAL,2,260,560,fixed_delta,0.033374705876577364,0.013109562710342202,,,,,0.5309043527760758,1911,1689,0,,BLACK,,,0,,BLACK,True,CORRECT,0.628503299998556,628.503299998556
7,20260325_141148,J,D,True,MANUAL,2,261,561,fixed_delta,0.033374705876577364,0.013109562710342202,,,,,0.44147077361177767,1589,2011,0,,WHITE,,,0,,WHITE,True,CORRECT,0.619701100000384,619.701100000384
7,20260325_141148,J,D,True,MANUAL,2,262,562,fixed_delta,0.033374705876577364,0.013109562710342202,,,,,0.5442057548208011,1959,1641,0,,BLACK,,,0,,BLACK,True,CORRECT,0.6591731000007712,659.1731000007712
7,20260325_141148,J,D,True,MANUAL,2,263,563,fixed_delta,0.033374705876577364,0.013109562710342202,,,,,0.4435741550906015,1597,2003,0,,WHITE,,,0,,WHITE,True,CORRECT,0.6587819999986095,658.7819999986095
7,20260325_141148,J,D,True,MANUAL,2,264,564,fixed_delta,0.033374705876577364,0.013109562710342202,,,,,0.5331227080972695,1919,1681,0,,BLACK,,,0,,BLACK,True,CORRECT,1.1069557000009809,1106.9557000009809
7,20260325_141148,J,D,True,MANUAL,2,265,565,fixed_delta,0.033374705876577364,0.013109562710342202,,,,,0.45340598835737267,1632,1968,0,,WHITE,,,0,,WHITE,True,CORRECT,0.5760375000027125,576.0375000027125
7,20260325_141148,J,D,True,MANUAL,2,266,566,fixed_delta,0.033374705876577364,0.013109562710342202,,,,,0.4491798712707121,1617,1983,0,,WHITE,,,0,,WHITE,True,CORRECT,0.5977641999998013,597.7641999998013
7,20260325_141148,J,D,True,MANUAL,2,267,567,fixed_delta,0.033374705876577364,0.013109562710342202,,,,,0.46862922031911,1687,1913,0,,WHITE,,,0,,WHITE,True,CORRECT,1.1501730000018142,1150.1730000018142
7,20260325_141148,J,D,True,MANUAL,2,268,568,fixed_delta,0.033374705876577364,0.013109562710342202,,,,,0.5361887281213894,1930,1670,0,,BLACK,,,0,,BLACK,True,CORRECT,1.0999178999991273,1099.9178999991273
7,20260325_141148,J,D,True,MANUAL,2,269,569,fixed_delta,0.033374705876577364,0.013109562710342202,,,,,0.46973947266763677,1691,1909,0,,WHITE,,,0,,WHITE,True,CORRECT,0.5827018999989377,582.7018999989377
7,20260325_141148,J,D,True,MANUAL,2,270,570,fixed_delta,0.033374705876577364,0.013109562710342202,,,,,0.5560063549603006,2002,1598,0,,BLACK,,,0,,BLACK,True,CORRECT,0.5491903000001912,549.1903000001912
7,20260325_141148,J,D,True,MANUAL,2,271,571,fixed_delta,0.033374705876577364,0.013109562710342202,,,,,0.5372657224751568,1934,1666,0,,BLACK,,,0,,BLACK,True,CORRECT,0.7227673000015784,722.7673000015784
7,20260325_141148,J,D,True,MANUAL,2,272,572,fixed_delta,0.033374705876577364,0.013109562710342202,,,,,0.45897423460462056,1652,1948,0,,WHITE,,,0,,WHITE,True,CORRECT,0.554021299998567,554.021299998567
7,20260325_141148,J,D,True,MANUAL,2,273,573,fixed_delta,0.033374705876577364,0.013109562710342202,,,,,0.4470712393478993,1609,1991,0,,WHITE,,,0,,WHITE,True,CORRECT,0.6051934999995865,605.1934999995865
7,20260325_141148,J,D,True,MANUAL,2,274,574,fixed_delta,0.033374705876577364,0.013109562710342202,,,,,0.5424131085118822,1953,1647,0,,BLACK,,,0,,BLACK,True,CORRECT,0.5912485000008019,591.2485000008019
7,20260325_141148,J,D,True,MANUAL,2,275,575,fixed_delta,0.033374705876577364,0.013109562710342202,,,,,0.522880870119148,1882,1718,0,,BLACK,,,0,,BLACK,True,CORRECT,0.961899000001722,961.899000001722
7,20260325_141148,J,D,True,MANUAL,2,276,576,fixed_delta,0.033374705876577364,0.013109562710342202,,,,,0.47964755645676366,1727,1873,0,,WHITE,,,0,,WHITE,True,CORRECT,0.5453630999982124,545.3630999982124
7,20260325_141148,J,D,True,MANUAL,2,277,577,fixed_delta,0.033374705876577364,0.013109562710342202,,,,,0.5300036384220111,1908,1692,0,,BLACK,,,0,,BLACK,True,CORRECT,0.5432433999994828,543.2433999994828
7,20260325_141148,J,D,True,MANUAL,2,278,578,fixed_delta,0.033374705876577364,0.013109562710342202,,,,,0.5336437413317334,1921,1679,0,,BLACK,,,0,,WHITE,False,INCORRECT,1.0930011999989802,1093.0011999989802
7,20260325_141148,J,D,True,MANUAL,2,279,579,fixed_delta,0.033374705876577364,0.013109562710342202,,,,,0.5212302420459336,1876,1724,0,,BLACK,,,0,,BLACK,True,CORRECT,0.6376023999982863,637.6023999982863
7,20260325_141148,J,D,True,MANUAL,2,280,580,fixed_delta,0.033374705876577364,0.013109562710342202,,,,,0.4761155447576486,1714,1886,0,,WHITE,,,0,,WHITE,True,CORRECT,0.6726883000010275,672.6883000010275
7,20260325_141148,J,D,True,MANUAL,2,281,581,fixed_delta,0.033374705876577364,0.013109562710342202,,,,,0.5414600126834359,1949,1651,0,,BLACK,,,0,,BLACK,True,CORRECT,0.4993310999998357,499.3310999998357
7,20260325_141148,J,D,True,MANUAL,2,282,582,fixed_delta,0.033374705876577364,0.013109562710342202,,,,,0.5381144794520941,1937,1663,0,,BLACK,,,0,,BLACK,True,CORRECT,1.0212317000004987,1021.2317000004987
7,20260325_141148,J,D,True,MANUAL,2,283,583,fixed_delta,0.033374705876577364,0.013109562710342202,,,,,0.44551823361412124,1604,1996,0,,WHITE,,,0,,WHITE,True,CORRECT,0.766205900003115,766.205900003115
7,20260325_141148,J,D,True,MANUAL,2,284,584,fixed_delta,0.033374705876577364,0.013109562710342202,,,,,0.5186558260795401,1867,1733,0,,BLACK,,,0,,BLACK,True,CORRECT,0.9965252000001783,996.5252000001783
7,20260325_141148,J,D,True,MANUAL,2,285,585,fixed_delta,0.033374705876577364,0.013109562710342202,,,,,0.5433983893919436,1956,1644,0,,BLACK,,,0,,WHITE,False,INCORRECT,0.8016803999998956,801.6803999998956
7,20260325_141148,J,D,True,MANUAL,2,286,586,fixed_delta,0.033374705876577364,0.013109562710342202,,,,,0.5139993031760534,1850,1750,0,,BLACK,,,0,,WHITE,False,INCORRECT,0.5686502999997174,568.6502999997174
7,20260325_141148,J,D,True,MANUAL,2,287,587,fixed_delta,0.033374705876577364,0.013109562710342202,,,,,0.5566853764075731,2004,1596,0,,BLACK,,,0,,BLACK,True,CORRECT,0.8718015000013111,871.8015000013111
7,20260325_141148,J,D,True,MANUAL,2,288,588,fixed_delta,0.033374705876577364,0.013109562710342202,,,,,0.51176425695388,1842,1758,0,,BLACK,,,0,,WHITE,False,INCORRECT,0.6274080000002868,627.4080000002868
7,20260325_141148,J,D,True,MANUAL,2,289,589,fixed_delta,0.033374705876577364,0.013109562710342202,,,,,0.5226950709494514,1882,1718,0,,BLACK,,,0,,BLACK,True,CORRECT,0.8056591999993543,805.6591999993543
7,20260325_141148,J,D,True,MANUAL,2,290,590,fixed_delta,0.033374705876577364,0.013109562710342202,,,,,0.469155258989412,1689,1911,0,,WHITE,,,0,,BLACK,False,INCORRECT,0.9289895000001707,928.9895000001707
7,20260325_141148,J,D,True,MANUAL,2,291,591,fixed_delta,0.033374705876577364,0.013109562710342202,,,,,0.47588671211279276,1713,1887,0,,WHITE,,,0,,WHITE,True,CORRECT,0.7175114000019676,717.5114000019676
7,20260325_141148,J,D,True,MANUAL,2,292,592,fixed_delta,0.033374705876577364,0.013109562710342202,,,,,0.44417736963882126,1599,2001,0,,WHITE,,,0,,WHITE,True,CORRECT,0.6393549000022176,639.3549000022176
7,20260325_141148,J,D,True,MANUAL,2,293,593,fixed_delta,0.033374705876577364,0.013109562710342202,,,,,0.5333607854607699,1920,1680,0,,BLACK,,,0,,BLACK,True,CORRECT,0.5793750999982876,579.3750999982876
7,20260325_141148,J,D,True,MANUAL,2,294,594,fixed_delta,0.033374705876577364,0.013109562710342202,,,,,0.47820332055874365,1722,1878,0,,WHITE,,,0,,BLACK,False,INCORRECT,1.055515899999591,1055.515899999591
7,20260325_141148,J,D,True,MANUAL,2,295,595,fixed_delta,0.033374705876577364,0.013109562710342202,,,,,0.538301080260053,1938,1662,0,,BLACK,,,0,,BLACK,True,CORRECT,0.7317282000003615,731.7282000003615
7,20260325_141148,J,D,True,MANUAL,2,296,596,fixed_delta,0.033374705876577364,0.013109562710342202,,,,,0.46365203583902564,1669,1931,0,,WHITE,,,0,,WHITE,True,CORRECT,0.559376200002589,559.376200002589
7,20260325_141148,J,D,True,MANUAL,2,297,597,fixed_delta,0.033374705876577364,0.013109562710342202,,,,,0.5207271802840961,1875,1725,0,,BLACK,,,0,,BLACK,True,CORRECT,0.9137677999970037,913.7677999970037
7,20260325_141148,J,D,True,MANUAL,2,298,598,fixed_delta,0.033374705876577364,0.013109562710342202,,,,,0.5286593026609173,1903,1697,0,,BLACK,,,0,,BLACK,True,CORRECT,0.8310869999986608,831.0869999986608
7,20260325_141148,J,D,True,MANUAL,2,299,599,fixed_delta,0.033374705876577364,0.013109562710342202,,,,,0.5272606187691631,1898,1702,0,,BLACK,,,0,,BLACK,True,CORRECT,0.7377163999990444,737.7163999990444
7,20260325_141148,J,D,True,MANUAL,2,300,600,fixed_delta,0.033374705876577364,0.013109562710342202,,,,,0.44139202277173123,1589,2011,0,,WHITE,,,0,,WHITE,True,CORRECT,0.6871829999981856,687.1829999981856
7,20260325_141148,J,D,True,MANUAL,2,301,601,fixed_delta,0.033374705876577364,0.013109562710342202,,,,,0.5318098738542593,1915,1685,0,,BLACK,,,0,,BLACK,True,CORRECT,0.5426132000029611,542.6132000029611
7,20260325_141148,J,D,True,MANUAL,2,302,602,fixed_delta,0.033374705876577364,0.013109562710342202,,,,,0.530814749164071,1911,1689,0,,BLACK,,,0,,BLACK,True,CORRECT,0.6129327999988163,612.9327999988163
7,20260325_141148,J,D,True,MANUAL,2,303,603,fixed_delta,0.033374705876577364,0.013109562710342202,,,,,0.5654977144930963,2036,1564,0,,BLACK,,,0,,BLACK,True,CORRECT,0.5411659000019426,541.1659000019426
7,20260325_141148,J,D,True,MANUAL,2,304,604,fixed_delta,0.033374705876577364,0.013109562710342202,,,,,0.48843193053784434,1758,1842,0,,WHITE,,,0,,WHITE,True,CORRECT,0.811080999999831,811.080999999831
7,20260325_141148,J,D,True,MANUAL,2,305,605,fixed_delta,0.033374705876577364,0.013109562710342202,,,,,0.4542006943648764,1635,1965,0,,WHITE,,,0,,WHITE,True,CORRECT,0.633325099999638,633.325099999638
7,20260325_141148,J,D,True,MANUAL,2,306,606,fixed_delta,0.033374705876577364,0.013109562710342202,,,,,0.5481382551288363,1973,1627,0,,BLACK,,,0,,BLACK,True,CORRECT,0.5962056999997003,596.2056999997003
7,20260325_141148,J,D,True,MANUAL,2,307,607,fixed_delta,0.033374705876577364,0.013109562710342202,,,,,0.5352623420577486,1927,1673,0,,BLACK,,,0,,BLACK,True,CORRECT,0.445792700000311,445.792700000311
7,20260325_141148,J,D,True,MANUAL,2,308,608,fixed_delta,0.033374705876577364,0.013109562710342202,,,,,0.46173842742958177,1662,1938,0,,WHITE,,,0,,WHITE,True,CORRECT,0.509501900000032,509.50190000003204
7,20260325_141148,J,D,True,MANUAL,2,309,609,fixed_delta,0.033374705876577364,0.013109562710342202,,,,,0.533032557085557,1919,1681,0,,BLACK,,,0,,BLACK,True,CORRECT,0.44576950000191573,445.76950000191573
7,20260325_141148,J,D,True,MANUAL,2,310,610,fixed_delta,0.033374705876577364,0.013109562710342202,,,,,0.4750384871575331,1710,1890,0,,WHITE,,,0,,BLACK,False,INCORRECT,0.629178300001513,629.178300001513
7,20260325_141148,J,D,True,MANUAL,2,311,611,fixed_delta,0.033374705876577364,0.013109562710342202,,,,,0.4532417421530549,1632,1968,0,,WHITE,,,0,,WHITE,True,CORRECT,1.0689531999996689,1068.9531999996689
7,20260325_141148,J,D,True,MANUAL,2,312,612,fixed_delta,0.033374705876577364,0.013109562710342202,,,,,0.4609684051332416,1659,1941,0,,WHITE,,,0,,WHITE,True,CORRECT,0.7848653000000922,784.8653000000922
7,20260325_141148,J,D,True,MANUAL,2,313,613,fixed_delta,0.033374705876577364,0.013109562710342202,,,,,0.4526976975086346,1630,1970,0,,WHITE,,,0,,BLACK,False,INCORRECT,0.5106799999994109,510.67999999941094
7,20260325_141148,J,D,True,MANUAL,2,314,614,fixed_delta,0.033374705876577364,0.013109562710342202,,,,,0.4843476330348455,1744,1856,0,,WHITE,,,0,,WHITE,True,CORRECT,0.8080981999992218,808.0981999992218
7,20260325_141148,J,D,True,MANUAL,2,315,615,fixed_delta,0.033374705876577364,0.013109562710342202,,,,,0.5353865499139885,1927,1673,0,,BLACK,,,0,,BLACK,True,CORRECT,0.543771900000138,543.771900000138
7,20260325_141148,J,D,True,MANUAL,2,316,616,fixed_delta,0.033374705876577364,0.013109562710342202,,,,,0.487008107287729,1753,1847,0,,WHITE,,,0,,BLACK,False,INCORRECT,0.6258240999995905,625.8240999995905
7,20260325_141148,J,D,True,MANUAL,2,317,617,fixed_delta,0.033374705876577364,0.013109562710342202,,,,,0.4658488861532077,1677,1923,0,,WHITE,,,0,,WHITE,True,CORRECT,0.5878711999976076,587.8711999976076
7,20260325_141148,J,D,True,MANUAL,2,318,618,fixed_delta,0.033374705876577364,0.013109562710342202,,,,,0.4747116309324195,1709,1891,0,,WHITE,,,0,,BLACK,False,INCORRECT,0.5975961000003736,597.5961000003736
7,20260325_141148,J,D,True,MANUAL,2,319,619,fixed_delta,0.033374705876577364,0.013109562710342202,,,,,0.4640518301923904,1671,1929,0,,WHITE,,,0,,BLACK,False,INCORRECT,0.9649682999988727,964.9682999988727
7,20260325_141148,J,D,True,MANUAL,2,320,620,fixed_delta,0.033374705876577364,0.013109562710342202,,,,,0.47967302127621214,1727,1873,0,,WHITE,,,0,,WHITE,True,CORRECT,0.542302000001655,542.302000001655
7,20260325_141148,J,D,True,MANUAL,2,321,621,fixed_delta,0.033374705876577364,0.013109562710342202,,,,,0.5244851961224598,1888,1712,0,,BLACK,,,0,,BLACK,True,CORRECT,0.649792799998977,649.792799998977
7,20260325_141148,J,D,True,MANUAL,2,322,622,fixed_delta,0.033374705876577364,0.013109562710342202,,,,,0.5475267508663424,1971,1629,0,,BLACK,,,0,,WHITE,False,INCORRECT,0.6255649999984598,625.5649999984598
7,20260325_141148,J,D,True,MANUAL,2,323,623,fixed_delta,0.033374705876577364,0.013109562710342202,,,,,0.4750541763839639,1710,1890,0,,WHITE,,,0,,WHITE,True,CORRECT,0.6048158000012336,604.8158000012336
7,20260325_141148,J,D,True,MANUAL,2,324,624,fixed_delta,0.033374705876577364,0.013109562710342202,,,,,0.49155136274129657,1770,1830,0,,WHITE,,,0,,WHITE,True,CORRECT,1.0388832999997248,1038.8832999997248
7,20260325_141148,J,D,True,MANUAL,2,325,625,fixed_delta,0.033374705876577364,0.013109562710342202,,,,,0.5585631535199005,2011,1589,0,,BLACK,,,0,,BLACK,True,CORRECT,0.4852451000006113,485.2451000006113
7,20260325_141148,J,D,True,MANUAL,2,326,626,fixed_delta,0.033374705876577364,0.013109562710342202,,,,,0.5350732146792476,1926,1674,0,,BLACK,,,0,,BLACK,True,CORRECT,0.5903604999984964,590.3604999984964
7,20260325_141148,J,D,True,MANUAL,2,327,627,fixed_delta,0.033374705876577364,0.013109562710342202,,,,,0.45336721447714673,1632,1968,0,,WHITE,,,0,,WHITE,True,CORRECT,0.6547475999977905,654.7475999977905
7,20260325_141148,J,D,True,MANUAL,2,328,628,fixed_delta,0.033374705876577364,0.013109562710342202,,,,,0.46529563224282333,1675,1925,0,,WHITE,,,0,,WHITE,True,CORRECT,0.6159563000001071,615.9563000001071
7,20260325_141148,J,D,True,MANUAL,2,329,629,fixed_delta,0.033374705876577364,0.013109562710342202,,,,,0.49972222222222223,1799,1801,0,,WHITE,,,0,,WHITE,True,CORRECT,0.8002871999997296,800.2871999997296
7,20260325_141148,J,D,True,MANUAL,2,330,630,fixed_delta,0.033374705876577364,0.013109562710342202,,,,,0.5352728977213489,1927,1673,0,,BLACK,,,0,,BLACK,True,CORRECT,0.4970165000013367,497.0165000013367
7,20260325_141148,J,D,True,MANUAL,2,331,631,fixed_delta,0.033374705876577364,0.013109562710342202,,,,,0.5268590312866251,1897,1703,0,,BLACK,,,0,,BLACK,True,CORRECT,0.4468245999996725,446.8245999996725
7,20260325_141148,J,D,True,MANUAL,2,332,632,fixed_delta,0.033374705876577364,0.013109562710342202,,,,,0.4687519944834618,1688,1912,0,,WHITE,,,0,,WHITE,True,CORRECT,0.4981378999982553,498.1378999982553
7,20260325_141148,J,D,True,MANUAL,2,333,633,fixed_delta,0.033374705876577364,0.013109562710342202,,,,,0.5293161090052195,1906,1694,0,,BLACK,,,0,,BLACK,True,CORRECT,0.5542925999980071,554.2925999980071
7,20260325_141148,J,D,True,MANUAL,2,334,634,fixed_delta,0.033374705876577364,0.013109562710342202,,,,,0.4529389108324357,1631,1969,0,,WHITE,,,0,,WHITE,True,CORRECT,0.4475420999988273,447.5420999988273
7,20260325_141148,J,D,True,MANUAL,2,335,635,fixed_delta,0.033374705876577364,0.013109562710342202,,,,,0.5233505183331605,1884,1716,0,,BLACK,,,0,,WHITE,False,INCORRECT,0.4780254000033892,478.0254000033892
7,20260325_141148,J,D,True,MANUAL,2,336,636,fixed_delta,0.033374705876577364,0.013109562710342202,,,,,0.4754439375138968,1712,1888,0,,WHITE,,,0,,WHITE,True,CORRECT,0.42487899999832734,424.87899999832734
7,20260325_141148,J,D,True,MANUAL,2,337,637,fixed_delta,0.033374705876577364,0.013109562710342202,,,,,0.47828096154516037,1722,1878,0,,WHITE,,,0,,WHITE,True,CORRECT,0.8262758999990183,826.2758999990183
7,20260325_141148,J,D,True,MANUAL,2,338,638,fixed_delta,0.033374705876577364,0.013109562710342202,,,,,0.5002777777777778,1801,1799,0,,BLACK,,,0,,WHITE,False,INCORRECT,0.5006098999983806,500.60989999838057
7,20260325_141148,J,D,True,MANUAL,2,339,639,fixed_delta,0.033374705876577364,0.013109562710342202,,,,,0.5206110522823494,1874,1726,0,,BLACK,,,0,,WHITE,False,INCORRECT,0.3805715999988024,380.5715999988024
7,20260325_141148,J,D,True,MANUAL,2,340,640,fixed_delta,0.033374705876577364,0.013109562710342202,,,,,0.5341278730840752,1923,1677,0,,BLACK,,,0,,BLACK,True,CORRECT,0.4611512999981642,461.1512999981642
7,20260325_141148,J,D,True,MANUAL,2,341,641,fixed_delta,0.033374705876577364,0.013109562710342202,,,,,0.4444090923634574,1600,2000,0,,WHITE,,,0,,BLACK,False,INCORRECT,0.43511140000191517,435.1114000019152
7,20260325_141148,J,D,True,MANUAL,2,342,642,fixed_delta,0.033374705876577364,0.013109562710342202,,,,,0.456753281601275,1644,1956,0,,WHITE,,,0,,WHITE,True,CORRECT,0.5859151999975438,585.9151999975438
7,20260325_141148,J,D,True,MANUAL,2,343,643,fixed_delta,0.033374705876577364,0.013109562710342202,,,,,0.4679517186708012,1685,1915,0,,WHITE,,,0,,WHITE,True,CORRECT,0.6156878000001598,615.6878000001598
7,20260325_141148,J,D,True,MANUAL,2,344,644,fixed_delta,0.033374705876577364,0.013109562710342202,,,,,0.4472977783266615,1610,1990,0,,WHITE,,,0,,WHITE,True,CORRECT,0.8056066000026476,805.6066000026476
7,20260325_141148,J,D,True,MANUAL,2,345,645,fixed_delta,0.033374705876577364,0.013109562710342202,,,,,0.5362466544597109,1930,1670,0,,BLACK,,,0,,BLACK,True,CORRECT,0.6267894000011438,626.7894000011438
7,20260325_141148,J,D,True,MANUAL,2,346,646,fixed_delta,0.033374705876577364,0.013109562710342202,,,,,0.5212295009135993,1876,1724,0,,BLACK,,,0,,BLACK,True,CORRECT,0.7720450000015262,772.0450000015262
7,20260325_141148,J,D,True,MANUAL,2,347,647,fixed_delta,0.033374705876577364,0.013109562710342202,,,,,0.5265806688631631,1896,1704,0,,BLACK,,,0,,WHITE,False,INCORRECT,0.45673879999958444,456.73879999958444
7,20260325_141148,J,D,True,MANUAL,2,348,648,fixed_delta,0.033374705876577364,0.013109562710342202,,,,,0.5489708304293726,1976,1624,0,,BLACK,,,0,,BLACK,True,CORRECT,0.8870271999985562,887.0271999985562
7,20260325_141148,J,D,True,MANUAL,2,349,649,fixed_delta,0.033374705876577364,0.013109562710342202,,,,,0.46904649136838916,1689,1911,0,,WHITE,,,0,,WHITE,True,CORRECT,0.5599337999992713,559.9337999992713
7,20260325_141148,J,D,True,MANUAL,2,350,650,fixed_delta,0.033374705876577364,0.013109562710342202,,,,,0.4589597737933047,1652,1948,0,,WHITE,,,0,,WHITE,True,CORRECT,0.5644757999980357,564.4757999980357
7,20260325_141148,J,D,True,MANUAL,2,351,651,fixed_delta,0.033374705876577364,0.013109562710342202,,,,,0.4562297274775642,1642,1958,0,,WHITE,,,0,,WHITE,True,CORRECT,0.7255815999997139,725.581599999714
7,20260325_141148,J,D,True,MANUAL,2,352,652,fixed_delta,0.033374705876577364,0.013109562710342202,,,,,0.4558028898126327,1641,1959,0,,WHITE,,,0,,WHITE,True,CORRECT,0.5242782999994233,524.2782999994233
7,20260325_141148,J,D,True,MANUAL,2,353,653,fixed_delta,0.033374705876577364,0.013109562710342202,,,,,0.4701863639048132,1693,1907,0,,WHITE,,,0,,WHITE,True,CORRECT,0.7688654999983555,768.8654999983555
7,20260325_141148,J,D,True,MANUAL,2,354,654,fixed_delta,0.033374705876577364,0.013109562710342202,,,,,0.46992104565509274,1692,1908,0,,WHITE,,,0,,WHITE,True,CORRECT,0.473162999998749,473.162999998749
7,20260325_141148,J,D,True,MANUAL,2,355,655,fixed_delta,0.033374705876577364,0.013109562710342202,,,,,0.5241754400294764,1887,1713,0,,BLACK,,,0,,BLACK,True,CORRECT,0.6882050999993226,688.2050999993226
7,20260325_141148,J,D,True,MANUAL,2,356,656,fixed_delta,0.033374705876577364,0.013109562710342202,,,,,0.5317062468364138,1914,1686,0,,BLACK,,,0,,BLACK,True,CORRECT,0.7024825000007695,702.4825000007695
7,20260325_141148,J,D,True,MANUAL,2,357,657,fixed_delta,0.033374705876577364,0.013109562710342202,,,,,0.5394939517944578,1942,1658,0,,BLACK,,,0,,BLACK,True,CORRECT,0.6048768000000564,604.8768000000564
7,20260325_141148,J,D,True,MANUAL,2,358,658,fixed_delta,0.033374705876577364,0.013109562710342202,,,,,0.5442491222383782,1959,1641,0,,BLACK,,,0,,BLACK,True,CORRECT,0.4284766999990097,428.4766999990097
7,20260325_141148,J,D,True,MANUAL,2,359,659,fixed_delta,0.033374705876577364,0.013109562710342202,,,,,0.5375459366790962,1935,1665,0,,BLACK,,,0,,BLACK,True,CORRECT,0.5511233999968681,551.1233999968681
7,20260325_141148,J,D,True,MANUAL,2,360,660,fixed_delta,0.033374705876577364,0.013109562710342202,,,,,0.45658778755507345,1644,1956,0,,WHITE,,,0,,BLACK,False,INCORRECT,0.45341130000088015,453.41130000088015
7,20260325_141148,J,D,True,MANUAL,2,361,661,fixed_delta,0.033374705876577364,0.013109562710342202,,,,,0.47060760139852875,1694,1906,0,,WHITE,,,0,,BLACK,False,INCORRECT,0.6199188999999024,619.9188999999024
7,20260325_141148,J,D,True,MANUAL,2,362,662,fixed_delta,0.033374705876577364,0.013109562710342202,,,,,0.47653148472405543,1716,1884,0,,WHITE,,,0,,BLACK,False,INCORRECT,0.6230350000005274,623.0350000005274
7,20260325_141148,J,D,True,MANUAL,2,363,663,fixed_delta,0.033374705876577364,0.013109562710342202,,,,,0.46306667624160414,1667,1933,0,,WHITE,,,0,,WHITE,True,CORRECT,0.6761512000011862,676.1512000011862
7,20260325_141148,J,D,True,MANUAL,2,364,664,fixed_delta,0.033374705876577364,0.013109562710342202,,,,,0.4532621748054136,1632,1968,0,,WHITE,,,0,,WHITE,True,CORRECT,0.5328516000008676,532.8516000008676
7,20260325_141148,J,D,True,MANUAL,2,365,665,fixed_delta,0.033374705876577364,0.013109562710342202,,,,,0.48036724104384376,1729,1871,0,,WHITE,,,0,,WHITE,True,CORRECT,0.5146497999994608,514.6497999994608
7,20260325_141148,J,D,True,MANUAL,2,366,666,fixed_delta,0.033374705876577364,0.013109562710342202,,,,,0.45298206786331857,1631,1969,0,,WHITE,,,0,,BLACK,False,INCORRECT,0.5228690000003553,522.8690000003553
7,20260325_141148,J,D,True,MANUAL,2,367,667,fixed_delta,0.033374705876577364,0.013109562710342202,,,,,0.5344153238843438,1924,1676,0,,BLACK,,,0,,BLACK,True,CORRECT,0.5445046999993792,544.5046999993792
7,20260325_141148,J,D,True,MANUAL,2,368,668,fixed_delta,0.033374705876577364,0.013109562710342202,,,,,0.5248372623399743,1889,1711,0,,BLACK,,,0,,BLACK,True,CORRECT,0.4895951000034984,489.5951000034984
7,20260325_141148,J,D,True,MANUAL,2,369,669,fixed_delta,0.033374705876577364,0.013109562710342202,,,,,0.46222663573949385,1664,1936,0,,WHITE,,,0,,BLACK,False,INCORRECT,0.6943682999990415,694.3682999990415
7,20260325_141148,J,D,True,MANUAL,2,370,670,fixed_delta,0.033374705876577364,0.013109562710342202,,,,,0.4782878550879846,1722,1878,0,,WHITE,,,0,,BLACK,False,INCORRECT,0.7483455000001413,748.3455000001413
7,20260325_141148,J,D,True,MANUAL,2,371,671,fixed_delta,0.033374705876577364,0.013109562710342202,,,,,0.47144121378164044,1697,1903,0,,WHITE,,,0,,WHITE,True,CORRECT,0.788326900001266,788.326900001266
7,20260325_141148,J,D,True,MANUAL,2,372,672,fixed_delta,0.033374705876577364,0.013109562710342202,,,,,0.536405669398597,1931,1669,0,,BLACK,,,0,,BLACK,True,CORRECT,0.5719605000012962,571.9605000012962
7,20260325_141148,J,D,True,MANUAL,2,373,673,fixed_delta,0.033374705876577364,0.013109562710342202,,,,,0.4677952940967288,1684,1916,0,,WHITE,,,0,,BLACK,False,INCORRECT,0.587411799999245,587.411799999245
7,20260325_141148,J,D,True,MANUAL,2,374,674,fixed_delta,0.033374705876577364,0.013109562710342202,,,,,0.534510888601319,1924,1676,0,,BLACK,,,0,,BLACK,True,CORRECT,0.5777768999978434,577.7768999978434
7,20260325_141148,J,D,True,MANUAL,2,375,675,fixed_delta,0.033374705876577364,0.013109562710342202,,,,,0.4858863432313608,1749,1851,0,,WHITE,,,0,,BLACK,False,INCORRECT,0.585926700001437,585.926700001437
7,20260325_141148,J,D,True,MANUAL,2,376,676,fixed_delta,0.033374705876577364,0.013109562710342202,,,,,0.4417145533731696,1590,2010,0,,WHITE,,,0,,WHITE,True,CORRECT,0.5463935000007041,546.3935000007041
7,20260325_141148,J,D,True,MANUAL,2,377,677,fixed_delta,0.033374705876577364,0.013109562710342202,,,,,0.5482900572882791,1974,1626,0,,BLACK,,,0,,BLACK,True,CORRECT,0.4765799999986484,476.5799999986484
7,20260325_141148,J,D,True,MANUAL,2,378,678,fixed_delta,0.033374705876577364,0.013109562710342202,,,,,0.4876134240117601,1755,1845,0,,WHITE,,,0,,BLACK,False,INCORRECT,0.6661074000003282,666.1074000003282
7,20260325_141148,J,D,True,MANUAL,2,379,679,fixed_delta,0.033374705876577364,0.013109562710342202,,,,,0.5417984067634608,1950,1650,0,,BLACK,,,0,,BLACK,True,CORRECT,0.5663864000016474,566.3864000016474
7,20260325_141148,J,D,True,MANUAL,2,380,680,fixed_delta,0.033374705876577364,0.013109562710342202,,,,,0.5272638192042178,1898,1702,0,,BLACK,,,0,,BLACK,True,CORRECT,0.5990504000001238,599.0504000001238
7,20260325_141148,J,D,True,MANUAL,2,381,681,fixed_delta,0.033374705876577364,0.013109562710342202,,,,,0.43346759915056576,1560,2040,0,,WHITE,,,0,,WHITE,True,CORRECT,0.8592892000015127,859.2892000015127
7,20260325_141148,J,D,True,MANUAL,2,382,682,fixed_delta,0.033374705876577364,0.013109562710342202,,,,,0.5301674915827832,1909,1691,0,,BLACK,,,0,,BLACK,True,CORRECT,0.5293468000018038,529.3468000018038
7,20260325_141148,J,D,True,MANUAL,2,383,683,fixed_delta,0.033374705876577364,0.013109562710342202,,,,,0.4687625690468296,1688,1912,0,,WHITE,,,0,,WHITE,True,CORRECT,0.7194407999995747,719.4407999995747
7,20260325_141148,J,D,True,MANUAL,2,384,684,fixed_delta,0.033374705876577364,0.013109562710342202,,,,,0.517032909855864,1861,1739,0,,BLACK,,,0,,BLACK,True,CORRECT,0.48242970000137575,482.42970000137575
7,20260325_141148,J,D,True,MANUAL,2,385,685,fixed_delta,0.033374705876577364,0.013109562710342202,,,,,0.453418393803473,1632,1968,0,,WHITE,,,0,,WHITE,True,CORRECT,0.602243900000758,602.243900000758
7,20260325_141148,J,D,True,MANUAL,2,386,686,fixed_delta,0.033374705876577364,0.013109562710342202,,,,,0.45926278780605073,1653,1947,0,,WHITE,,,0,,BLACK,False,INCORRECT,0.6793384999982663,679.3384999982663
7,20260325_141148,J,D,True,MANUAL,2,387,687,fixed_delta,0.033374705876577364,0.013109562710342202,,,,,0.47325473694217324,1704,1896,0,,WHITE,,,0,,BLACK,False,INCORRECT,0.6843300000000454,684.3300000000454
7,20260325_141148,J,D,True,MANUAL,2,388,688,fixed_delta,0.033374705876577364,0.013109562710342202,,,,,0.44782027605579183,1612,1988,0,,WHITE,,,0,,WHITE,True,CORRECT,0.41556569999738713,415.5656999973871
7,20260325_141148,J,D,True,MANUAL,2,389,689,fixed_delta,0.033374705876577364,0.013109562710342202,,,,,0.5490617190105914,1977,1623,0,,BLACK,,,0,,BLACK,True,CORRECT,0.525138799999695,525.138799999695
7,20260325_141148,J,D,True,MANUAL,2,390,690,fixed_delta,0.033374705876577364,0.013109562710342202,,,,,0.4563591967364874,1643,1957,0,,WHITE,,,0,,WHITE,True,CORRECT,0.47947539999950095,479.47539999950095
7,20260325_141148,J,D,True,MANUAL,2,391,691,fixed_delta,0.033374705876577364,0.013109562710342202,,,,,0.5311706464968361,1912,1688,0,,BLACK,,,0,,BLACK,True,CORRECT,0.5163362999992387,516.3362999992387
7,20260325_141148,J,D,True,MANUAL,2,392,692,fixed_delta,0.033374705876577364,0.013109562710342202,,,,,0.5264749307446922,1895,1705,0,,BLACK,,,0,,BLACK,True,CORRECT,0.4678128999985347,467.8128999985347
7,20260325_141148,J,D,True,MANUAL,2,393,693,fixed_delta,0.033374705876577364,0.013109562710342202,,,,,0.5398576792724602,1943,1657,0,,BLACK,,,0,,BLACK,True,CORRECT,0.6928005000008852,692.8005000008852
7,20260325_141148,J,D,True,MANUAL,2,394,694,fixed_delta,0.033374705876577364,0.013109562710342202,,,,,0.524978013070427,1890,1710,0,,BLACK,,,0,,BLACK,True,CORRECT,0.5623057999982848,562.3057999982848
7,20260325_141148,J,D,True,MANUAL,2,395,695,fixed_delta,0.033374705876577364,0.013109562710342202,,,,,0.5159010931754817,1857,1743,0,,BLACK,,,0,,BLACK,True,CORRECT,0.4661506999982521,466.1506999982521
7,20260325_141148,J,D,True,MANUAL,2,396,696,fixed_delta,0.033374705876577364,0.013109562710342202,,,,,0.47173177704541014,1698,1902,0,,WHITE,,,0,,BLACK,False,INCORRECT,0.5177087000010943,517.7087000010943
7,20260325_141148,J,D,True,MANUAL,2,397,697,fixed_delta,0.033374705876577364,0.013109562710342202,,,,,0.5168618401437017,1861,1739,0,,BLACK,,,0,,BLACK,True,CORRECT,0.6488199999985227,648.8199999985227
7,20260325_141148,J,D,True,MANUAL,2,398,698,fixed_delta,0.033374705876577364,0.013109562710342202,,,,,0.4595028102269947,1654,1946,0,,WHITE,,,0,,WHITE,True,CORRECT,0.966519799996604,966.519799996604
7,20260325_141148,J,D,True,MANUAL,2,399,699,fixed_delta,0.033374705876577364,0.013109562710342202,,,,,0.4627721613796133,1666,1934,0,,WHITE,,,0,,WHITE,True,CORRECT,0.61721789999865,617.21789999865
7,20260325_141148,J,D,True,MANUAL,2,400,700,fixed_delta,0.033374705876577364,0.013109562710342202,,,,,0.4567930903757721,1644,1956,0,,WHITE,,,0,,WHITE,True,CORRECT,0.6225586000000476,622.5586000000476
7,20260325_141148,J,D,True,MANUAL,2,401,701,fixed_delta,0.033374705876577364,0.013109562710342202,,,,,0.5306186074461776,1910,1690,0,,BLACK,,,0,,BLACK,True,CORRECT,2.957296700002189,2957.296700002189
7,20260325_141148,J,D,True,MANUAL,2,402,702,fixed_delta,0.033374705876577364,0.013109562710342202,,,,,0.5241802781278895,1887,1713,0,,BLACK,,,0,,BLACK,True,CORRECT,1.2082808000013756,1208.2808000013756
7,20260325_141148,J,D,True,MANUAL,2,403,703,fixed_delta,0.033374705876577364,0.013109562710342202,,,,,0.4522232806920781,1628,1972,0,,WHITE,,,0,,WHITE,True,CORRECT,0.8174308999987261,817.4308999987261
7,20260325_141148,J,D,True,MANUAL,2,404,704,fixed_delta,0.033374705876577364,0.013109562710342202,,,,,0.518206324493998,1866,1734,0,,BLACK,,,0,,WHITE,False,INCORRECT,1.2653814000004786,1265.3814000004786
7,20260325_141148,J,D,True,MANUAL,2,405,705,fixed_delta,0.033374705876577364,0.013109562710342202,,,,,0.48505690089871156,1746,1854,0,,WHITE,,,0,,WHITE,True,CORRECT,0.6083247999995365,608.3247999995365
7,20260325_141148,J,D,True,MANUAL,2,406,706,fixed_delta,0.033374705876577364,0.013109562710342202,,,,,0.46079716837825996,1659,1941,0,,WHITE,,,0,,WHITE,True,CORRECT,0.638877199999115,638.877199999115
7,20260325_141148,J,D,True,MANUAL,2,407,707,fixed_delta,0.033374705876577364,0.013109562710342202,,,,,0.47064874414008756,1694,1906,0,,WHITE,,,0,,WHITE,True,CORRECT,0.5833454999992682,583.3454999992682
7,20260325_141148,J,D,True,MANUAL,2,408,708,fixed_delta,0.033374705876577364,0.013109562710342202,,,,,0.46731218874339936,1682,1918,0,,WHITE,,,0,,WHITE,True,CORRECT,0.599736700001813,599.736700001813
7,20260325_141148,J,D,True,MANUAL,2,409,709,fixed_delta,0.033374705876577364,0.013109562710342202,,,,,0.53181361473808,1915,1685,0,,BLACK,,,0,,BLACK,True,CORRECT,0.5056402000009257,505.6402000009257
7,20260325_141148,J,D,True,MANUAL,2,410,710,fixed_delta,0.033374705876577364,0.013109562710342202,,,,,0.5282753516226152,1902,1698,0,,BLACK,,,0,,BLACK,True,CORRECT,0.6079804000000877,607.9804000000877
7,20260325_141148,J,D,True,MANUAL,2,411,711,fixed_delta,0.033374705876577364,0.013109562710342202,,,,,0.4723516810932265,1700,1900,0,,WHITE,,,0,,WHITE,True,CORRECT,0.6721730999997817,672.1730999997817
7,20260325_141148,J,D,True,MANUAL,2,412,712,fixed_delta,0.033374705876577364,0.013109562710342202,,,,,0.44618999736692544,1606,1994,0,,WHITE,,,0,,WHITE,True,CORRECT,0.5622124999972584,562.2124999972584
7,20260325_141148,J,D,True,MANUAL,2,413,713,fixed_delta,0.033374705876577364,0.013109562710342202,,,,,0.5307269501122158,1911,1689,0,,BLACK,,,0,,BLACK,True,CORRECT,0.7935445000002801,793.5445000002801
7,20260325_141148,J,D,True,MANUAL,2,414,714,fixed_delta,0.033374705876577364,0.013109562710342202,,,,,0.5334342474388503,1920,1680,0,,BLACK,,,0,,WHITE,False,INCORRECT,0.5280684999997902,528.0684999997902
7,20260325_141148,J,D,True,MANUAL,2,415,715,fixed_delta,0.033374705876577364,0.013109562710342202,,,,,0.49972222222222223,1799,1801,0,,WHITE,,,0,,WHITE,True,CORRECT,0.7029124000000593,702.9124000000593
7,20260325_141148,J,D,True,MANUAL,2,416,716,fixed_delta,0.033374705876577364,0.013109562710342202,,,,,0.5470328846969327,1969,1631,0,,BLACK,,,0,,BLACK,True,CORRECT,0.5573586999998952,557.3586999998952
7,20260325_141148,J,D,True,MANUAL,2,417,717,fixed_delta,0.033374705876577364,0.013109562710342202,,,,,0.4656886153199312,1676,1924,0,,WHITE,,,0,,WHITE,True,CORRECT,0.9590445999965596,959.0445999965596
7,20260325_141148,J,D,True,MANUAL,2,418,718,fixed_delta,0.033374705876577364,0.013109562710342202,,,,,0.4516026369766435,1626,1974,0,,WHITE,,,0,,WHITE,True,CORRECT,0.7376194999997097,737.6194999997097
7,20260325_141148,J,D,True,MANUAL,2,419,719,fixed_delta,0.033374705876577364,0.013109562710342202,,,,,0.44861489546161926,1615,1985,0,,WHITE,,,0,,WHITE,True,CORRECT,0.5680765000033716,568.0765000033716
7,20260325_141148,J,D,True,MANUAL,2,420,720,fixed_delta,0.033374705876577364,0.013109562710342202,,,,,0.5354615434237697,1928,1672,0,,BLACK,,,0,,BLACK,True,CORRECT,0.5456598999990092,545.6598999990092
7,20260325_141148,J,D,True,MANUAL,2,421,721,fixed_delta,0.033374705876577364,0.013109562710342202,,,,,0.5270593271833676,1897,1703,0,,BLACK,,,0,,BLACK,True,CORRECT,0.746894700001576,746.894700001576
7,20260325_141148,J,D,True,MANUAL,2,422,722,fixed_delta,0.033374705876577364,0.013109562710342202,,,,,0.45845135406260934,1650,1950,0,,WHITE,,,0,,WHITE,True,CORRECT,0.5759777000021131,575.9777000021131
7,20260325_141148,J,D,True,MANUAL,2,423,723,fixed_delta,0.033374705876577364,0.013109562710342202,,,,,0.5130918829372921,1847,1753,0,,BLACK,,,0,,BLACK,True,CORRECT,0.5413727999984985,541.3727999984985
7,20260325_141148,J,D,True,MANUAL,2,424,724,fixed_delta,0.033374705876577364,0.013109562710342202,,,,,0.47595480655084765,1713,1887,0,,WHITE,,,0,,BLACK,False,INCORRECT,0.9260639999993145,926.0639999993145
7,20260325_141148,J,D,True,MANUAL,2,425,725,fixed_delta,0.033374705876577364,0.013109562710342202,,,,,0.4909981705943258,1768,1832,0,,WHITE,,,0,,WHITE,True,CORRECT,0.4940059000000474,494.0059000000474
7,20260325_141148,J,D,True,MANUAL,2,426,726,fixed_delta,0.033374705876577364,0.013109562710342202,,,,,0.5333865260911932,1920,1680,0,,BLACK,,,0,,BLACK,True,CORRECT,0.9955058000014105,995.5058000014105
7,20260325_141148,J,D,True,MANUAL,2,427,727,fixed_delta,0.033374705876577364,0.013109562710342202,,,,,0.47008611005946904,1692,1908,0,,WHITE,,,0,,WHITE,True,CORRECT,0.5369816000020364,536.9816000020364
7,20260325_141148,J,D,True,MANUAL,2,428,728,fixed_delta,0.033374705876577364,0.013109562710342202,,,,,0.5309264617169908,1911,1689,0,,BLACK,,,0,,BLACK,True,CORRECT,0.6474453999981051,647.4453999981051
7,20260325_141148,J,D,True,MANUAL,2,429,729,fixed_delta,0.033374705876577364,0.013109562710342202,,,,,0.46217201832374244,1664,1936,0,,WHITE,,,0,,WHITE,True,CORRECT,0.6549617999990005,654.9617999990005
7,20260325_141148,J,D,True,MANUAL,2,430,730,fixed_delta,0.033374705876577364,0.013109562710342202,,,,,0.5299264087576181,1908,1692,0,,BLACK,,,0,,BLACK,True,CORRECT,0.5092339000002539,509.2339000002539
7,20260325_141148,J,D,True,MANUAL,2,431,731,fixed_delta,0.033374705876577364,0.013109562710342202,,,,,0.5279777361844027,1901,1699,0,,BLACK,,,0,,BLACK,True,CORRECT,0.7163792999999714,716.3792999999714
7,20260325_141148,J,D,True,MANUAL,2,432,732,fixed_delta,0.033374705876577364,0.013109562710342202,,,,,0.46056194414230167,1658,1942,0,,WHITE,,,0,,WHITE,True,CORRECT,0.5332610000004934,533.2610000004934
7,20260325_141148,J,D,True,MANUAL,2,433,733,fixed_delta,0.033374705876577364,0.013109562710342202,,,,,0.4395313674643486,1582,2018,0,,WHITE,,,0,,WHITE,True,CORRECT,0.51150509999934,511.50509999934
7,20260325_141148,J,D,True,MANUAL,2,434,734,fixed_delta,0.033374705876577364,0.013109562710342202,,,,,0.45235921316102984,1628,1972,0,,WHITE,,,0,,WHITE,True,CORRECT,0.5276899000018602,527.6899000018602
7,20260325_141148,J,D,True,MANUAL,2,435,735,fixed_delta,0.033374705876577364,0.013109562710342202,,,,,0.4630462019843307,1667,1933,0,,WHITE,,,0,,WHITE,True,CORRECT,0.5653746999996656,565.3746999996656
7,20260325_141148,J,D,True,MANUAL,2,436,736,fixed_delta,0.033374705876577364,0.013109562710342202,,,,,0.5265757944470741,1896,1704,0,,BLACK,,,0,,BLACK,True,CORRECT,0.513219599997683,513.219599997683
7,20260325_141148,J,D,True,MANUAL,2,437,737,fixed_delta,0.033374705876577364,0.013109562710342202,,,,,0.554212603175555,1995,1605,0,,BLACK,,,0,,BLACK,True,CORRECT,0.47658379999847966,476.58379999847966
7,20260325_141148,J,D,True,MANUAL,2,438,738,fixed_delta,0.033374705876577364,0.013109562710342202,,,,,0.5238279525130656,1886,1714,0,,BLACK,,,0,,BLACK,True,CORRECT,0.7674994000008155,767.4994000008155
7,20260325_141148,J,D,True,MANUAL,2,439,739,fixed_delta,0.033374705876577364,0.013109562710342202,,,,,0.5519168280614526,1987,1613,0,,BLACK,,,0,,BLACK,True,CORRECT,0.45675199999823235,456.75199999823235
7,20260325_141148,J,D,True,MANUAL,2,440,740,fixed_delta,0.033374705876577364,0.013109562710342202,,,,,0.5309871026678579,1912,1688,0,,BLACK,,,0,,BLACK,True,CORRECT,0.5250658999975713,525.0658999975713
7,20260325_141148,J,D,True,MANUAL,2,441,741,fixed_delta,0.033374705876577364,0.013109562710342202,,,,,0.5280471630404684,1901,1699,0,,BLACK,,,0,,BLACK,True,CORRECT,1.0089215000007243,1008.9215000007243
7,20260325_141148,J,D,True,MANUAL,2,442,742,fixed_delta,0.033374705876577364,0.013109562710342202,,,,,0.45816953777933433,1649,1951,0,,WHITE,,,0,,BLACK,False,INCORRECT,0.5082346000017424,508.23460000174236
7,20260325_141148,J,D,True,MANUAL,2,443,743,fixed_delta,0.033374705876577364,0.013109562710342202,,,,,0.5212044461277936,1876,1724,0,,BLACK,,,0,,BLACK,True,CORRECT,0.5464425999998639,546.4425999998639
7,20260325_141148,J,D,True,MANUAL,2,444,744,fixed_delta,0.033374705876577364,0.013109562710342202,,,,,0.4602630190342764,1657,1943,0,,WHITE,,,0,,BLACK,False,INCORRECT,0.6866191999979492,686.6191999979492
7,20260325_141148,J,D,True,MANUAL,2,445,745,fixed_delta,0.033374705876577364,0.013109562710342202,,,,,0.48958561292432984,1763,1837,0,,WHITE,,,0,,WHITE,True,CORRECT,1.4202593999980309,1420.2593999980309
7,20260325_141148,J,D,True,MANUAL,2,446,746,fixed_delta,0.033374705876577364,0.013109562710342202,,,,,0.4870380976745563,1753,1847,0,,WHITE,,,0,,BLACK,False,INCORRECT,0.536284899997554,536.284899997554
7,20260325_141148,J,D,True,MANUAL,2,447,747,fixed_delta,0.033374705876577364,0.013109562710342202,,,,,0.4591225211310358,1653,1947,0,,WHITE,,,0,,WHITE,True,CORRECT,0.6479602999970666,647.9602999970666
7,20260325_141148,J,D,True,MANUAL,2,448,748,fixed_delta,0.033374705876577364,0.013109562710342202,,,,,0.5261196650221427,1894,1706,0,,BLACK,,,0,,BLACK,True,CORRECT,0.9555556999985129,955.5556999985129
7,20260325_141148,J,D,True,MANUAL,2,449,749,fixed_delta,0.033374705876577364,0.013109562710342202,,,,,0.5198901648609666,1872,1728,0,,BLACK,,,0,,BLACK,True,CORRECT,0.6881909000003361,688.1909000003361
7,20260325_141148,J,D,True,MANUAL,2,450,750,fixed_delta,0.033374705876577364,0.013109562710342202,,,,,0.46753536208324564,1683,1917,0,,WHITE,,,0,,WHITE,True,CORRECT,0.7167919999992591,716.7919999992591
7,20260325_141148,J,D,True,MANUAL,2,451,751,fixed_delta,0.033374705876577364,0.013109562710342202,,,,,0.4716006995647005,1698,1902,0,,WHITE,,,0,,BLACK,False,INCORRECT,0.7618325000003097,761.8325000003097
7,20260325_141148,J,D,True,MANUAL,2,452,752,fixed_delta,0.033374705876577364,0.013109562710342202,,,,,0.5489356441811538,1976,1624,0,,BLACK,,,0,,BLACK,True,CORRECT,0.644385700001294,644.385700001294
7,20260325_141148,J,D,True,MANUAL,2,453,753,fixed_delta,0.033374705876577364,0.013109562710342202,,,,,0.5216805102912964,1878,1722,0,,BLACK,,,0,,WHITE,False,INCORRECT,1.2857822000005399,1285.78220000054
7,20260325_141148,J,D,True,MANUAL,2,454,754,fixed_delta,0.033374705876577364,0.013109562710342202,,,,,0.47763382822152123,1719,1881,0,,WHITE,,,0,,WHITE,True,CORRECT,2.5731089000000793,2573.1089000000793
7,20260325_141148,J,D,True,MANUAL,2,455,755,fixed_delta,0.033374705876577364,0.013109562710342202,,,,,0.47318818454151385,1703,1897,0,,WHITE,,,0,,WHITE,True,CORRECT,1.351091100001213,1351.091100001213
7,20260325_141148,J,D,True,MANUAL,2,456,756,fixed_delta,0.033374705876577364,0.013109562710342202,,,,,0.47407733386462825,1707,1893,0,,WHITE,,,0,,BLACK,False,INCORRECT,1.537322199998016,1537.322199998016
7,20260325_141148,J,D,True,MANUAL,2,457,757,fixed_delta,0.033374705876577364,0.013109562710342202,,,,,0.551277534763029,1985,1615,0,,BLACK,,,0,,WHITE,False,INCORRECT,1.067997699999978,1067.997699999978
7,20260325_141148,J,D,True,MANUAL,2,458,758,fixed_delta,0.033374705876577364,0.013109562710342202,,,,,0.5344584730839402,1924,1676,0,,BLACK,,,0,,BLACK,True,CORRECT,0.7195649999994203,719.5649999994203
7,20260325_141148,J,D,True,MANUAL,2,459,759,fixed_delta,0.033374705876577364,0.013109562710342202,,,,,0.5064434407852828,1823,1777,0,,BLACK,,,0,,BLACK,True,CORRECT,0.7191272000018216,719.1272000018216
7,20260325_141148,J,D,True,MANUAL,2,460,760,fixed_delta,0.033374705876577364,0.013109562710342202,,,,,0.5413586578146917,1949,1651,0,,BLACK,,,0,,BLACK,True,CORRECT,0.6558796999997867,655.8796999997867
7,20260325_141148,J,D,True,MANUAL,2,461,761,fixed_delta,0.033374705876577364,0.013109562710342202,,,,,0.44767483717117873,1612,1988,0,,WHITE,,,0,,WHITE,True,CORRECT,0.6123919999990903,612.3919999990903
7,20260325_141148,J,D,True,MANUAL,2,462,762,fixed_delta,0.033374705876577364,0.013109562710342202,,,,,0.5195832056343801,1870,1730,0,,BLACK,,,0,,WHITE,False,INCORRECT,3.553586899997754,3553.586899997754
7,20260325_141148,J,D,True,MANUAL,2,463,763,fixed_delta,0.033374705876577364,0.013109562710342202,,,,,0.5280717400176274,1901,1699,0,,BLACK,,,0,,WHITE,False,INCORRECT,4.561454899998353,4561.454899998353
7,20260325_141148,J,D,True,MANUAL,2,464,764,fixed_delta,0.033374705876577364,0.013109562710342202,,,,,0.4608816798434415,1659,1941,0,,WHITE,,,0,,WHITE,True,CORRECT,0.6314345999999205,631.4345999999205
7,20260325_141148,J,D,True,MANUAL,2,465,765,fixed_delta,0.033374705876577364,0.013109562710342202,,,,,0.5287555513573129,1904,1696,0,,BLACK,,,0,,BLACK,True,CORRECT,0.7386882000027981,738.6882000027981
7,20260325_141148,J,D,True,MANUAL,2,466,766,fixed_delta,0.033374705876577364,0.013109562710342202,,,,,0.5186681402675386,1867,1733,0,,BLACK,,,0,,BLACK,True,CORRECT,0.6877158999996027,687.7158999996027
7,20260325_141148,J,D,True,MANUAL,2,467,767,fixed_delta,0.033374705876577364,0.013109562710342202,,,,,0.4802198418098814,1729,1871,0,,WHITE,,,0,,BLACK,False,INCORRECT,0.6040882999986934,604.0882999986934
7,20260325_141148,J,D,True,MANUAL,2,468,768,fixed_delta,0.033374705876577364,0.013109562710342202,,,,,0.5264556935314553,1895,1705,0,,BLACK,,,0,,BLACK,True,CORRECT,0.7483293000004778,748.3293000004778
7,20260325_141148,J,D,True,MANUAL,2,469,769,fixed_delta,0.033374705876577364,0.013109562710342202,,,,,0.47093835793278466,1695,1905,0,,WHITE,,,0,,WHITE,True,CORRECT,0.7296403999971517,729.6403999971517
7,20260325_141148,J,D,True,MANUAL,2,470,770,fixed_delta,0.033374705876577364,0.013109562710342202,,,,,0.5130231257501522,1847,1753,0,,BLACK,,,0,,BLACK,True,CORRECT,0.658259600000747,658.259600000747
7,20260325_141148,J,D,True,MANUAL,2,471,771,fixed_delta,0.033374705876577364,0.013109562710342202,,,,,0.5244829956061198,1888,1712,0,,BLACK,,,0,,BLACK,True,CORRECT,0.5120916999985639,512.0916999985639
7,20260325_141148,J,D,True,MANUAL,2,472,772,fixed_delta,0.033374705876577364,0.013109562710342202,,,,,0.5360148941483095,1930,1670,0,,BLACK,,,0,,BLACK,True,CORRECT,1.0498230999983207,1049.8230999983207
7,20260325_141148,J,D,True,MANUAL,2,473,773,fixed_delta,0.033374705876577364,0.013109562710342202,,,,,0.5289312644177389,1904,1696,0,,BLACK,,,0,,BLACK,True,CORRECT,0.6298191999994742,629.8191999994742
7,20260325_141148,J,D,True,MANUAL,2,474,774,fixed_delta,0.033374705876577364,0.013109562710342202,,,,,0.541644221164401,1950,1650,0,,BLACK,,,0,,BLACK,True,CORRECT,0.5698890999992727,569.8890999992727
7,20260325_141148,J,D,True,MANUAL,2,475,775,fixed_delta,0.033374705876577364,0.013109562710342202,,,,,0.5638751397024908,2030,1570,0,,BLACK,,,0,,BLACK,True,CORRECT,0.5475465000017721,547.5465000017721
7,20260325_141148,J,D,True,MANUAL,2,476,776,fixed_delta,0.033374705876577364,0.013109562710342202,,,,,0.5265065644511809,1895,1705,0,,BLACK,,,0,,BLACK,True,CORRECT,0.5561334000012721,556.1334000012721
7,20260325_141148,J,D,True,MANUAL,2,477,777,fixed_delta,0.033374705876577364,0.013109562710342202,,,,,0.44234220776875693,1592,2008,0,,WHITE,,,0,,WHITE,True,CORRECT,0.6372664000009536,637.2664000009536
7,20260325_141148,J,D,True,MANUAL,2,478,778,fixed_delta,0.033374705876577364,0.013109562710342202,,,,,0.5328548885258765,1918,1682,0,,BLACK,,,0,,BLACK,True,CORRECT,0.5007404999996652,500.7404999996652
7,20260325_141148,J,D,True,MANUAL,2,479,779,fixed_delta,0.033374705876577364,0.013109562710342202,,,,,0.5340971776482553,1923,1677,0,,BLACK,,,0,,BLACK,True,CORRECT,0.6229657000003499,622.9657000003499
7,20260325_141148,J,D,True,MANUAL,2,480,780,fixed_delta,0.033374705876577364,0.013109562710342202,,,,,0.5449132774017847,1962,1638,0,,BLACK,,,0,,BLACK,True,CORRECT,0.5571803999991971,557.1803999991971
7,20260325_141148,J,D,True,MANUAL,2,481,781,fixed_delta,0.033374705876577364,0.013109562710342202,,,,,0.5299069749619951,1908,1692,0,,BLACK,,,0,,BLACK,True,CORRECT,0.7829539000013028,782.9539000013028
7,20260325_141148,J,D,True,MANUAL,2,482,782,fixed_delta,0.033374705876577364,0.013109562710342202,,,,,0.5102742728492711,1837,1763,0,,BLACK,,,0,,BLACK,True,CORRECT,0.557613199998741,557.613199998741
7,20260325_141148,J,D,True,MANUAL,2,483,783,fixed_delta,0.033374705876577364,0.013109562710342202,,,,,0.534330904592432,1924,1676,0,,BLACK,,,0,,WHITE,False,INCORRECT,2.084329900000739,2084.329900000739
7,20260325_141148,J,D,True,MANUAL,2,484,784,fixed_delta,0.033374705876577364,0.013109562710342202,,,,,0.5267207586006041,1896,1704,0,,BLACK,,,0,,WHITE,False,INCORRECT,0.870068899999751,870.068899999751
7,20260325_141148,J,D,True,MANUAL,2,485,785,fixed_delta,0.033374705876577364,0.013109562710342202,,,,,0.46532045789234977,1675,1925,0,,WHITE,,,0,,WHITE,True,CORRECT,0.574106899999606,574.106899999606
7,20260325_141148,J,D,True,MANUAL,2,486,786,fixed_delta,0.033374705876577364,0.013109562710342202,,,,,0.529564573833948,1906,1694,0,,BLACK,,,0,,WHITE,False,INCORRECT,1.089748200000031,1089.748200000031
7,20260325_141148,J,D,True,MANUAL,2,487,787,fixed_delta,0.033374705876577364,0.013109562710342202,,,,,0.5371028910671874,1934,1666,0,,BLACK,,,0,,BLACK,True,CORRECT,0.6161347999986901,616.1347999986901
7,20260325_141148,J,D,True,MANUAL,2,488,788,fixed_delta,0.033374705876577364,0.013109562710342202,,,,,0.46288201373234816,1666,1934,0,,WHITE,,,0,,WHITE,True,CORRECT,0.550910499998281,550.910499998281
7,20260325_141148,J,D,True,MANUAL,2,489,789,fixed_delta,0.033374705876577364,0.013109562710342202,,,,,0.48986969167469296,1764,1836,0,,WHITE,,,0,,WHITE,True,CORRECT,1.4136246999987634,1413.6246999987634
7,20260325_141148,J,D,True,MANUAL,2,490,790,fixed_delta,0.033374705876577364,0.013109562710342202,,,,,0.47044701611550344,1694,1906,0,,WHITE,,,0,,WHITE,True,CORRECT,0.8648289000011573,864.8289000011573
7,20260325_141148,J,D,True,MANUAL,2,491,791,fixed_delta,0.033374705876577364,0.013109562710342202,,,,,0.4654895968113708,1676,1924,0,,WHITE,,,0,,WHITE,True,CORRECT,1.5072355000011157,1507.2355000011157
7,20260325_141148,J,D,True,MANUAL,2,492,792,fixed_delta,0.033374705876577364,0.013109562710342202,,,,,0.45807834788595536,1649,1951,0,,WHITE,,,0,,WHITE,True,CORRECT,0.6870400000007066,687.0400000007066
