participant_id,run_timestamp,key_black,key_white,keymap_flip,block,block_idx,trial,global_trial,difficulty_mode,delta_fixed_mean,delta_fixed_sd,delta_stair_realised,delta_stair_mean,delta_step_down_used,delta_step_up_used,vblack_prop,n_vblack,n_vwhite,auto_on,aid_accuracy_setting,stimulus,aid_label,aid_correct,aid_onset_ms,aid_onset_ms_rel,response,correct,feedback,rt_s,rt_ms
7,20260325_141148,J,D,True,AUTOMATION2,4,1,1301,fixed_delta,0.033374705876577364,0.013109562710342202,,,,,0.4591601188752151,1653,1947,1,0.65,WHITE,WHITE,True,0,0.0013999997463542968,WHITE,True,CORRECT,1.1209350000026461,1120.9350000026461
7,20260325_141148,J,D,True,AUTOMATION2,4,2,1302,fixed_delta,0.033374705876577364,0.013109562710342202,,,,,0.4868928317774777,1753,1847,1,0.65,WHITE,BLACK,False,0,0.004400000761961564,BLACK,False,INCORRECT,1.050612099999853,1050.612099999853
7,20260325_141148,J,D,True,AUTOMATION2,4,3,1303,fixed_delta,0.033374705876577364,0.013109562710342202,,,,,0.44802554391495647,1613,1987,1,0.65,WHITE,BLACK,False,0,0.0032999996619764715,WHITE,True,CORRECT,0.6700479999999516,670.0479999999516
7,20260325_141148,J,D,True,AUTOMATION2,4,4,1304,fixed_delta,0.033374705876577364,0.013109562710342202,,,,,0.5377608889881841,1936,1664,1,0.65,BLACK,BLACK,True,0,0.0010999974620062858,BLACK,True,CORRECT,0.6050198999982968,605.0198999982968
7,20260325_141148,J,D,True,AUTOMATION2,4,5,1305,fixed_delta,0.033374705876577364,0.013109562710342202,,,,,0.46955833530539076,1690,1910,1,0.65,WHITE,WHITE,True,0,0.0008999995770864189,WHITE,True,CORRECT,0.5307582000023103,530.7582000023103
7,20260325_141148,J,D,True,AUTOMATION2,4,6,1306,fixed_delta,0.033374705876577364,0.013109562710342202,,,,,0.46270773738436677,1666,1934,1,0.65,WHITE,WHITE,True,0,0.0015000005078036338,WHITE,True,CORRECT,0.7342467999988003,734.2467999988003
7,20260325_141148,J,D,True,AUTOMATION2,4,7,1307,fixed_delta,0.033374705876577364,0.013109562710342202,,,,,0.5279386566123041,1901,1699,1,0.65,BLACK,BLACK,True,0,0.0011999982234556228,BLACK,True,CORRECT,0.5118784999976924,511.8784999976924
7,20260325_141148,J,D,True,AUTOMATION2,4,8,1308,fixed_delta,0.033374705876577364,0.013109562710342202,,,,,0.48096878932663323,1731,1869,1,0.65,WHITE,WHITE,True,0,0.000900003215065226,WHITE,True,CORRECT,0.8209495000010065,820.9495000010065
7,20260325_141148,J,D,True,AUTOMATION2,4,9,1309,fixed_delta,0.033374705876577364,0.013109562710342202,,,,,0.4680460986983448,1685,1915,1,0.65,WHITE,WHITE,True,0,0.0012000018614344299,WHITE,True,CORRECT,0.49184020000029705,491.84020000029705
7,20260325_141148,J,D,True,AUTOMATION2,4,10,1310,fixed_delta,0.033374705876577364,0.013109562710342202,,,,,0.47438161715962013,1708,1892,1,0.65,WHITE,BLACK,False,0,0.0011000010999850929,BLACK,False,INCORRECT,0.4670795999991242,467.0795999991242
7,20260325_141148,J,D,True,AUTOMATION2,4,11,1311,fixed_delta,0.033374705876577364,0.013109562710342202,,,,,0.4873379515340709,1754,1846,1,0.65,WHITE,WHITE,True,0,0.0010000003385357559,WHITE,True,CORRECT,1.965091099998972,1965.091099998972
7,20260325_141148,J,D,True,AUTOMATION2,4,12,1312,fixed_delta,0.033374705876577364,0.013109562710342202,,,,,0.5106666220379226,1838,1762,1,0.65,BLACK,WHITE,False,0,0.0011999982234556228,BLACK,True,CORRECT,0.5475952999986475,547.5952999986475
7,20260325_141148,J,D,True,AUTOMATION2,4,13,1313,fixed_delta,0.033374705876577364,0.013109562710342202,,,,,0.5090197563596232,1832,1768,1,0.65,BLACK,WHITE,False,0,0.0011999982234556228,BLACK,True,CORRECT,0.6571103999995103,657.1103999995103
7,20260325_141148,J,D,True,AUTOMATION2,4,14,1314,fixed_delta,0.033374705876577364,0.013109562710342202,,,,,0.4687257014074809,1687,1913,1,0.65,WHITE,WHITE,True,0,0.0011000010999850929,WHITE,True,CORRECT,0.8196750999995857,819.6750999995857
7,20260325_141148,J,D,True,AUTOMATION2,4,15,1315,fixed_delta,0.033374705876577364,0.013109562710342202,,,,,0.46353395305850154,1669,1931,1,0.65,WHITE,WHITE,True,0,0.0013999997463542968,BLACK,False,INCORRECT,0.5488611000000674,548.8611000000674
7,20260325_141148,J,D,True,AUTOMATION2,4,16,1316,fixed_delta,0.033374705876577364,0.013109562710342202,,,,,0.4616093738690491,1662,1938,1,0.65,WHITE,BLACK,False,0,0.0010999974620062858,BLACK,False,INCORRECT,0.6861380999980611,686.1380999980611
7,20260325_141148,J,D,True,AUTOMATION2,4,17,1317,fixed_delta,0.033374705876577364,0.013109562710342202,,,,,0.47829055221918204,1722,1878,1,0.65,WHITE,WHITE,True,0,0.0013999997463542968,WHITE,True,CORRECT,0.9103377999999793,910.3377999999793
7,20260325_141148,J,D,True,AUTOMATION2,4,18,1318,fixed_delta,0.033374705876577364,0.013109562710342202,,,,,0.4654810970203851,1676,1924,1,0.65,WHITE,BLACK,False,0,0.0013999997463542968,WHITE,True,CORRECT,0.8386251000010816,838.6251000010816
7,20260325_141148,J,D,True,AUTOMATION2,4,19,1319,fixed_delta,0.033374705876577364,0.013109562710342202,,,,,0.43279937531641927,1558,2042,1,0.65,WHITE,WHITE,True,0,0.0013999997463542968,WHITE,True,CORRECT,0.8015976999995473,801.5976999995473
7,20260325_141148,J,D,True,AUTOMATION2,4,20,1320,fixed_delta,0.033374705876577364,0.013109562710342202,,,,,0.48169348060921613,1734,1866,1,0.65,WHITE,WHITE,True,0,0.000900003215065226,WHITE,True,CORRECT,0.6808088000034331,680.8088000034331
7,20260325_141148,J,D,True,AUTOMATION2,4,21,1321,fixed_delta,0.033374705876577364,0.013109562710342202,,,,,0.5315464171471127,1914,1686,1,0.65,BLACK,BLACK,True,0,0.0015000005078036338,WHITE,False,INCORRECT,0.7676380000011704,767.6380000011704
7,20260325_141148,J,D,True,AUTOMATION2,4,22,1322,fixed_delta,0.033374705876577364,0.013109562710342202,,,,,0.5326093567316813,1917,1683,1,0.65,BLACK,BLACK,True,0,0.0009999967005569488,BLACK,True,CORRECT,0.5958151999984693,595.8151999984693
7,20260325_141148,J,D,True,AUTOMATION2,4,23,1323,fixed_delta,0.033374705876577364,0.013109562710342202,,,,,0.5259848104617838,1894,1706,1,0.65,BLACK,WHITE,False,0,0.0010000003385357559,WHITE,False,INCORRECT,0.8563382000029378,856.3382000029378
7,20260325_141148,J,D,True,AUTOMATION2,4,24,1324,fixed_delta,0.033374705876577364,0.013109562710342202,,,,,0.5566843422516121,2004,1596,1,0.65,BLACK,BLACK,True,0,0.0015000005078036338,BLACK,True,CORRECT,0.8320325999993656,832.0325999993656
7,20260325_141148,J,D,True,AUTOMATION2,4,25,1325,fixed_delta,0.033374705876577364,0.013109562710342202,,,,,0.5359387011122718,1929,1671,1,0.65,BLACK,BLACK,True,0,0.0009999967005569488,WHITE,False,INCORRECT,0.7869254999968689,786.9254999968689
7,20260325_141148,J,D,True,AUTOMATION2,4,26,1326,fixed_delta,0.033374705876577364,0.013109562710342202,,,,,0.43477604379321166,1565,2035,1,0.65,WHITE,BLACK,False,0,0.0012999989849049598,WHITE,True,CORRECT,0.47868819999712287,478.68819999712287
7,20260325_141148,J,D,True,AUTOMATION2,4,27,1327,fixed_delta,0.033374705876577364,0.013109562710342202,,,,,0.46074291428341263,1659,1941,1,0.65,WHITE,BLACK,False,0,0.0013999997463542968,WHITE,True,CORRECT,0.5618938999978127,561.8938999978127
7,20260325_141148,J,D,True,AUTOMATION2,4,28,1328,fixed_delta,0.033374705876577364,0.013109562710342202,,,,,0.5474037254078595,1971,1629,1,0.65,BLACK,BLACK,True,0,0.0015000005078036338,BLACK,True,CORRECT,0.584376800001337,584.376800001337
7,20260325_141148,J,D,True,AUTOMATION2,4,29,1329,fixed_delta,0.033374705876577364,0.013109562710342202,,,,,0.4416421720220953,1590,2010,1,0.65,WHITE,WHITE,True,0,0.0022000021999701858,WHITE,True,CORRECT,0.9203879000015149,920.3879000015149
7,20260325_141148,J,D,True,AUTOMATION2,4,30,1330,fixed_delta,0.033374705876577364,0.013109562710342202,,,,,0.5324597537755635,1917,1683,1,0.65,BLACK,BLACK,True,0,0.0015000005078036338,WHITE,False,INCORRECT,0.7224372000018775,722.4372000018775
7,20260325_141148,J,D,True,AUTOMATION2,4,31,1331,fixed_delta,0.033374705876577364,0.013109562710342202,,,,,0.5442973395759925,1959,1641,1,0.65,BLACK,BLACK,True,0,0.0012999989849049598,WHITE,False,INCORRECT,0.7315447000000859,731.5447000000859
7,20260325_141148,J,D,True,AUTOMATION2,4,32,1332,fixed_delta,0.033374705876577364,0.013109562710342202,,,,,0.5421839127775516,1952,1648,1,0.65,BLACK,WHITE,False,0,0.0020999978005420417,BLACK,True,CORRECT,0.6882952999985719,688.2952999985719
7,20260325_141148,J,D,True,AUTOMATION2,4,33,1333,fixed_delta,0.033374705876577364,0.013109562710342202,,,,,0.5250992331078255,1890,1710,1,0.65,BLACK,BLACK,True,0,0.0010000003385357559,WHITE,False,INCORRECT,0.6923729000009189,692.3729000009189
7,20260325_141148,J,D,True,AUTOMATION2,4,34,1334,fixed_delta,0.033374705876577364,0.013109562710342202,,,,,0.45027702437458184,1621,1979,1,0.65,WHITE,WHITE,True,0,0.0012999989849049598,WHITE,True,CORRECT,0.4952770000018063,495.2770000018063
7,20260325_141148,J,D,True,AUTOMATION2,4,35,1335,fixed_delta,0.033374705876577364,0.013109562710342202,,,,,0.4715153418534376,1697,1903,1,0.65,WHITE,WHITE,True,0,0.0010000003385357559,WHITE,True,CORRECT,0.8913517000000866,891.3517000000866
7,20260325_141148,J,D,True,AUTOMATION2,4,36,1336,fixed_delta,0.033374705876577364,0.013109562710342202,,,,,0.46226238580837853,1664,1936,1,0.65,WHITE,WHITE,True,0,0.0012000018614344299,WHITE,True,CORRECT,0.5849054999998771,584.9054999998771
7,20260325_141148,J,D,True,AUTOMATION2,4,37,1337,fixed_delta,0.033374705876577364,0.013109562710342202,,,,,0.4785383275497007,1723,1877,1,0.65,WHITE,BLACK,False,0,0.0012999989849049598,BLACK,False,INCORRECT,0.6138778999993519,613.8778999993519
7,20260325_141148,J,D,True,AUTOMATION2,4,38,1338,fixed_delta,0.033374705876577364,0.013109562710342202,,,,,0.5475625425135923,1971,1629,1,0.65,BLACK,BLACK,True,0,0.0011000010999850929,BLACK,True,CORRECT,0.6396615999983624,639.6615999983624
7,20260325_141148,J,D,True,AUTOMATION2,4,39,1339,fixed_delta,0.033374705876577364,0.013109562710342202,,,,,0.4453096297351077,1603,1997,1,0.65,WHITE,WHITE,True,0,0.0012999989849049598,WHITE,True,CORRECT,0.6371698999973887,637.1698999973887
7,20260325_141148,J,D,True,AUTOMATION2,4,40,1340,fixed_delta,0.033374705876577364,0.013109562710342202,,,,,0.5238148589818256,1886,1714,1,0.65,BLACK,BLACK,True,0,0.0012000018614344299,WHITE,False,INCORRECT,0.6021005000002333,602.1005000002333
7,20260325_141148,J,D,True,AUTOMATION2,4,41,1341,fixed_delta,0.033374705876577364,0.013109562710342202,,,,,0.4779864229696852,1721,1879,1,0.65,WHITE,WHITE,True,0,0.0015000005078036338,WHITE,True,CORRECT,0.5258898000029149,525.8898000029149
7,20260325_141148,J,D,True,AUTOMATION2,4,42,1342,fixed_delta,0.033374705876577364,0.013109562710342202,,,,,0.4687682659058756,1688,1912,1,0.65,WHITE,BLACK,False,0,0.0012000018614344299,WHITE,True,CORRECT,0.7213584999990417,721.3584999990417
7,20260325_141148,J,D,True,AUTOMATION2,4,43,1343,fixed_delta,0.033374705876577364,0.013109562710342202,,,,,0.5034607370795068,1812,1788,1,0.65,BLACK,BLACK,True,0,0.0011000010999850929,WHITE,False,INCORRECT,0.8953596999999718,895.3596999999718
7,20260325_141148,J,D,True,AUTOMATION2,4,44,1344,fixed_delta,0.033374705876577364,0.013109562710342202,,,,,0.5420984366079039,1952,1648,1,0.65,BLACK,BLACK,True,0,0.0010999974620062858,WHITE,False,INCORRECT,0.659657199998037,659.657199998037
7,20260325_141148,J,D,True,AUTOMATION2,4,45,1345,fixed_delta,0.033374705876577364,0.013109562710342202,,,,,0.4794438819347726,1726,1874,1,0.65,WHITE,WHITE,True,0,0.0011000010999850929,WHITE,True,CORRECT,0.47729439999966417,477.29439999966417
7,20260325_141148,J,D,True,AUTOMATION2,4,46,1346,fixed_delta,0.033374705876577364,0.013109562710342202,,,,,0.5332868949305846,1920,1680,1,0.65,BLACK,WHITE,False,0,0.0011999982234556228,BLACK,True,CORRECT,0.7632518999998865,763.2518999998865
7,20260325_141148,J,D,True,AUTOMATION2,4,47,1347,fixed_delta,0.033374705876577364,0.013109562710342202,,,,,0.47324671079234715,1704,1896,1,0.65,WHITE,BLACK,False,0,0.0010999974620062858,WHITE,True,CORRECT,0.6376249999993888,637.6249999993888
7,20260325_141148,J,D,True,AUTOMATION2,4,48,1348,fixed_delta,0.033374705876577364,0.013109562710342202,,,,,0.46394012597890955,1670,1930,1,0.65,WHITE,BLACK,False,0,0.0013999997463542968,WHITE,True,CORRECT,0.5877555000006396,587.7555000006396
7,20260325_141148,J,D,True,AUTOMATION2,4,49,1349,fixed_delta,0.033374705876577364,0.013109562710342202,,,,,0.4789167883776075,1724,1876,1,0.65,WHITE,WHITE,True,0,0.0011999982234556228,WHITE,True,CORRECT,0.588042299998051,588.042299998051
7,20260325_141148,J,D,True,AUTOMATION2,4,50,1350,fixed_delta,0.033374705876577364,0.013109562710342202,,,,,0.449345352577239,1618,1982,1,0.65,WHITE,BLACK,False,0,0.0012999989849049598,WHITE,True,CORRECT,0.47957989999849815,479.57989999849815
7,20260325_141148,J,D,True,AUTOMATION2,4,51,1351,fixed_delta,0.033374705876577364,0.013109562710342202,,,,,0.4503549901529193,1621,1979,1,0.65,WHITE,WHITE,True,0,0.0010000003385357559,WHITE,True,CORRECT,0.5775929000010365,577.5929000010365
7,20260325_141148,J,D,True,AUTOMATION2,4,52,1352,fixed_delta,0.033374705876577364,0.013109562710342202,,,,,0.5474669448742457,1971,1629,1,0.65,BLACK,BLACK,True,0,0.0015000005078036338,BLACK,True,CORRECT,0.8942428000009386,894.2428000009386
7,20260325_141148,J,D,True,AUTOMATION2,4,53,1353,fixed_delta,0.033374705876577364,0.013109562710342202,,,,,0.47013832437538716,1692,1908,1,0.65,WHITE,WHITE,True,0,0.0010999974620062858,WHITE,True,CORRECT,0.45965219999925466,459.65219999925466
7,20260325_141148,J,D,True,AUTOMATION2,4,54,1354,fixed_delta,0.033374705876577364,0.013109562710342202,,,,,0.4585176170058612,1651,1949,1,0.65,WHITE,BLACK,False,0,0.0010000003385357559,BLACK,False,INCORRECT,0.5014674999983981,501.4674999983981
7,20260325_141148,J,D,True,AUTOMATION2,4,55,1355,fixed_delta,0.033374705876577364,0.013109562710342202,,,,,0.5211421205776768,1876,1724,1,0.65,BLACK,BLACK,True,0,0.0011999982234556228,WHITE,False,INCORRECT,0.8131316999970295,813.1316999970295
7,20260325_141148,J,D,True,AUTOMATION2,4,56,1356,fixed_delta,0.033374705876577364,0.013109562710342202,,,,,0.5390029618643356,1940,1660,1,0.65,BLACK,BLACK,True,0,0.0008999995770864189,BLACK,True,CORRECT,0.9042217999995046,904.2217999995046
7,20260325_141148,J,D,True,AUTOMATION2,4,57,1357,fixed_delta,0.033374705876577364,0.013109562710342202,,,,,0.5355996353519985,1928,1672,1,0.65,BLACK,BLACK,True,0,0.0018999999156221747,BLACK,True,CORRECT,0.6116948999988381,611.6948999988381
7,20260325_141148,J,D,True,AUTOMATION2,4,58,1358,fixed_delta,0.033374705876577364,0.013109562710342202,,,,,0.4568283097128627,1645,1955,1,0.65,WHITE,BLACK,False,0,0.0010000003385357559,WHITE,True,CORRECT,0.5785113000019919,578.5113000019919
7,20260325_141148,J,D,True,AUTOMATION2,4,59,1359,fixed_delta,0.033374705876577364,0.013109562710342202,,,,,0.4530479316965547,1631,1969,1,0.65,WHITE,WHITE,True,0,0.0015000005078036338,WHITE,True,CORRECT,0.5367456000021775,536.7456000021775
7,20260325_141148,J,D,True,AUTOMATION2,4,60,1360,fixed_delta,0.033374705876577364,0.013109562710342202,,,,,0.45142730990580693,1625,1975,1,0.65,WHITE,WHITE,True,0,0.0012999989849049598,WHITE,True,CORRECT,0.5808627000005799,580.8627000005799
7,20260325_141148,J,D,True,AUTOMATION2,4,61,1361,fixed_delta,0.033374705876577364,0.013109562710342202,,,,,0.5228163668968524,1882,1718,1,0.65,BLACK,WHITE,False,0,0.0008999995770864189,BLACK,True,CORRECT,0.5744739000001573,574.4739000001573
7,20260325_141148,J,D,True,AUTOMATION2,4,62,1362,fixed_delta,0.033374705876577364,0.013109562710342202,,,,,0.4589191569689109,1652,1948,1,0.65,WHITE,WHITE,True,0,0.0013999997463542968,WHITE,True,CORRECT,0.5938064000001759,593.8064000001759
7,20260325_141148,J,D,True,AUTOMATION2,4,63,1363,fixed_delta,0.033374705876577364,0.013109562710342202,,,,,0.5168440004822571,1861,1739,1,0.65,BLACK,BLACK,True,0,0.0015000005078036338,WHITE,False,INCORRECT,0.46582889999990584,465.82889999990584
7,20260325_141148,J,D,True,AUTOMATION2,4,64,1364,fixed_delta,0.033374705876577364,0.013109562710342202,,,,,0.52215124854429,1880,1720,1,0.65,BLACK,BLACK,True,0,0.0010000003385357559,BLACK,True,CORRECT,0.4991279999994731,499.1279999994731
7,20260325_141148,J,D,True,AUTOMATION2,4,65,1365,fixed_delta,0.033374705876577364,0.013109562710342202,,,,,0.4692428901529503,1689,1911,1,0.65,WHITE,WHITE,True,0,0.0010000003385357559,WHITE,True,CORRECT,0.5806526000014856,580.6526000014856
7,20260325_141148,J,D,True,AUTOMATION2,4,66,1366,fixed_delta,0.033374705876577364,0.013109562710342202,,,,,0.5540693083883543,1995,1605,1,0.65,BLACK,BLACK,True,0,0.0010999974620062858,BLACK,True,CORRECT,0.6014508000007481,601.4508000007481
7,20260325_141148,J,D,True,AUTOMATION2,4,67,1367,fixed_delta,0.033374705876577364,0.013109562710342202,,,,,0.5547013524125528,1997,1603,1,0.65,BLACK,WHITE,False,0,0.0009999967005569488,BLACK,True,CORRECT,0.52982129999873,529.82129999873
7,20260325_141148,J,D,True,AUTOMATION2,4,68,1368,fixed_delta,0.033374705876577364,0.013109562710342202,,,,,0.4771859495952373,1718,1882,1,0.65,WHITE,WHITE,True,0,0.0015000005078036338,WHITE,True,CORRECT,0.6439962000004016,643.9962000004016
7,20260325_141148,J,D,True,AUTOMATION2,4,69,1369,fixed_delta,0.033374705876577364,0.013109562710342202,,,,,0.5033701589709911,1812,1788,1,0.65,BLACK,WHITE,False,0,0.0013000026228837669,BLACK,True,CORRECT,0.509287900000345,509.28790000034496
7,20260325_141148,J,D,True,AUTOMATION2,4,70,1370,fixed_delta,0.033374705876577364,0.013109562710342202,,,,,0.5457919105329063,1965,1635,1,0.65,BLACK,WHITE,False,0,0.0010000003385357559,BLACK,True,CORRECT,0.592383899998822,592.383899998822
7,20260325_141148,J,D,True,AUTOMATION2,4,71,1371,fixed_delta,0.033374705876577364,0.013109562710342202,,,,,0.5272920194419985,1898,1702,1,0.65,BLACK,BLACK,True,0,0.0011999982234556228,WHITE,False,INCORRECT,0.5910584000012022,591.0584000012022
7,20260325_141148,J,D,True,AUTOMATION2,4,72,1372,fixed_delta,0.033374705876577364,0.013109562710342202,,,,,0.4664093608718135,1679,1921,1,0.65,WHITE,WHITE,True,0,0.0011999982234556228,BLACK,False,INCORRECT,0.7104512000005343,710.4512000005343
7,20260325_141148,J,D,True,AUTOMATION2,4,73,1373,fixed_delta,0.033374705876577364,0.013109562710342202,,,,,0.5245137400377676,1888,1712,1,0.65,BLACK,WHITE,False,0,0.0016000012692529708,BLACK,True,CORRECT,0.4357562000004691,435.7562000004691
7,20260325_141148,J,D,True,AUTOMATION2,4,74,1374,fixed_delta,0.033374705876577364,0.013109562710342202,,,,,0.4794880322338932,1726,1874,1,0.65,WHITE,WHITE,True,0,0.0011999982234556228,WHITE,True,CORRECT,0.6059797999987495,605.9797999987495
7,20260325_141148,J,D,True,AUTOMATION2,4,75,1375,fixed_delta,0.033374705876577364,0.013109562710342202,,,,,0.44657158356481613,1608,1992,1,0.65,WHITE,WHITE,True,0,0.000900003215065226,WHITE,True,CORRECT,0.6098511000018334,609.8511000018334
7,20260325_141148,J,D,True,AUTOMATION2,4,76,1376,fixed_delta,0.033374705876577364,0.013109562710342202,,,,,0.5232421387940401,1884,1716,1,0.65,BLACK,BLACK,True,0,0.0009999967005569488,BLACK,True,CORRECT,0.5189124999997148,518.9124999997148
7,20260325_141148,J,D,True,AUTOMATION2,4,77,1377,fixed_delta,0.033374705876577364,0.013109562710342202,,,,,0.5254747674436623,1892,1708,1,0.65,BLACK,BLACK,True,0,0.0030999981390777975,BLACK,True,CORRECT,0.7994144999975106,799.4144999975106
7,20260325_141148,J,D,True,AUTOMATION2,4,78,1378,fixed_delta,0.033374705876577364,0.013109562710342202,,,,,0.5330877188061284,1919,1681,1,0.65,BLACK,BLACK,True,0,0.0011000010999850929,WHITE,False,INCORRECT,0.9082553000007465,908.2553000007465
7,20260325_141148,J,D,True,AUTOMATION2,4,79,1379,fixed_delta,0.033374705876577364,0.013109562710342202,,,,,0.4723635521055034,1701,1899,1,0.65,WHITE,BLACK,False,0,0.0008999995770864189,WHITE,True,CORRECT,0.49925140000050305,499.25140000050305
7,20260325_141148,J,D,True,AUTOMATION2,4,80,1380,fixed_delta,0.033374705876577364,0.013109562710342202,,,,,0.5153627591909029,1855,1745,1,0.65,BLACK,WHITE,False,0,0.0008999995770864189,BLACK,True,CORRECT,0.5887775999981386,588.7775999981386
7,20260325_141148,J,D,True,AUTOMATION2,4,81,1381,fixed_delta,0.033374705876577364,0.013109562710342202,,,,,0.5307415091226134,1911,1689,1,0.65,BLACK,BLACK,True,0,0.0011000010999850929,BLACK,True,CORRECT,0.4789340999996057,478.9340999996057
7,20260325_141148,J,D,True,AUTOMATION2,4,82,1382,fixed_delta,0.033374705876577364,0.013109562710342202,,,,,0.4725330873027618,1701,1899,1,0.65,WHITE,WHITE,True,0,0.0010000003385357559,WHITE,True,CORRECT,0.6466632000010577,646.6632000010577
7,20260325_141148,J,D,True,AUTOMATION2,4,83,1383,fixed_delta,0.033374705876577364,0.013109562710342202,,,,,0.4851941636256986,1747,1853,1,0.65,WHITE,WHITE,True,0,0.0010000003385357559,WHITE,True,CORRECT,0.5682811999977275,568.2811999977275
7,20260325_141148,J,D,True,AUTOMATION2,4,84,1384,fixed_delta,0.033374705876577364,0.013109562710342202,,,,,0.49434118313167597,1780,1820,1,0.65,WHITE,BLACK,False,0,0.0014999968698248267,WHITE,True,CORRECT,0.5954801999978372,595.4801999978372
7,20260325_141148,J,D,True,AUTOMATION2,4,85,1385,fixed_delta,0.033374705876577364,0.013109562710342202,,,,,0.47281980843200383,1702,1898,1,0.65,WHITE,BLACK,False,0,0.0012999989849049598,WHITE,True,CORRECT,1.0662647999997716,1066.2647999997716
7,20260325_141148,J,D,True,AUTOMATION2,4,86,1386,fixed_delta,0.033374705876577364,0.013109562710342202,,,,,0.4782568276463471,1722,1878,1,0.65,WHITE,WHITE,True,0,0.0010000003385357559,WHITE,True,CORRECT,0.6474711000009847,647.4711000009847
7,20260325_141148,J,D,True,AUTOMATION2,4,87,1387,fixed_delta,0.033374705876577364,0.013109562710342202,,,,,0.534675896993424,1925,1675,1,0.65,BLACK,WHITE,False,0,0.0011999982234556228,BLACK,True,CORRECT,0.5093663999978162,509.3663999978162
7,20260325_141148,J,D,True,AUTOMATION2,4,88,1388,fixed_delta,0.033374705876577364,0.013109562710342202,,,,,0.4713603716445034,1697,1903,1,0.65,WHITE,WHITE,True,0,0.0011999982234556228,WHITE,True,CORRECT,0.46543540000129724,465.43540000129724
7,20260325_141148,J,D,True,AUTOMATION2,4,89,1389,fixed_delta,0.033374705876577364,0.013109562710342202,,,,,0.4863675783765559,1751,1849,1,0.65,WHITE,WHITE,True,0,0.0012999989849049598,WHITE,True,CORRECT,0.46942699999999604,469.42699999999604
7,20260325_141148,J,D,True,AUTOMATION2,4,90,1390,fixed_delta,0.033374705876577364,0.013109562710342202,,,,,0.5346041183253482,1925,1675,1,0.65,BLACK,BLACK,True,0,0.0010999974620062858,BLACK,True,CORRECT,0.8824441999968258,882.4441999968258
7,20260325_141148,J,D,True,AUTOMATION2,4,91,1391,fixed_delta,0.033374705876577364,0.013109562710342202,,,,,0.5141116996738986,1851,1749,1,0.65,BLACK,BLACK,True,0,0.0011999982234556228,BLACK,True,CORRECT,0.5113186999988102,511.3186999988102
7,20260325_141148,J,D,True,AUTOMATION2,4,92,1392,fixed_delta,0.033374705876577364,0.013109562710342202,,,,,0.49527802629837875,1783,1817,1,0.65,WHITE,BLACK,False,0,0.0011999982234556228,BLACK,False,INCORRECT,0.9580043999994814,958.0043999994814
7,20260325_141148,J,D,True,AUTOMATION2,4,93,1393,fixed_delta,0.033374705876577364,0.013109562710342202,,,,,0.5235994202225477,1885,1715,1,0.65,BLACK,WHITE,False,0,0.0012999989849049598,BLACK,True,CORRECT,0.561213899996801,561.213899996801
7,20260325_141148,J,D,True,AUTOMATION2,4,94,1394,fixed_delta,0.033374705876577364,0.013109562710342202,,,,,0.53117483528155,1912,1688,1,0.65,BLACK,BLACK,True,0,0.0012999989849049598,WHITE,False,INCORRECT,0.7202742000008584,720.2742000008584
7,20260325_141148,J,D,True,AUTOMATION2,4,95,1395,fixed_delta,0.033374705876577364,0.013109562710342202,,,,,0.5595770046816018,2014,1586,1,0.65,BLACK,BLACK,True,0,0.0012999989849049598,BLACK,True,CORRECT,0.5103285999975924,510.3285999975924
7,20260325_141148,J,D,True,AUTOMATION2,4,96,1396,fixed_delta,0.033374705876577364,0.013109562710342202,,,,,0.45737221138895046,1647,1953,1,0.65,WHITE,WHITE,True,0,0.0008999995770864189,WHITE,True,CORRECT,0.5898964000007254,589.8964000007254
7,20260325_141148,J,D,True,AUTOMATION2,4,97,1397,fixed_delta,0.033374705876577364,0.013109562710342202,,,,,0.5275726419768402,1899,1701,1,0.65,BLACK,BLACK,True,0,0.0011000010999850929,BLACK,True,CORRECT,0.546880499998224,546.880499998224
7,20260325_141148,J,D,True,AUTOMATION2,4,98,1398,fixed_delta,0.033374705876577364,0.013109562710342202,,,,,0.5125357231007718,1845,1755,1,0.65,BLACK,BLACK,True,0,0.0012000018614344299,WHITE,False,INCORRECT,0.5978698000035365,597.8698000035365
7,20260325_141148,J,D,True,AUTOMATION2,4,99,1399,fixed_delta,0.033374705876577364,0.013109562710342202,,,,,0.5398075552941267,1943,1657,1,0.65,BLACK,BLACK,True,0,0.0008999995770864189,WHITE,False,INCORRECT,0.7124089000026288,712.4089000026288
7,20260325_141148,J,D,True,AUTOMATION2,4,100,1400,fixed_delta,0.033374705876577364,0.013109562710342202,,,,,0.4627133104337371,1666,1934,1,0.65,WHITE,WHITE,True,0,0.0009999967005569488,WHITE,True,CORRECT,0.6537215999996988,653.7215999996988
7,20260325_141148,J,D,True,AUTOMATION2,4,101,1401,fixed_delta,0.033374705876577364,0.013109562710342202,,,,,0.4660356199297787,1678,1922,1,0.65,WHITE,WHITE,True,0,0.0015000005078036338,WHITE,True,CORRECT,0.6830622999987099,683.0622999987099
7,20260325_141148,J,D,True,AUTOMATION2,4,102,1402,fixed_delta,0.033374705876577364,0.013109562710342202,,,,,0.550953096134464,1983,1617,1,0.65,BLACK,WHITE,False,0,0.0013999997463542968,BLACK,True,CORRECT,0.49754810000013094,497.54810000013094
7,20260325_141148,J,D,True,AUTOMATION2,4,103,1403,fixed_delta,0.033374705876577364,0.013109562710342202,,,,,0.45940608501191366,1654,1946,1,0.65,WHITE,WHITE,True,0,0.0010999974620062858,WHITE,True,CORRECT,0.5309788999984448,530.9788999984448
7,20260325_141148,J,D,True,AUTOMATION2,4,104,1404,fixed_delta,0.033374705876577364,0.013109562710342202,,,,,0.5314912436643838,1913,1687,1,0.65,BLACK,WHITE,False,0,0.0011999982234556228,WHITE,False,INCORRECT,0.8648733000009088,864.8733000009088
7,20260325_141148,J,D,True,AUTOMATION2,4,105,1405,fixed_delta,0.033374705876577364,0.013109562710342202,,,,,0.5287925009878649,1904,1696,1,0.65,BLACK,WHITE,False,0,0.0007999988156370819,WHITE,False,INCORRECT,0.6320450999992318,632.0450999992318
7,20260325_141148,J,D,True,AUTOMATION2,4,106,1406,fixed_delta,0.033374705876577364,0.013109562710342202,,,,,0.48472040160302765,1745,1855,1,0.65,WHITE,WHITE,True,0,0.0015999976312741637,WHITE,True,CORRECT,0.5082469000008132,508.2469000008132
7,20260325_141148,J,D,True,AUTOMATION2,4,107,1407,fixed_delta,0.033374705876577364,0.013109562710342202,,,,,0.5316070395067589,1914,1686,1,0.65,BLACK,BLACK,True,0,0.0017000020307023078,BLACK,True,CORRECT,0.5398784999997588,539.8784999997588
7,20260325_141148,J,D,True,AUTOMATION2,4,108,1408,fixed_delta,0.033374705876577364,0.013109562710342202,,,,,0.4731505531734998,1703,1897,1,0.65,WHITE,WHITE,True,0,0.0013000026228837669,WHITE,True,CORRECT,0.6005834999996296,600.5834999996296
7,20260325_141148,J,D,True,AUTOMATION2,4,109,1409,fixed_delta,0.033374705876577364,0.013109562710342202,,,,,0.4495084534571988,1618,1982,1,0.65,WHITE,WHITE,True,0,0.0013999997463542968,WHITE,True,CORRECT,0.5482360999994853,548.2360999994853
7,20260325_141148,J,D,True,AUTOMATION2,4,110,1410,fixed_delta,0.033374705876577364,0.013109562710342202,,,,,0.4331495407662057,1559,2041,1,0.65,WHITE,WHITE,True,0,0.0013000026228837669,WHITE,True,CORRECT,0.4939782000001287,493.9782000001287
7,20260325_141148,J,D,True,AUTOMATION2,4,111,1411,fixed_delta,0.033374705876577364,0.013109562710342202,,,,,0.47426882717918184,1707,1893,1,0.65,WHITE,WHITE,True,0,0.0012000018614344299,WHITE,True,CORRECT,0.6037265000013576,603.7265000013576
7,20260325_141148,J,D,True,AUTOMATION2,4,112,1412,fixed_delta,0.033374705876577364,0.013109562710342202,,,,,0.44301296048412186,1595,2005,1,0.65,WHITE,WHITE,True,0,0.0009999967005569488,WHITE,True,CORRECT,0.5977731999992102,597.7731999992102
7,20260325_141148,J,D,True,AUTOMATION2,4,113,1413,fixed_delta,0.033374705876577364,0.013109562710342202,,,,,0.47056460213164586,1694,1906,1,0.65,WHITE,WHITE,True,0,0.0011999982234556228,WHITE,True,CORRECT,0.4658111999997345,465.8111999997345
7,20260325_141148,J,D,True,AUTOMATION2,4,114,1414,fixed_delta,0.033374705876577364,0.013109562710342202,,,,,0.4651910382801856,1675,1925,1,0.65,WHITE,WHITE,True,0,0.0013000026228837669,WHITE,True,CORRECT,0.46221979999972973,462.21979999972973
7,20260325_141148,J,D,True,AUTOMATION2,4,115,1415,fixed_delta,0.033374705876577364,0.013109562710342202,,,,,0.5077423476579164,1828,1772,1,0.65,BLACK,BLACK,True,0,0.0012999989849049598,BLACK,True,CORRECT,0.7523813000007067,752.3813000007067
7,20260325_141148,J,D,True,AUTOMATION2,4,116,1416,fixed_delta,0.033374705876577364,0.013109562710342202,,,,,0.546419532367546,1967,1633,1,0.65,BLACK,BLACK,True,0,0.0012000018614344299,BLACK,True,CORRECT,0.6866367000002356,686.6367000002356
7,20260325_141148,J,D,True,AUTOMATION2,4,117,1417,fixed_delta,0.033374705876577364,0.013109562710342202,,,,,0.46188690043999087,1663,1937,1,0.65,WHITE,WHITE,True,0,0.0017000020307023078,WHITE,True,CORRECT,0.553795200001332,553.795200001332
7,20260325_141148,J,D,True,AUTOMATION2,4,118,1418,fixed_delta,0.033374705876577364,0.013109562710342202,,,,,0.5246789027421656,1889,1711,1,0.65,BLACK,WHITE,False,0,0.0010000003385357559,BLACK,True,CORRECT,0.5795120999973733,579.5120999973733
7,20260325_141148,J,D,True,AUTOMATION2,4,119,1419,fixed_delta,0.033374705876577364,0.013109562710342202,,,,,0.4721090844891669,1700,1900,1,0.65,WHITE,BLACK,False,0,0.0012000018614344299,WHITE,True,CORRECT,0.5608442000011564,560.8442000011564
7,20260325_141148,J,D,True,AUTOMATION2,4,120,1420,fixed_delta,0.033374705876577364,0.013109562710342202,,,,,0.5317133743356215,1914,1686,1,0.65,BLACK,WHITE,False,0,0.0011000010999850929,WHITE,False,INCORRECT,0.5271376999990025,527.1376999990025
7,20260325_141148,J,D,True,AUTOMATION2,4,121,1421,fixed_delta,0.033374705876577364,0.013109562710342202,,,,,0.5514945016899152,1985,1615,1,0.65,BLACK,BLACK,True,0,0.0011000010999850929,WHITE,False,INCORRECT,0.4645197999998345,464.5197999998345
7,20260325_141148,J,D,True,AUTOMATION2,4,122,1422,fixed_delta,0.033374705876577364,0.013109562710342202,,,,,0.5066430374290387,1824,1776,1,0.65,BLACK,BLACK,True,0,0.001400003384333104,WHITE,False,INCORRECT,0.6632943000004161,663.2943000004161
7,20260325_141148,J,D,True,AUTOMATION2,4,123,1423,fixed_delta,0.033374705876577364,0.013109562710342202,,,,,0.5276868060546404,1900,1700,1,0.65,BLACK,BLACK,True,0,0.0018999999156221747,BLACK,True,CORRECT,0.6487849999975879,648.7849999975879
7,20260325_141148,J,D,True,AUTOMATION2,4,124,1424,fixed_delta,0.033374705876577364,0.013109562710342202,,,,,0.51553949556332,1856,1744,1,0.65,BLACK,WHITE,False,0,0.0011999982234556228,WHITE,False,INCORRECT,0.7091959999997925,709.1959999997925
7,20260325_141148,J,D,True,AUTOMATION2,4,125,1425,fixed_delta,0.033374705876577364,0.013109562710342202,,,,,0.47681996503126733,1717,1883,1,0.65,WHITE,BLACK,False,0,0.0013000026228837669,WHITE,True,CORRECT,0.6149638000024424,614.9638000024424
7,20260325_141148,J,D,True,AUTOMATION2,4,126,1426,fixed_delta,0.033374705876577364,0.013109562710342202,,,,,0.4734014785544528,1704,1896,1,0.65,WHITE,WHITE,True,0,0.0009999967005569488,WHITE,True,CORRECT,0.7264422999978706,726.4422999978706
7,20260325_141148,J,D,True,AUTOMATION2,4,127,1427,fixed_delta,0.033374705876577364,0.013109562710342202,,,,,0.46810232966018295,1685,1915,1,0.65,WHITE,BLACK,False,0,0.0011000010999850929,WHITE,True,CORRECT,0.6229970999993384,622.9970999993384
7,20260325_141148,J,D,True,AUTOMATION2,4,128,1428,fixed_delta,0.033374705876577364,0.013109562710342202,,,,,0.4670693579142551,1681,1919,1,0.65,WHITE,BLACK,False,0,0.0011999982234556228,WHITE,True,CORRECT,0.7266414999976405,726.6414999976405
7,20260325_141148,J,D,True,AUTOMATION2,4,129,1429,fixed_delta,0.033374705876577364,0.013109562710342202,,,,,0.5002777777777778,1801,1799,1,0.65,BLACK,BLACK,True,0,0.0017000020307023078,BLACK,True,CORRECT,0.5743258000002243,574.3258000002243
7,20260325_141148,J,D,True,AUTOMATION2,4,130,1430,fixed_delta,0.033374705876577364,0.013109562710342202,,,,,0.4681812473722447,1685,1915,1,0.65,WHITE,BLACK,False,0,0.0010000003385357559,WHITE,True,CORRECT,0.6294858000001113,629.4858000001113
7,20260325_141148,J,D,True,AUTOMATION2,4,131,1431,fixed_delta,0.033374705876577364,0.013109562710342202,,,,,0.5563486696275244,2003,1597,1,0.65,BLACK,BLACK,True,0,0.0015000005078036338,BLACK,True,CORRECT,0.520856699997239,520.856699997239
7,20260325_141148,J,D,True,AUTOMATION2,4,132,1432,fixed_delta,0.033374705876577364,0.013109562710342202,,,,,0.4711495401478678,1696,1904,1,0.65,WHITE,BLACK,False,0,0.0010000003385357559,WHITE,True,CORRECT,0.5477982999982487,547.7982999982487
7,20260325_141148,J,D,True,AUTOMATION2,4,133,1433,fixed_delta,0.033374705876577364,0.013109562710342202,,,,,0.464041917757839,1671,1929,1,0.65,WHITE,WHITE,True,0,0.0012000018614344299,BLACK,False,INCORRECT,0.4940287999997963,494.0287999997963
7,20260325_141148,J,D,True,AUTOMATION2,4,134,1434,fixed_delta,0.033374705876577364,0.013109562710342202,,,,,0.4684031081514983,1686,1914,1,0.65,WHITE,WHITE,True,0,0.0012999989849049598,WHITE,True,CORRECT,0.5008376999976463,500.83769999764627
7,20260325_141148,J,D,True,AUTOMATION2,4,135,1435,fixed_delta,0.033374705876577364,0.013109562710342202,,,,,0.4375971492435619,1575,2025,1,0.65,WHITE,WHITE,True,0,0.0012000018614344299,WHITE,True,CORRECT,0.5872918000022764,587.2918000022764
7,20260325_141148,J,D,True,AUTOMATION2,4,136,1436,fixed_delta,0.033374705876577364,0.013109562710342202,,,,,0.5440286567691355,1959,1641,1,0.65,BLACK,WHITE,False,0,0.0029000002541579306,BLACK,True,CORRECT,0.5072830999997677,507.2830999997677
7,20260325_141148,J,D,True,AUTOMATION2,4,137,1437,fixed_delta,0.033374705876577364,0.013109562710342202,,,,,0.45011671016530164,1620,1980,1,0.65,WHITE,BLACK,False,0,0.0008999995770864189,WHITE,True,CORRECT,0.49484799999845563,494.84799999845563
7,20260325_141148,J,D,True,AUTOMATION2,4,138,1438,fixed_delta,0.033374705876577364,0.013109562710342202,,,,,0.5294923591125374,1906,1694,1,0.65,BLACK,BLACK,True,0,0.0011000010999850929,BLACK,True,CORRECT,0.5092815999996674,509.2815999996674
7,20260325_141148,J,D,True,AUTOMATION2,4,139,1439,fixed_delta,0.033374705876577364,0.013109562710342202,,,,,0.542706806909616,1954,1646,1,0.65,BLACK,BLACK,True,0,0.0021999985619913787,BLACK,True,CORRECT,0.47419369999988703,474.19369999988703
7,20260325_141148,J,D,True,AUTOMATION2,4,140,1440,fixed_delta,0.033374705876577364,0.013109562710342202,,,,,0.4730179247813411,1703,1897,1,0.65,WHITE,BLACK,False,0,0.0013999997463542968,WHITE,True,CORRECT,0.5750884000008227,575.0884000008227
7,20260325_141148,J,D,True,AUTOMATION2,4,141,1441,fixed_delta,0.033374705876577364,0.013109562710342202,,,,,0.4742381378579088,1707,1893,1,0.65,WHITE,WHITE,True,0,0.0013999997463542968,BLACK,False,INCORRECT,0.43921079999927315,439.21079999927315
7,20260325_141148,J,D,True,AUTOMATION2,4,142,1442,fixed_delta,0.033374705876577364,0.013109562710342202,,,,,0.5379638454907274,1937,1663,1,0.65,BLACK,BLACK,True,0,0.0011999982234556228,BLACK,True,CORRECT,0.5222720999990997,522.2720999990997
7,20260325_141148,J,D,True,AUTOMATION2,4,143,1443,fixed_delta,0.033374705876577364,0.013109562710342202,,,,,0.44761783410322853,1611,1989,1,0.65,WHITE,WHITE,True,0,0.0010999974620062858,WHITE,True,CORRECT,0.5388877999976103,538.8877999976103
7,20260325_141148,J,D,True,AUTOMATION2,4,144,1444,fixed_delta,0.033374705876577364,0.013109562710342202,,,,,0.4551094743829636,1638,1962,1,0.65,WHITE,WHITE,True,0,0.0011000010999850929,BLACK,False,INCORRECT,0.4123193000013998,412.3193000013998
7,20260325_141148,J,D,True,AUTOMATION2,4,145,1445,fixed_delta,0.033374705876577364,0.013109562710342202,,,,,0.5402716402681652,1945,1655,1,0.65,BLACK,WHITE,False,0,0.0008999995770864189,BLACK,True,CORRECT,0.44599770000058925,445.99770000058925
7,20260325_141148,J,D,True,AUTOMATION2,4,146,1446,fixed_delta,0.033374705876577364,0.013109562710342202,,,,,0.5367983560609834,1932,1668,1,0.65,BLACK,BLACK,True,0,0.0013999997463542968,BLACK,True,CORRECT,0.5218634000011662,521.8634000011662
7,20260325_141148,J,D,True,AUTOMATION2,4,147,1447,fixed_delta,0.033374705876577364,0.013109562710342202,,,,,0.45286499807472264,1630,1970,1,0.65,WHITE,BLACK,False,0,0.0010999974620062858,WHITE,True,CORRECT,0.5062287000000651,506.22870000006515
7,20260325_141148,J,D,True,AUTOMATION2,4,148,1448,fixed_delta,0.033374705876577364,0.013109562710342202,,,,,0.536790057397215,1932,1668,1,0.65,BLACK,BLACK,True,0,0.0016999983927235007,BLACK,True,CORRECT,0.5918172999990929,591.8172999990929
7,20260325_141148,J,D,True,AUTOMATION2,4,149,1449,fixed_delta,0.033374705876577364,0.013109562710342202,,,,,0.5393423143939832,1942,1658,1,0.65,BLACK,BLACK,True,0,0.0011999982234556228,WHITE,False,INCORRECT,0.6392930000001797,639.2930000001797
7,20260325_141148,J,D,True,AUTOMATION2,4,150,1450,fixed_delta,0.033374705876577364,0.013109562710342202,,,,,0.5366862862762588,1932,1668,1,0.65,BLACK,WHITE,False,0,0.0011000010999850929,WHITE,False,INCORRECT,0.485459899999114,485.459899999114
7,20260325_141148,J,D,True,AUTOMATION2,4,151,1451,fixed_delta,0.033374705876577364,0.013109562710342202,,,,,0.5252648192895846,1891,1709,1,0.65,BLACK,WHITE,False,0,0.0010000003385357559,WHITE,False,INCORRECT,0.3958803999994416,395.8803999994416
7,20260325_141148,J,D,True,AUTOMATION2,4,152,1452,fixed_delta,0.033374705876577364,0.013109562710342202,,,,,0.515938870764257,1857,1743,1,0.65,BLACK,WHITE,False,0,0.0008999995770864189,BLACK,True,CORRECT,0.7019610999996075,701.9610999996075
7,20260325_141148,J,D,True,AUTOMATION2,4,153,1453,fixed_delta,0.033374705876577364,0.013109562710342202,,,,,0.5473247502118466,1970,1630,1,0.65,BLACK,BLACK,True,0,0.0012999989849049598,BLACK,True,CORRECT,0.5170713000006799,517.0713000006799
7,20260325_141148,J,D,True,AUTOMATION2,4,154,1454,fixed_delta,0.033374705876577364,0.013109562710342202,,,,,0.5160223324497072,1858,1742,1,0.65,BLACK,BLACK,True,0,0.0016000012692529708,BLACK,True,CORRECT,0.5638710999992327,563.8710999992327
7,20260325_141148,J,D,True,AUTOMATION2,4,155,1455,fixed_delta,0.033374705876577364,0.013109562710342202,,,,,0.461493257086218,1661,1939,1,0.65,WHITE,WHITE,True,0,0.0011000010999850929,BLACK,False,INCORRECT,0.6660535000009986,666.0535000009986
7,20260325_141148,J,D,True,AUTOMATION2,4,156,1456,fixed_delta,0.033374705876577364,0.013109562710342202,,,,,0.5228353016612938,1882,1718,1,0.65,BLACK,BLACK,True,0,0.0012999989849049598,WHITE,False,INCORRECT,0.5666816999982984,566.6816999982984
7,20260325_141148,J,D,True,AUTOMATION2,4,157,1457,fixed_delta,0.033374705876577364,0.013109562710342202,,,,,0.5093312708059885,1834,1766,1,0.65,BLACK,WHITE,False,0,0.0015000005078036338,WHITE,False,INCORRECT,1.275547799999913,1275.547799999913
7,20260325_141148,J,D,True,AUTOMATION2,4,158,1458,fixed_delta,0.033374705876577364,0.013109562710342202,,,,,0.472061943964186,1699,1901,1,0.65,WHITE,WHITE,True,0,0.0012000018614344299,WHITE,True,CORRECT,0.6907709000006435,690.7709000006435
7,20260325_141148,J,D,True,AUTOMATION2,4,159,1459,fixed_delta,0.033374705876577364,0.013109562710342202,,,,,0.4603981447963444,1657,1943,1,0.65,WHITE,BLACK,False,0,0.0008999995770864189,WHITE,True,CORRECT,0.5302464000014879,530.2464000014879
7,20260325_141148,J,D,True,AUTOMATION2,4,160,1460,fixed_delta,0.033374705876577364,0.013109562710342202,,,,,0.44243050233839964,1593,2007,1,0.65,WHITE,WHITE,True,0,0.0011999982234556228,WHITE,True,CORRECT,0.6537690000004659,653.7690000004659
7,20260325_141148,J,D,True,AUTOMATION2,4,161,1461,fixed_delta,0.033374705876577364,0.013109562710342202,,,,,0.5221376180767643,1880,1720,1,0.65,BLACK,BLACK,True,0,0.0015000005078036338,WHITE,False,INCORRECT,0.9768331999985094,976.8331999985094
7,20260325_141148,J,D,True,AUTOMATION2,4,162,1462,fixed_delta,0.033374705876577364,0.013109562710342202,,,,,0.5436531075817312,1957,1643,1,0.65,BLACK,BLACK,True,0,0.0018999999156221747,BLACK,True,CORRECT,0.9618284999996831,961.8284999996831
7,20260325_141148,J,D,True,AUTOMATION2,4,163,1463,fixed_delta,0.033374705876577364,0.013109562710342202,,,,,0.5464305892780581,1967,1633,1,0.65,BLACK,BLACK,True,0,0.0008999995770864189,WHITE,False,INCORRECT,0.5508019000008062,550.8019000008062
7,20260325_141148,J,D,True,AUTOMATION2,4,164,1464,fixed_delta,0.033374705876577364,0.013109562710342202,,,,,0.4668284456094529,1681,1919,1,0.65,WHITE,WHITE,True,0,0.0015000005078036338,WHITE,True,CORRECT,0.8342016999995394,834.2016999995394
7,20260325_141148,J,D,True,AUTOMATION2,4,165,1465,fixed_delta,0.033374705876577364,0.013109562710342202,,,,,0.4712326337448903,1696,1904,1,0.65,WHITE,WHITE,True,0,0.0015000005078036338,WHITE,True,CORRECT,0.900468699997873,900.468699997873
7,20260325_141148,J,D,True,AUTOMATION2,4,166,1466,fixed_delta,0.033374705876577364,0.013109562710342202,,,,,0.5506487506374904,1982,1618,1,0.65,BLACK,WHITE,False,0,0.0010000003385357559,BLACK,True,CORRECT,0.5432598999977927,543.2598999977927
7,20260325_141148,J,D,True,AUTOMATION2,4,167,1467,fixed_delta,0.033374705876577364,0.013109562710342202,,,,,0.467592096457887,1683,1917,1,0.65,WHITE,WHITE,True,0,0.0011999982234556228,WHITE,True,CORRECT,0.572309299997869,572.309299997869
7,20260325_141148,J,D,True,AUTOMATION2,4,168,1468,fixed_delta,0.033374705876577364,0.013109562710342202,,,,,0.450503540324473,1622,1978,1,0.65,WHITE,WHITE,True,0,0.0013999997463542968,WHITE,True,CORRECT,0.5613417999993544,561.3417999993544
7,20260325_141148,J,D,True,AUTOMATION2,4,169,1469,fixed_delta,0.033374705876577364,0.013109562710342202,,,,,0.44992010770109303,1620,1980,1,0.65,WHITE,BLACK,False,0,0.0012000018614344299,WHITE,True,CORRECT,0.5015982000004442,501.5982000004442
7,20260325_141148,J,D,True,AUTOMATION2,4,170,1470,fixed_delta,0.033374705876577364,0.013109562710342202,,,,,0.46937934390975045,1690,1910,1,0.65,WHITE,BLACK,False,0,0.0011000010999850929,WHITE,True,CORRECT,0.46384260000195354,463.84260000195354
7,20260325_141148,J,D,True,AUTOMATION2,4,171,1471,fixed_delta,0.033374705876577364,0.013109562710342202,,,,,0.5247138327161277,1889,1711,1,0.65,BLACK,BLACK,True,0,0.0013999997463542968,BLACK,True,CORRECT,0.702671700000792,702.671700000792
7,20260325_141148,J,D,True,AUTOMATION2,4,172,1472,fixed_delta,0.033374705876577364,0.013109562710342202,,,,,0.5577077278178698,2008,1592,1,0.65,BLACK,BLACK,True,0,0.0011000010999850929,BLACK,True,CORRECT,0.567903800001659,567.903800001659
7,20260325_141148,J,D,True,AUTOMATION2,4,173,1473,fixed_delta,0.033374705876577364,0.013109562710342202,,,,,0.4734738404974461,1705,1895,1,0.65,WHITE,BLACK,False,0,0.0010000003385357559,WHITE,True,CORRECT,0.5737238000001526,573.7238000001526
7,20260325_141148,J,D,True,AUTOMATION2,4,174,1474,fixed_delta,0.033374705876577364,0.013109562710342202,,,,,0.5246610077342788,1889,1711,1,0.65,BLACK,BLACK,True,0,0.0013000026228837669,BLACK,True,CORRECT,0.4497074999999313,449.7074999999313
7,20260325_141148,J,D,True,AUTOMATION2,4,175,1475,fixed_delta,0.033374705876577364,0.013109562710342202,,,,,0.5128729564300459,1846,1754,1,0.65,BLACK,WHITE,False,0,0.0015999976312741637,BLACK,True,CORRECT,0.5628159999978379,562.8159999978379
7,20260325_141148,J,D,True,AUTOMATION2,4,176,1476,fixed_delta,0.033374705876577364,0.013109562710342202,,,,,0.5223906233697443,1881,1719,1,0.65,BLACK,WHITE,False,0,0.0010999974620062858,BLACK,True,CORRECT,0.5425088999982108,542.5088999982108
7,20260325_141148,J,D,True,AUTOMATION2,4,177,1477,fixed_delta,0.033374705876577364,0.013109562710342202,,,,,0.5334933277980787,1921,1679,1,0.65,BLACK,BLACK,True,0,0.0008999995770864189,BLACK,True,CORRECT,0.5258891000012227,525.8891000012227
7,20260325_141148,J,D,True,AUTOMATION2,4,178,1478,fixed_delta,0.033374705876577364,0.013109562710342202,,,,,0.5382188657810436,1938,1662,1,0.65,BLACK,BLACK,True,0,0.0012999989849049598,BLACK,True,CORRECT,0.6558886999991955,655.8886999991955
7,20260325_141148,J,D,True,AUTOMATION2,4,179,1479,fixed_delta,0.033374705876577364,0.013109562710342202,,,,,0.4534826705004924,1633,1967,1,0.65,WHITE,WHITE,True,0,0.0012999989849049598,BLACK,False,INCORRECT,0.5148982999999134,514.8982999999134
7,20260325_141148,J,D,True,AUTOMATION2,4,180,1480,fixed_delta,0.033374705876577364,0.013109562710342202,,,,,0.46896781450782077,1688,1912,1,0.65,WHITE,WHITE,True,0,0.0008999995770864189,WHITE,True,CORRECT,0.5498380999997607,549.8380999997607
7,20260325_141148,J,D,True,AUTOMATION2,4,181,1481,fixed_delta,0.033374705876577364,0.013109562710342202,,,,,0.4671142467833339,1682,1918,1,0.65,WHITE,WHITE,True,0,0.0010000003385357559,BLACK,False,INCORRECT,0.6041788999973505,604.1788999973505
7,20260325_141148,J,D,True,AUTOMATION2,4,182,1482,fixed_delta,0.033374705876577364,0.013109562710342202,,,,,0.5219093632243401,1879,1721,1,0.65,BLACK,WHITE,False,0,0.0016999983927235007,BLACK,True,CORRECT,0.6719404999967082,671.9404999967082
7,20260325_141148,J,D,True,AUTOMATION2,4,183,1483,fixed_delta,0.033374705876577364,0.013109562710342202,,,,,0.53649012104503,1931,1669,1,0.65,BLACK,BLACK,True,0,0.0008999995770864189,BLACK,True,CORRECT,0.5456854999974894,545.6854999974894
7,20260325_141148,J,D,True,AUTOMATION2,4,184,1484,fixed_delta,0.033374705876577364,0.013109562710342202,,,,,0.5340261874800019,1922,1678,1,0.65,BLACK,BLACK,True,0,0.0011000010999850929,WHITE,False,INCORRECT,0.606102000001556,606.102000001556
7,20260325_141148,J,D,True,AUTOMATION2,4,185,1485,fixed_delta,0.033374705876577364,0.013109562710342202,,,,,0.515316785013589,1855,1745,1,0.65,BLACK,BLACK,True,0,0.000800002453615889,WHITE,False,INCORRECT,0.4203400000005786,420.3400000005786
7,20260325_141148,J,D,True,AUTOMATION2,4,186,1486,fixed_delta,0.033374705876577364,0.013109562710342202,,,,,0.5308619878691611,1911,1689,1,0.65,BLACK,WHITE,False,0,0.0012000018614344299,WHITE,False,INCORRECT,0.6240824000014982,624.0824000014982
7,20260325_141148,J,D,True,AUTOMATION2,4,187,1487,fixed_delta,0.033374705876577364,0.013109562710342202,,,,,0.5633795852399466,2028,1572,1,0.65,BLACK,BLACK,True,0,0.0010000003385357559,WHITE,False,INCORRECT,0.5354291000003286,535.4291000003286
7,20260325_141148,J,D,True,AUTOMATION2,4,188,1488,fixed_delta,0.033374705876577364,0.013109562710342202,,,,,0.46060293410286535,1658,1942,1,0.65,WHITE,WHITE,True,0,0.0012999989849049598,BLACK,False,INCORRECT,0.5389254999972763,538.9254999972763
7,20260325_141148,J,D,True,AUTOMATION2,4,189,1489,fixed_delta,0.033374705876577364,0.013109562710342202,,,,,0.46598927206448537,1678,1922,1,0.65,WHITE,BLACK,False,0,0.0011999982234556228,WHITE,True,CORRECT,0.9256629999981669,925.6629999981669
7,20260325_141148,J,D,True,AUTOMATION2,4,190,1490,fixed_delta,0.033374705876577364,0.013109562710342202,,,,,0.5467664022376302,1968,1632,1,0.65,BLACK,BLACK,True,0,0.0013000026228837669,BLACK,True,CORRECT,0.554804300001706,554.804300001706
7,20260325_141148,J,D,True,AUTOMATION2,4,191,1491,fixed_delta,0.033374705876577364,0.013109562710342202,,,,,0.45130031937316156,1625,1975,1,0.65,WHITE,WHITE,True,0,0.0010999974620062858,WHITE,True,CORRECT,0.6572281999979168,657.2281999979168
7,20260325_141148,J,D,True,AUTOMATION2,4,192,1492,fixed_delta,0.033374705876577364,0.013109562710342202,,,,,0.5409838505440965,1948,1652,1,0.65,BLACK,BLACK,True,0,0.0008999995770864189,BLACK,True,CORRECT,0.5031496999981755,503.1496999981755
7,20260325_141148,J,D,True,AUTOMATION2,4,193,1493,fixed_delta,0.033374705876577364,0.013109562710342202,,,,,0.5292981921914847,1905,1695,1,0.65,BLACK,BLACK,True,0,0.0016999983927235007,BLACK,True,CORRECT,0.5162458999984665,516.2458999984665
7,20260325_141148,J,D,True,AUTOMATION2,4,194,1494,fixed_delta,0.033374705876577364,0.013109562710342202,,,,,0.5492480015319815,1977,1623,1,0.65,BLACK,BLACK,True,0,0.0012000018614344299,BLACK,True,CORRECT,0.5148922000007587,514.8922000007587
7,20260325_141148,J,D,True,AUTOMATION2,4,195,1495,fixed_delta,0.033374705876577364,0.013109562710342202,,,,,0.5214635442814353,1877,1723,1,0.65,BLACK,BLACK,True,0,0.0017999991541728377,BLACK,True,CORRECT,0.5001960999979929,500.19609999799286
7,20260325_141148,J,D,True,AUTOMATION2,4,196,1496,fixed_delta,0.033374705876577364,0.013109562710342202,,,,,0.5378684314241609,1936,1664,1,0.65,BLACK,WHITE,False,0,0.0013000026228837669,BLACK,True,CORRECT,0.4159971000008227,415.9971000008227
7,20260325_141148,J,D,True,AUTOMATION2,4,197,1497,fixed_delta,0.033374705876577364,0.013109562710342202,,,,,0.4536967934544292,1633,1967,1,0.65,WHITE,WHITE,True,0,0.0013999997463542968,BLACK,False,INCORRECT,0.49378620000061346,493.78620000061346
7,20260325_141148,J,D,True,AUTOMATION2,4,198,1498,fixed_delta,0.033374705876577364,0.013109562710342202,,,,,0.4768491227024298,1717,1883,1,0.65,WHITE,WHITE,True,0,0.0012000018614344299,BLACK,False,INCORRECT,0.5253025999991223,525.3025999991223
7,20260325_141148,J,D,True,AUTOMATION2,4,199,1499,fixed_delta,0.033374705876577364,0.013109562710342202,,,,,0.45776648247232854,1648,1952,1,0.65,WHITE,BLACK,False,0,0.0011000010999850929,WHITE,True,CORRECT,0.4999567000013485,499.9567000013485
7,20260325_141148,J,D,True,AUTOMATION2,4,200,1500,fixed_delta,0.033374705876577364,0.013109562710342202,,,,,0.5048289779242173,1817,1783,1,0.65,BLACK,WHITE,False,0,0.0008999995770864189,BLACK,True,CORRECT,0.4407154999971681,440.7154999971681
7,20260325_141148,J,D,True,AUTOMATION2,4,201,1501,fixed_delta,0.033374705876577364,0.013109562710342202,,,,,0.4767629357555971,1716,1884,1,0.65,WHITE,WHITE,True,0,0.0008999995770864189,WHITE,True,CORRECT,0.7968039999977918,796.8039999977918
7,20260325_141148,J,D,True,AUTOMATION2,4,202,1502,fixed_delta,0.033374705876577364,0.013109562710342202,,,,,0.5308710787888535,1911,1689,1,0.65,BLACK,WHITE,False,0,0.0015000005078036338,BLACK,True,CORRECT,0.46657540000160225,466.57540000160225
7,20260325_141148,J,D,True,AUTOMATION2,4,203,1503,fixed_delta,0.033374705876577364,0.013109562710342202,,,,,0.4775194274484311,1719,1881,1,0.65,WHITE,WHITE,True,0,0.0012999989849049598,BLACK,False,INCORRECT,0.5368669999988924,536.8669999988924
7,20260325_141148,J,D,True,AUTOMATION2,4,204,1504,fixed_delta,0.033374705876577364,0.013109562710342202,,,,,0.47228723692480346,1700,1900,1,0.65,WHITE,WHITE,True,0,0.0010000003385357559,BLACK,False,INCORRECT,0.6356975999988208,635.6975999988208
7,20260325_141148,J,D,True,AUTOMATION2,4,205,1505,fixed_delta,0.033374705876577364,0.013109562710342202,,,,,0.46906941891785753,1689,1911,1,0.65,WHITE,WHITE,True,0,0.0012999989849049598,BLACK,False,INCORRECT,0.9343920999999682,934.3920999999682
7,20260325_141148,J,D,True,AUTOMATION2,4,206,1506,fixed_delta,0.033374705876577364,0.013109562710342202,,,,,0.4838002267770483,1742,1858,1,0.65,WHITE,BLACK,False,0,0.004499997885432094,WHITE,True,CORRECT,0.6655046999985643,665.5046999985643
7,20260325_141148,J,D,True,AUTOMATION2,4,207,1507,fixed_delta,0.033374705876577364,0.013109562710342202,,,,,0.5440450271435443,1959,1641,1,0.65,BLACK,BLACK,True,0,0.0012999989849049598,BLACK,True,CORRECT,0.49140880000049947,491.40880000049947
7,20260325_141148,J,D,True,AUTOMATION2,4,208,1508,fixed_delta,0.033374705876577364,0.013109562710342202,,,,,0.45922740727292416,1653,1947,1,0.65,WHITE,WHITE,True,0,0.0012000018614344299,WHITE,True,CORRECT,0.7846477999992203,784.6477999992203
7,20260325_141148,J,D,True,AUTOMATION2,4,209,1509,fixed_delta,0.033374705876577364,0.013109562710342202,,,,,0.4583316579433499,1650,1950,1,0.65,WHITE,WHITE,True,0,0.0011999982234556228,BLACK,False,INCORRECT,0.49385629999960656,493.85629999960656
7,20260325_141148,J,D,True,AUTOMATION2,4,210,1510,fixed_delta,0.033374705876577364,0.013109562710342202,,,,,0.4541601093903027,1635,1965,1,0.65,WHITE,BLACK,False,0,0.0011999982234556228,WHITE,True,CORRECT,0.6431219999976747,643.1219999976747
7,20260325_141148,J,D,True,AUTOMATION2,4,211,1511,fixed_delta,0.033374705876577364,0.013109562710342202,,,,,0.5441787125544301,1959,1641,1,0.65,BLACK,WHITE,False,0,0.0011999982234556228,BLACK,True,CORRECT,0.41196040000068024,411.96040000068024
7,20260325_141148,J,D,True,AUTOMATION2,4,212,1512,fixed_delta,0.033374705876577364,0.013109562710342202,,,,,0.5255572030591077,1892,1708,1,0.65,BLACK,BLACK,True,0,0.0012000018614344299,BLACK,True,CORRECT,0.6256209000021045,625.6209000021045
7,20260325_141148,J,D,True,AUTOMATION2,4,213,1513,fixed_delta,0.033374705876577364,0.013109562710342202,,,,,0.5385204319167958,1939,1661,1,0.65,BLACK,BLACK,True,0,0.0008999995770864189,BLACK,True,CORRECT,0.7239638999999443,723.9638999999443
7,20260325_141148,J,D,True,AUTOMATION2,4,214,1514,fixed_delta,0.033374705876577364,0.013109562710342202,,,,,0.5351408826566197,1927,1673,1,0.65,BLACK,BLACK,True,0,0.0011000010999850929,BLACK,True,CORRECT,0.5145645999982662,514.5645999982662
7,20260325_141148,J,D,True,AUTOMATION2,4,215,1515,fixed_delta,0.033374705876577364,0.013109562710342202,,,,,0.5246254699293914,1889,1711,1,0.65,BLACK,BLACK,True,0,0.0011999982234556228,BLACK,True,CORRECT,0.5168610000000626,516.8610000000626
7,20260325_141148,J,D,True,AUTOMATION2,4,216,1516,fixed_delta,0.033374705876577364,0.013109562710342202,,,,,0.46319363073964603,1667,1933,1,0.65,WHITE,WHITE,True,0,0.0012000018614344299,WHITE,True,CORRECT,0.7078860000001441,707.8860000001441
7,20260325_141148,J,D,True,AUTOMATION2,4,217,1517,fixed_delta,0.033374705876577364,0.013109562710342202,,,,,0.4928360195639286,1774,1826,1,0.65,WHITE,WHITE,True,0,0.0008999995770864189,BLACK,False,INCORRECT,0.5225572999988799,522.5572999988799
7,20260325_141148,J,D,True,AUTOMATION2,4,218,1518,fixed_delta,0.033374705876577364,0.013109562710342202,,,,,0.5409119786463158,1947,1653,1,0.65,BLACK,WHITE,False,0,0.0012999989849049598,BLACK,True,CORRECT,0.5431491000017559,543.1491000017559
7,20260325_141148,J,D,True,AUTOMATION2,4,219,1519,fixed_delta,0.033374705876577364,0.013109562710342202,,,,,0.5222666867453538,1880,1720,1,0.65,BLACK,BLACK,True,0,0.0007999988156370819,BLACK,True,CORRECT,0.5730272000000696,573.0272000000696
7,20260325_141148,J,D,True,AUTOMATION2,4,220,1520,fixed_delta,0.033374705876577364,0.013109562710342202,,,,,0.46303442211807244,1667,1933,1,0.65,WHITE,BLACK,False,0,0.0011999982234556228,WHITE,True,CORRECT,0.5039063000003807,503.9063000003807
7,20260325_141148,J,D,True,AUTOMATION2,4,221,1521,fixed_delta,0.033374705876577364,0.013109562710342202,,,,,0.5163917986792708,1859,1741,1,0.65,BLACK,WHITE,False,0,0.0012000018614344299,BLACK,True,CORRECT,0.5835022999999637,583.5022999999637
7,20260325_141148,J,D,True,AUTOMATION2,4,222,1522,fixed_delta,0.033374705876577364,0.013109562710342202,,,,,0.5127477586055795,1846,1754,1,0.65,BLACK,BLACK,True,0,0.0011000010999850929,WHITE,False,INCORRECT,0.5775641000000178,577.5641000000178
7,20260325_141148,J,D,True,AUTOMATION2,4,223,1523,fixed_delta,0.033374705876577364,0.013109562710342202,,,,,0.5414553880822045,1949,1651,1,0.65,BLACK,BLACK,True,0,0.0015000005078036338,BLACK,True,CORRECT,0.4872354999970412,487.2354999970412
7,20260325_141148,J,D,True,AUTOMATION2,4,224,1524,fixed_delta,0.033374705876577364,0.013109562710342202,,,,,0.47648733737428905,1715,1885,1,0.65,WHITE,BLACK,False,0,0.0008999995770864189,BLACK,False,INCORRECT,0.6864795000001322,686.4795000001322
7,20260325_141148,J,D,True,AUTOMATION2,4,225,1525,fixed_delta,0.033374705876577364,0.013109562710342202,,,,,0.5282666882643013,1902,1698,1,0.65,BLACK,BLACK,True,0,0.0010000003385357559,BLACK,True,CORRECT,0.5411604000000807,541.1604000000807
7,20260325_141148,J,D,True,AUTOMATION2,4,226,1526,fixed_delta,0.033374705876577364,0.013109562710342202,,,,,0.47755038139278255,1719,1881,1,0.65,WHITE,WHITE,True,0,0.0016000012692529708,WHITE,True,CORRECT,0.7058553000024403,705.8553000024403
7,20260325_141148,J,D,True,AUTOMATION2,4,227,1527,fixed_delta,0.033374705876577364,0.013109562710342202,,,,,0.46183687869900797,1663,1937,1,0.65,WHITE,WHITE,True,0,0.0016000012692529708,WHITE,True,CORRECT,0.5618318000015279,561.8318000015279
7,20260325_141148,J,D,True,AUTOMATION2,4,228,1528,fixed_delta,0.033374705876577364,0.013109562710342202,,,,,0.5366345465550451,1932,1668,1,0.65,BLACK,BLACK,True,0,0.0012000018614344299,BLACK,True,CORRECT,0.4976410000017495,497.6410000017495
7,20260325_141148,J,D,True,AUTOMATION2,4,229,1529,fixed_delta,0.033374705876577364,0.013109562710342202,,,,,0.46492340123882747,1674,1926,1,0.65,WHITE,BLACK,False,0,0.0016000012692529708,WHITE,True,CORRECT,0.5351066000002902,535.1066000002902
7,20260325_141148,J,D,True,AUTOMATION2,4,230,1530,fixed_delta,0.033374705876577364,0.013109562710342202,,,,,0.5214547045394363,1877,1723,1,0.65,BLACK,WHITE,False,0,0.0010000003385357559,WHITE,False,INCORRECT,0.6414015000009385,641.4015000009385
7,20260325_141148,J,D,True,AUTOMATION2,4,231,1531,fixed_delta,0.033374705876577364,0.013109562710342202,,,,,0.5361578459870406,1930,1670,1,0.65,BLACK,WHITE,False,0,0.0012000018614344299,BLACK,True,CORRECT,0.5279120000013791,527.912000001379
7,20260325_141148,J,D,True,AUTOMATION2,4,232,1532,fixed_delta,0.033374705876577364,0.013109562710342202,,,,,0.45827890759095624,1650,1950,1,0.65,WHITE,BLACK,False,0,0.0010000003385357559,WHITE,True,CORRECT,0.60461910000231,604.61910000231
7,20260325_141148,J,D,True,AUTOMATION2,4,233,1533,fixed_delta,0.033374705876577364,0.013109562710342202,,,,,0.4534659914026479,1632,1968,1,0.65,WHITE,BLACK,False,0,0.0010000003385357559,WHITE,True,CORRECT,0.517157500002213,517.157500002213
7,20260325_141148,J,D,True,AUTOMATION2,4,234,1534,fixed_delta,0.033374705876577364,0.013109562710342202,,,,,0.5370916555404817,1934,1666,1,0.65,BLACK,WHITE,False,0,0.0013999997463542968,BLACK,True,CORRECT,0.49924250000185566,499.24250000185566
7,20260325_141148,J,D,True,AUTOMATION2,4,235,1535,fixed_delta,0.033374705876577364,0.013109562710342202,,,,,0.45943949937029727,1654,1946,1,0.65,WHITE,BLACK,False,0,0.0012999989849049598,WHITE,True,CORRECT,0.7233698000018194,723.3698000018194
7,20260325_141148,J,D,True,AUTOMATION2,4,236,1536,fixed_delta,0.033374705876577364,0.013109562710342202,,,,,0.5209554961569487,1875,1725,1,0.65,BLACK,WHITE,False,0,0.0008999995770864189,BLACK,True,CORRECT,0.5041235999997298,504.1235999997298
7,20260325_141148,J,D,True,AUTOMATION2,4,237,1537,fixed_delta,0.033374705876577364,0.013109562710342202,,,,,0.48476615467740986,1745,1855,1,0.65,WHITE,WHITE,True,0,0.0012000018614344299,WHITE,True,CORRECT,0.5338460999992094,533.8460999992094
7,20260325_141148,J,D,True,AUTOMATION2,4,238,1538,fixed_delta,0.033374705876577364,0.013109562710342202,,,,,0.5091407743022812,1833,1767,1,0.65,BLACK,WHITE,False,0,0.0015000005078036338,WHITE,False,INCORRECT,0.5745647000003373,574.5647000003373
7,20260325_141148,J,D,True,AUTOMATION2,4,239,1539,fixed_delta,0.033374705876577364,0.013109562710342202,,,,,0.5361231421072022,1930,1670,1,0.65,BLACK,WHITE,False,0,0.0012999989849049598,BLACK,True,CORRECT,0.9192375999991782,919.2375999991782
7,20260325_141148,J,D,True,AUTOMATION2,4,240,1540,fixed_delta,0.033374705876577364,0.013109562710342202,,,,,0.5234175173739467,1884,1716,1,0.65,BLACK,WHITE,False,0,0.0013999997463542968,BLACK,True,CORRECT,1.008174799997505,1008.174799997505
7,20260325_141148,J,D,True,AUTOMATION2,4,241,1541,fixed_delta,0.033374705876577364,0.013109562710342202,,,,,0.46941829165248866,1690,1910,1,0.65,WHITE,WHITE,True,0,0.0010000003385357559,WHITE,True,CORRECT,0.5212361000012606,521.2361000012606
7,20260325_141148,J,D,True,AUTOMATION2,4,242,1542,fixed_delta,0.033374705876577364,0.013109562710342202,,,,,0.4566827469590038,1644,1956,1,0.65,WHITE,BLACK,False,0,0.0010000003385357559,WHITE,True,CORRECT,0.48267629999827477,482.67629999827477
7,20260325_141148,J,D,True,AUTOMATION2,4,243,1543,fixed_delta,0.033374705876577364,0.013109562710342202,,,,,0.4746175055902417,1709,1891,1,0.65,WHITE,BLACK,False,0,0.0010000003385357559,WHITE,True,CORRECT,0.5620155000033265,562.0155000033265
7,20260325_141148,J,D,True,AUTOMATION2,4,244,1544,fixed_delta,0.033374705876577364,0.013109562710342202,,,,,0.4598189717882313,1655,1945,1,0.65,WHITE,WHITE,True,0,0.0015000005078036338,WHITE,True,CORRECT,0.44827920000170707,448.27920000170707
7,20260325_141148,J,D,True,AUTOMATION2,4,245,1545,fixed_delta,0.033374705876577364,0.013109562710342202,,,,,0.4505501734280873,1622,1978,1,0.65,WHITE,WHITE,True,0,0.0013999997463542968,WHITE,True,CORRECT,0.4663591999997152,466.3591999997152
7,20260325_141148,J,D,True,AUTOMATION2,4,246,1546,fixed_delta,0.033374705876577364,0.013109562710342202,,,,,0.4429256825087727,1595,2005,1,0.65,WHITE,WHITE,True,0,0.0014999968698248267,WHITE,True,CORRECT,0.48063729999921634,480.63729999921634
7,20260325_141148,J,D,True,AUTOMATION2,4,247,1547,fixed_delta,0.033374705876577364,0.013109562710342202,,,,,0.5372169414541211,1934,1666,1,0.65,BLACK,BLACK,True,0,0.0010000003385357559,BLACK,True,CORRECT,0.4776856999997108,477.6856999997108
7,20260325_141148,J,D,True,AUTOMATION2,4,248,1548,fixed_delta,0.033374705876577364,0.013109562710342202,,,,,0.5356075333460222,1928,1672,1,0.65,BLACK,WHITE,False,0,0.0011000010999850929,BLACK,True,CORRECT,0.4291951000013796,429.1951000013796
7,20260325_141148,J,D,True,AUTOMATION2,4,249,1549,fixed_delta,0.033374705876577364,0.013109562710342202,,,,,0.47253015918161356,1701,1899,1,0.65,WHITE,BLACK,False,0,0.0013999997463542968,WHITE,True,CORRECT,0.5341788999976416,534.1788999976416
7,20260325_141148,J,D,True,AUTOMATION2,4,250,1550,fixed_delta,0.033374705876577364,0.013109562710342202,,,,,0.5335421612675265,1921,1679,1,0.65,BLACK,BLACK,True,0,0.0012000018614344299,WHITE,False,INCORRECT,0.4799884000021848,479.9884000021848
7,20260325_141148,J,D,True,AUTOMATION2,4,251,1551,fixed_delta,0.033374705876577364,0.013109562710342202,,,,,0.47889628823902247,1724,1876,1,0.65,WHITE,BLACK,False,0,0.0014999968698248267,WHITE,True,CORRECT,0.47329679999893415,473.29679999893415
7,20260325_141148,J,D,True,AUTOMATION2,4,252,1552,fixed_delta,0.033374705876577364,0.013109562710342202,,,,,0.4781697911365965,1721,1879,1,0.65,WHITE,BLACK,False,0,0.0010000003385357559,WHITE,True,CORRECT,0.5106441999996605,510.6441999996605
7,20260325_141148,J,D,True,AUTOMATION2,4,253,1553,fixed_delta,0.033374705876577364,0.013109562710342202,,,,,0.47361534767128693,1705,1895,1,0.65,WHITE,WHITE,True,0,0.0015000005078036338,WHITE,True,CORRECT,0.432625100002042,432.625100002042
7,20260325_141148,J,D,True,AUTOMATION2,4,254,1554,fixed_delta,0.033374705876577364,0.013109562710342202,,,,,0.46521142251047215,1675,1925,1,0.65,WHITE,WHITE,True,0,0.0010999974620062858,WHITE,True,CORRECT,0.4464530000004743,446.4530000004743
7,20260325_141148,J,D,True,AUTOMATION2,4,255,1555,fixed_delta,0.033374705876577364,0.013109562710342202,,,,,0.48071689093078274,1731,1869,1,0.65,WHITE,WHITE,True,0,0.0014999968698248267,WHITE,True,CORRECT,0.46030659999814816,460.30659999814816
7,20260325_141148,J,D,True,AUTOMATION2,4,256,1556,fixed_delta,0.033374705876577364,0.013109562710342202,,,,,0.5458547006657437,1965,1635,1,0.65,BLACK,BLACK,True,0,0.0010000003385357559,BLACK,True,CORRECT,0.49424329999965266,494.24329999965266
7,20260325_141148,J,D,True,AUTOMATION2,4,257,1557,fixed_delta,0.033374705876577364,0.013109562710342202,,,,,0.46407272870611527,1671,1929,1,0.65,WHITE,BLACK,False,0,0.0010999974620062858,WHITE,True,CORRECT,0.5150350999974762,515.0350999974762
7,20260325_141148,J,D,True,AUTOMATION2,4,258,1558,fixed_delta,0.033374705876577364,0.013109562710342202,,,,,0.47488170210653785,1710,1890,1,0.65,WHITE,BLACK,False,0,0.0009999967005569488,WHITE,True,CORRECT,0.5148898999977973,514.8898999977973
7,20260325_141148,J,D,True,AUTOMATION2,4,259,1559,fixed_delta,0.033374705876577364,0.013109562710342202,,,,,0.5188075736993876,1868,1732,1,0.65,BLACK,BLACK,True,0,0.0008999995770864189,WHITE,False,INCORRECT,0.6185672999999952,618.5672999999952
7,20260325_141148,J,D,True,AUTOMATION2,4,260,1560,fixed_delta,0.033374705876577364,0.013109562710342202,,,,,0.4592790815035077,1653,1947,1,0.65,WHITE,BLACK,False,0,0.0012999989849049598,WHITE,True,CORRECT,0.48503859999982524,485.03859999982524
7,20260325_141148,J,D,True,AUTOMATION2,4,261,1561,fixed_delta,0.033374705876577364,0.013109562710342202,,,,,0.5275446279379802,1899,1701,1,0.65,BLACK,WHITE,False,0,0.0008999995770864189,BLACK,True,CORRECT,0.572391499998048,572.391499998048
7,20260325_141148,J,D,True,AUTOMATION2,4,262,1562,fixed_delta,0.033374705876577364,0.013109562710342202,,,,,0.46472931391518807,1673,1927,1,0.65,WHITE,BLACK,False,0,0.0012000018614344299,WHITE,True,CORRECT,0.5693959000018367,569.3959000018367
7,20260325_141148,J,D,True,AUTOMATION2,4,263,1563,fixed_delta,0.033374705876577364,0.013109562710342202,,,,,0.43173028936104474,1554,2046,1,0.65,WHITE,WHITE,True,0,0.0011999982234556228,BLACK,False,INCORRECT,0.4332341000008455,433.2341000008455
7,20260325_141148,J,D,True,AUTOMATION2,4,264,1564,fixed_delta,0.033374705876577364,0.013109562710342202,,,,,0.44818101712980746,1613,1987,1,0.65,WHITE,BLACK,False,0,0.0011999982234556228,WHITE,True,CORRECT,0.42855710000003455,428.55710000003455
7,20260325_141148,J,D,True,AUTOMATION2,4,265,1565,fixed_delta,0.033374705876577364,0.013109562710342202,,,,,0.4743046717182449,1707,1893,1,0.65,WHITE,BLACK,False,0,0.0011000010999850929,WHITE,True,CORRECT,0.5433517000019492,543.3517000019492
7,20260325_141148,J,D,True,AUTOMATION2,4,266,1566,fixed_delta,0.033374705876577364,0.013109562710342202,,,,,0.458261292428057,1650,1950,1,0.65,WHITE,WHITE,True,0,0.0011000010999850929,WHITE,True,CORRECT,0.5743341000015789,574.3341000015789
7,20260325_141148,J,D,True,AUTOMATION2,4,267,1567,fixed_delta,0.033374705876577364,0.013109562710342202,,,,,0.5257914004069204,1893,1707,1,0.65,BLACK,WHITE,False,0,0.0008999995770864189,BLACK,True,CORRECT,0.5108209999998508,510.82099999985076
7,20260325_141148,J,D,True,AUTOMATION2,4,268,1568,fixed_delta,0.033374705876577364,0.013109562710342202,,,,,0.45156343369176966,1626,1974,1,0.65,WHITE,BLACK,False,0,0.0013999997463542968,WHITE,True,CORRECT,0.5664699000008113,566.4699000008113
7,20260325_141148,J,D,True,AUTOMATION2,4,269,1569,fixed_delta,0.033374705876577364,0.013109562710342202,,,,,0.5296644552539601,1907,1693,1,0.65,BLACK,BLACK,True,0,0.0011000010999850929,BLACK,True,CORRECT,0.5705221999996866,570.5221999996866
7,20260325_141148,J,D,True,AUTOMATION2,4,270,1570,fixed_delta,0.033374705876577364,0.013109562710342202,,,,,0.5462350467894697,1966,1634,1,0.65,BLACK,WHITE,False,0,0.0010999974620062858,BLACK,True,CORRECT,0.4002165999991121,400.2165999991121
7,20260325_141148,J,D,True,AUTOMATION2,4,271,1571,fixed_delta,0.033374705876577364,0.013109562710342202,,,,,0.5477736117835174,1972,1628,1,0.65,BLACK,BLACK,True,0,0.0011000010999850929,BLACK,True,CORRECT,0.44194659999993746,441.94659999993746
7,20260325_141148,J,D,True,AUTOMATION2,4,272,1572,fixed_delta,0.033374705876577364,0.013109562710342202,,,,,0.47665582644771876,1716,1884,1,0.65,WHITE,BLACK,False,0,0.0013000026228837669,BLACK,False,INCORRECT,0.46533410000120057,465.33410000120057
7,20260325_141148,J,D,True,AUTOMATION2,4,273,1573,fixed_delta,0.033374705876577364,0.013109562710342202,,,,,0.5330605461049258,1919,1681,1,0.65,BLACK,BLACK,True,0,0.0017000020307023078,WHITE,False,INCORRECT,0.5909456000008504,590.9456000008504
7,20260325_141148,J,D,True,AUTOMATION2,4,274,1574,fixed_delta,0.033374705876577364,0.013109562710342202,,,,,0.5391054438913006,1941,1659,1,0.65,BLACK,WHITE,False,0,0.0010999974620062858,BLACK,True,CORRECT,0.5983594999997877,598.3594999997877
7,20260325_141148,J,D,True,AUTOMATION2,4,275,1575,fixed_delta,0.033374705876577364,0.013109562710342202,,,,,0.47230291327679375,1700,1900,1,0.65,WHITE,WHITE,True,0,0.0011999982234556228,WHITE,True,CORRECT,0.4459434999989753,445.9434999989753
7,20260325_141148,J,D,True,AUTOMATION2,4,276,1576,fixed_delta,0.033374705876577364,0.013109562710342202,,,,,0.5531210830441569,1991,1609,1,0.65,BLACK,BLACK,True,0,0.0017999991541728377,BLACK,True,CORRECT,0.5396677999997337,539.6677999997337
7,20260325_141148,J,D,True,AUTOMATION2,4,277,1577,fixed_delta,0.033374705876577364,0.013109562710342202,,,,,0.4533048556050478,1632,1968,1,0.65,WHITE,WHITE,True,0,0.0016000012692529708,WHITE,True,CORRECT,0.49650910000127624,496.50910000127624
7,20260325_141148,J,D,True,AUTOMATION2,4,278,1578,fixed_delta,0.033374705876577364,0.013109562710342202,,,,,0.5358326906063614,1929,1671,1,0.65,BLACK,BLACK,True,0,0.0011000010999850929,BLACK,True,CORRECT,0.5094826999993529,509.4826999993529
7,20260325_141148,J,D,True,AUTOMATION2,4,279,1579,fixed_delta,0.033374705876577364,0.013109562710342202,,,,,0.527582464791538,1899,1701,1,0.65,BLACK,WHITE,False,0,0.0013999997463542968,BLACK,True,CORRECT,0.48054790000242065,480.54790000242065
7,20260325_141148,J,D,True,AUTOMATION2,4,280,1580,fixed_delta,0.033374705876577364,0.013109562710342202,,,,,0.457489189079574,1647,1953,1,0.65,WHITE,WHITE,True,0,0.0010999974620062858,WHITE,True,CORRECT,0.45707430000038585,457.07430000038585
7,20260325_141148,J,D,True,AUTOMATION2,4,281,1581,fixed_delta,0.033374705876577364,0.013109562710342202,,,,,0.5462567569183715,1967,1633,1,0.65,BLACK,WHITE,False,0,0.0013999997463542968,BLACK,True,CORRECT,0.4852387999999337,485.2387999999337
7,20260325_141148,J,D,True,AUTOMATION2,4,282,1582,fixed_delta,0.033374705876577364,0.013109562710342202,,,,,0.47811257290988574,1721,1879,1,0.65,WHITE,WHITE,True,0,0.0010000003385357559,WHITE,True,CORRECT,0.5025940999985323,502.59409999853233
7,20260325_141148,J,D,True,AUTOMATION2,4,283,1583,fixed_delta,0.033374705876577364,0.013109562710342202,,,,,0.4700193060914281,1692,1908,1,0.65,WHITE,WHITE,True,0,0.0012000018614344299,WHITE,True,CORRECT,0.627165400001104,627.165400001104
7,20260325_141148,J,D,True,AUTOMATION2,4,284,1584,fixed_delta,0.033374705876577364,0.013109562710342202,,,,,0.4639840191047335,1670,1930,1,0.65,WHITE,WHITE,True,0,0.0007999988156370819,WHITE,True,CORRECT,0.6117475999999442,611.7475999999442
7,20260325_141148,J,D,True,AUTOMATION2,4,285,1585,fixed_delta,0.033374705876577364,0.013109562710342202,,,,,0.47393227721329245,1706,1894,1,0.65,WHITE,BLACK,False,0,0.0039000005926936865,WHITE,True,CORRECT,0.6200507000030484,620.0507000030484
7,20260325_141148,J,D,True,AUTOMATION2,4,286,1586,fixed_delta,0.033374705876577364,0.013109562710342202,,,,,0.46905220508553724,1689,1911,1,0.65,WHITE,BLACK,False,0,0.0011000010999850929,WHITE,True,CORRECT,0.7839614000004076,783.9614000004076
7,20260325_141148,J,D,True,AUTOMATION2,4,287,1587,fixed_delta,0.033374705876577364,0.013109562710342202,,,,,0.5377028803269265,1936,1664,1,0.65,BLACK,WHITE,False,0,0.0015000005078036338,BLACK,True,CORRECT,0.4791317999988678,479.1317999988678
7,20260325_141148,J,D,True,AUTOMATION2,4,288,1588,fixed_delta,0.033374705876577364,0.013109562710342202,,,,,0.5251453272926052,1891,1709,1,0.65,BLACK,BLACK,True,0,0.0013999997463542968,BLACK,True,CORRECT,0.49460950000138837,494.60950000138837
7,20260325_141148,J,D,True,AUTOMATION2,4,289,1589,fixed_delta,0.033374705876577364,0.013109562710342202,,,,,0.5361685800994825,1930,1670,1,0.65,BLACK,WHITE,False,0,0.0013000026228837669,WHITE,False,INCORRECT,0.5295861000013247,529.5861000013247
7,20260325_141148,J,D,True,AUTOMATION2,4,290,1590,fixed_delta,0.033374705876577364,0.013109562710342202,,,,,0.4763048673626862,1715,1885,1,0.65,WHITE,WHITE,True,0,0.0012000018614344299,WHITE,True,CORRECT,0.4602362000005087,460.2362000005087
7,20260325_141148,J,D,True,AUTOMATION2,4,291,1591,fixed_delta,0.033374705876577364,0.013109562710342202,,,,,0.47072389687532024,1695,1905,1,0.65,WHITE,WHITE,True,0,0.0011999982234556228,WHITE,True,CORRECT,0.5594471999975212,559.4471999975212
7,20260325_141148,J,D,True,AUTOMATION2,4,292,1592,fixed_delta,0.033374705876577364,0.013109562710342202,,,,,0.4443469237985519,1600,2000,1,0.65,WHITE,BLACK,False,0,0.0015000005078036338,WHITE,True,CORRECT,0.48259279999911087,482.59279999911087
7,20260325_141148,J,D,True,AUTOMATION2,4,293,1593,fixed_delta,0.033374705876577364,0.013109562710342202,,,,,0.466765125678781,1680,1920,1,0.65,WHITE,WHITE,True,0,0.0012000018614344299,WHITE,True,CORRECT,0.49325660000249627,493.25660000249627
7,20260325_141148,J,D,True,AUTOMATION2,4,294,1594,fixed_delta,0.033374705876577364,0.013109562710342202,,,,,0.5119791482236729,1843,1757,1,0.65,BLACK,WHITE,False,0,0.0013999997463542968,BLACK,True,CORRECT,1.1040036999984295,1104.0036999984295
7,20260325_141148,J,D,True,AUTOMATION2,4,295,1595,fixed_delta,0.033374705876577364,0.013109562710342202,,,,,0.5405983814251332,1946,1654,1,0.65,BLACK,WHITE,False,0,0.0015000005078036338,BLACK,True,CORRECT,0.5610946999986481,561.0946999986481
7,20260325_141148,J,D,True,AUTOMATION2,4,296,1596,fixed_delta,0.033374705876577364,0.013109562710342202,,,,,0.5377180197267583,1936,1664,1,0.65,BLACK,BLACK,True,0,0.0010999974620062858,BLACK,True,CORRECT,0.551920699999755,551.920699999755
7,20260325_141148,J,D,True,AUTOMATION2,4,297,1597,fixed_delta,0.033374705876577364,0.013109562710342202,,,,,0.46651194455116013,1679,1921,1,0.65,WHITE,WHITE,True,0,0.0009999967005569488,WHITE,True,CORRECT,0.8985920999984955,898.5920999984955
7,20260325_141148,J,D,True,AUTOMATION2,4,298,1598,fixed_delta,0.033374705876577364,0.013109562710342202,,,,,0.4645326067883917,1672,1928,1,0.65,WHITE,BLACK,False,0,0.0011000010999850929,WHITE,True,CORRECT,0.4961006000012276,496.1006000012276
7,20260325_141148,J,D,True,AUTOMATION2,4,299,1599,fixed_delta,0.033374705876577364,0.013109562710342202,,,,,0.5547502413360654,1997,1603,1,0.65,BLACK,WHITE,False,0,0.0016000012692529708,BLACK,True,CORRECT,0.5932035000005271,593.2035000005271
7,20260325_141148,J,D,True,AUTOMATION2,4,300,1600,fixed_delta,0.033374705876577364,0.013109562710342202,,,,,0.47255884205254783,1701,1899,1,0.65,WHITE,WHITE,True,0,0.0018999999156221747,WHITE,True,CORRECT,0.6759973000007449,675.9973000007449
7,20260325_141148,J,D,True,AUTOMATION2,4,301,1601,fixed_delta,0.033374705876577364,0.013109562710342202,,,,,0.46172885923982404,1662,1938,1,0.65,WHITE,WHITE,True,0,0.0008999995770864189,WHITE,True,CORRECT,0.6771555000013905,677.1555000013905
7,20260325_141148,J,D,True,AUTOMATION2,4,302,1602,fixed_delta,0.033374705876577364,0.013109562710342202,,,,,0.471757740198032,1698,1902,1,0.65,WHITE,WHITE,True,0,0.0017999991541728377,WHITE,True,CORRECT,0.6111909999999625,611.1909999999625
7,20260325_141148,J,D,True,AUTOMATION2,4,303,1603,fixed_delta,0.033374705876577364,0.013109562710342202,,,,,0.4610961531297265,1660,1940,1,0.65,WHITE,WHITE,True,0,0.0016000012692529708,WHITE,True,CORRECT,0.5859544000013557,585.9544000013557
7,20260325_141148,J,D,True,AUTOMATION2,4,304,1604,fixed_delta,0.033374705876577364,0.013109562710342202,,,,,0.4652721575802324,1675,1925,1,0.65,WHITE,BLACK,False,0,0.0015999976312741637,WHITE,True,CORRECT,0.507083499996952,507.083499996952
7,20260325_141148,J,D,True,AUTOMATION2,4,305,1605,fixed_delta,0.033374705876577364,0.013109562710342202,,,,,0.5439153229576092,1958,1642,1,0.65,BLACK,WHITE,False,0,0.0013000026228837669,BLACK,True,CORRECT,0.7850304000021424,785.0304000021424
7,20260325_141148,J,D,True,AUTOMATION2,4,306,1606,fixed_delta,0.033374705876577364,0.013109562710342202,,,,,0.5293262399765942,1906,1694,1,0.65,BLACK,BLACK,True,0,0.0015000005078036338,BLACK,True,CORRECT,0.5000235000006796,500.02350000067963
7,20260325_141148,J,D,True,AUTOMATION2,4,307,1607,fixed_delta,0.033374705876577364,0.013109562710342202,,,,,0.4437043729370636,1597,2003,1,0.65,WHITE,WHITE,True,0,0.0011000010999850929,BLACK,False,INCORRECT,0.3633875000014086,363.3875000014086
7,20260325_141148,J,D,True,AUTOMATION2,4,308,1608,fixed_delta,0.033374705876577364,0.013109562710342202,,,,,0.4823127129853091,1736,1864,1,0.65,WHITE,WHITE,True,0,0.0008999995770864189,WHITE,True,CORRECT,0.7513775000006717,751.3775000006717
7,20260325_141148,J,D,True,AUTOMATION2,4,309,1609,fixed_delta,0.033374705876577364,0.013109562710342202,,,,,0.4556397493627559,1640,1960,1,0.65,WHITE,WHITE,True,0,0.0012000018614344299,WHITE,True,CORRECT,0.5977865000022575,597.7865000022575
7,20260325_141148,J,D,True,AUTOMATION2,4,310,1610,fixed_delta,0.033374705876577364,0.013109562710342202,,,,,0.4672748150977982,1682,1918,1,0.65,WHITE,WHITE,True,0,0.0011999982234556228,WHITE,True,CORRECT,0.6764150999988487,676.4150999988487
7,20260325_141148,J,D,True,AUTOMATION2,4,311,1611,fixed_delta,0.033374705876577364,0.013109562710342202,,,,,0.5428541479327027,1954,1646,1,0.65,BLACK,BLACK,True,0,0.0010000003385357559,BLACK,True,CORRECT,0.5001081000009435,500.1081000009435
7,20260325_141148,J,D,True,AUTOMATION2,4,312,1612,fixed_delta,0.033374705876577364,0.013109562710342202,,,,,0.4632319596889779,1668,1932,1,0.65,WHITE,BLACK,False,0,0.0018999999156221747,WHITE,True,CORRECT,0.6370628000004217,637.0628000004217
7,20260325_141148,J,D,True,AUTOMATION2,4,313,1613,fixed_delta,0.033374705876577364,0.013109562710342202,,,,,0.5388651709598624,1940,1660,1,0.65,BLACK,WHITE,False,0,0.0012999989849049598,BLACK,True,CORRECT,0.49447950000103447,494.47950000103447
7,20260325_141148,J,D,True,AUTOMATION2,4,314,1614,fixed_delta,0.033374705876577364,0.013109562710342202,,,,,0.5180169244001115,1865,1735,1,0.65,BLACK,BLACK,True,0,0.0010000003385357559,WHITE,False,INCORRECT,0.5505364000018744,550.5364000018744
7,20260325_141148,J,D,True,AUTOMATION2,4,315,1615,fixed_delta,0.033374705876577364,0.013109562710342202,,,,,0.5255682222172058,1892,1708,1,0.65,BLACK,BLACK,True,0,0.0011999982234556228,WHITE,False,INCORRECT,0.5716236999978719,571.6236999978719
7,20260325_141148,J,D,True,AUTOMATION2,4,316,1616,fixed_delta,0.033374705876577364,0.013109562710342202,,,,,0.4699884873042962,1692,1908,1,0.65,WHITE,BLACK,False,0,0.0011000010999850929,WHITE,True,CORRECT,0.6058574999988195,605.8574999988195
7,20260325_141148,J,D,True,AUTOMATION2,4,317,1617,fixed_delta,0.033374705876577364,0.013109562710342202,,,,,0.4541190131835012,1635,1965,1,0.65,WHITE,BLACK,False,0,0.0015000005078036338,WHITE,True,CORRECT,0.6376670999998169,637.6670999998169
7,20260325_141148,J,D,True,AUTOMATION2,4,318,1618,fixed_delta,0.033374705876577364,0.013109562710342202,,,,,0.4769159798025466,1717,1883,1,0.65,WHITE,WHITE,True,0,0.0010000003385357559,WHITE,True,CORRECT,0.6121014000018477,612.1014000018477
7,20260325_141148,J,D,True,AUTOMATION2,4,319,1619,fixed_delta,0.033374705876577364,0.013109562710342202,,,,,0.4674875757178349,1683,1917,1,0.65,WHITE,WHITE,True,0,0.0010999974620062858,WHITE,True,CORRECT,0.5209025000003749,520.9025000003749
7,20260325_141148,J,D,True,AUTOMATION2,4,320,1620,fixed_delta,0.033374705876577364,0.013109562710342202,,,,,0.47949762938951823,1726,1874,1,0.65,WHITE,WHITE,True,0,0.0010000003385357559,WHITE,True,CORRECT,0.5384371000000101,538.4371000000101
7,20260325_141148,J,D,True,AUTOMATION2,4,321,1621,fixed_delta,0.033374705876577364,0.013109562710342202,,,,,0.4414677052213056,1589,2011,1,0.65,WHITE,WHITE,True,0,0.0008999995770864189,WHITE,True,CORRECT,0.500789599998825,500.789599998825
7,20260325_141148,J,D,True,AUTOMATION2,4,322,1622,fixed_delta,0.033374705876577364,0.013109562710342202,,,,,0.4739561975141944,1706,1894,1,0.65,WHITE,BLACK,False,0,0.0011999982234556228,WHITE,True,CORRECT,0.5381706000007398,538.1706000007398
7,20260325_141148,J,D,True,AUTOMATION2,4,323,1623,fixed_delta,0.033374705876577364,0.013109562710342202,,,,,0.5502601419609032,1981,1619,1,0.65,BLACK,BLACK,True,0,0.0011000010999850929,BLACK,True,CORRECT,0.36302100000102655,363.02100000102655
7,20260325_141148,J,D,True,AUTOMATION2,4,324,1624,fixed_delta,0.033374705876577364,0.013109562710342202,,,,,0.45352610046763336,1633,1967,1,0.65,WHITE,BLACK,False,0,0.0011999982234556228,BLACK,False,INCORRECT,0.37042160000055446,370.42160000055446
7,20260325_141148,J,D,True,AUTOMATION2,4,325,1625,fixed_delta,0.033374705876577364,0.013109562710342202,,,,,0.5213607057509474,1877,1723,1,0.65,BLACK,WHITE,False,0,0.0010000003385357559,BLACK,True,CORRECT,0.4968077999983507,496.8077999983507
7,20260325_141148,J,D,True,AUTOMATION2,4,326,1626,fixed_delta,0.033374705876577364,0.013109562710342202,,,,,0.5254201112555107,1892,1708,1,0.65,BLACK,BLACK,True,0,0.0010000003385357559,BLACK,True,CORRECT,0.48289980000117794,482.89980000117794
7,20260325_141148,J,D,True,AUTOMATION2,4,327,1627,fixed_delta,0.033374705876577364,0.013109562710342202,,,,,0.5506319152452154,1982,1618,1,0.65,BLACK,BLACK,True,0,0.0012000018614344299,BLACK,True,CORRECT,0.3661003000015626,366.1003000015626
7,20260325_141148,J,D,True,AUTOMATION2,4,328,1628,fixed_delta,0.033374705876577364,0.013109562710342202,,,,,0.5486390135439982,1975,1625,1,0.65,BLACK,WHITE,False,0,0.0015000005078036338,BLACK,True,CORRECT,0.35393049999765935,353.93049999765935
7,20260325_141148,J,D,True,AUTOMATION2,4,329,1629,fixed_delta,0.033374705876577364,0.013109562710342202,,,,,0.5066878555265105,1824,1776,1,0.65,BLACK,WHITE,False,0,0.0008999995770864189,BLACK,True,CORRECT,0.4178274000005331,417.8274000005331
7,20260325_141148,J,D,True,AUTOMATION2,4,330,1630,fixed_delta,0.033374705876577364,0.013109562710342202,,,,,0.47977006310261316,1727,1873,1,0.65,WHITE,BLACK,False,0,0.0010000003385357559,BLACK,False,INCORRECT,0.39813109999886365,398.13109999886365
7,20260325_141148,J,D,True,AUTOMATION2,4,331,1631,fixed_delta,0.033374705876577364,0.013109562710342202,,,,,0.5218208092497854,1879,1721,1,0.65,BLACK,BLACK,True,0,0.0012999989849049598,BLACK,True,CORRECT,0.4575579000011203,457.5579000011203
7,20260325_141148,J,D,True,AUTOMATION2,4,332,1632,fixed_delta,0.033374705876577364,0.013109562710342202,,,,,0.5167294250496118,1860,1740,1,0.65,BLACK,BLACK,True,0,0.0012999989849049598,BLACK,True,CORRECT,0.6026977999972587,602.6977999972587
7,20260325_141148,J,D,True,AUTOMATION2,4,333,1633,fixed_delta,0.033374705876577364,0.013109562710342202,,,,,0.5325173879183153,1917,1683,1,0.65,BLACK,WHITE,False,0,0.0010999974620062858,BLACK,True,CORRECT,0.7948526000000129,794.8526000000129
7,20260325_141148,J,D,True,AUTOMATION2,4,334,1634,fixed_delta,0.033374705876577364,0.013109562710342202,,,,,0.4673018179484323,1682,1918,1,0.65,WHITE,BLACK,False,0,0.0013000026228837669,WHITE,True,CORRECT,0.6434910999996646,643.4910999996646
7,20260325_141148,J,D,True,AUTOMATION2,4,335,1635,fixed_delta,0.033374705876577364,0.013109562710342202,,,,,0.5526163678002899,1989,1611,1,0.65,BLACK,BLACK,True,0,0.0010000003385357559,BLACK,True,CORRECT,0.6137163000021246,613.7163000021246
7,20260325_141148,J,D,True,AUTOMATION2,4,336,1636,fixed_delta,0.033374705876577364,0.013109562710342202,,,,,0.482605977658895,1737,1863,1,0.65,WHITE,WHITE,True,0,0.0010999974620062858,BLACK,False,INCORRECT,0.4932520000002114,493.2520000002114
7,20260325_141148,J,D,True,AUTOMATION2,4,337,1637,fixed_delta,0.033374705876577364,0.013109562710342202,,,,,0.466723578623013,1680,1920,1,0.65,WHITE,WHITE,True,0,0.0010000003385357559,BLACK,False,INCORRECT,0.4588637999986531,458.8637999986531
7,20260325_141148,J,D,True,AUTOMATION2,4,338,1638,fixed_delta,0.033374705876577364,0.013109562710342202,,,,,0.46149009693441123,1661,1939,1,0.65,WHITE,BLACK,False,0,0.0015999976312741637,BLACK,False,INCORRECT,0.5235232999984873,523.5232999984873
7,20260325_141148,J,D,True,AUTOMATION2,4,339,1639,fixed_delta,0.033374705876577364,0.013109562710342202,,,,,0.46811740038169247,1685,1915,1,0.65,WHITE,BLACK,False,0,0.0012999989849049598,WHITE,True,CORRECT,0.6051164999989851,605.1164999989851
7,20260325_141148,J,D,True,AUTOMATION2,4,340,1640,fixed_delta,0.033374705876577364,0.013109562710342202,,,,,0.5329711963205654,1919,1681,1,0.65,BLACK,BLACK,True,0,0.0017000020307023078,BLACK,True,CORRECT,0.4753571000001102,475.3571000001102
7,20260325_141148,J,D,True,AUTOMATION2,4,341,1641,fixed_delta,0.033374705876577364,0.013109562710342202,,,,,0.4644292994651471,1672,1928,1,0.65,WHITE,BLACK,False,0,0.0011000010999850929,BLACK,False,INCORRECT,0.4762494000024162,476.2494000024162
7,20260325_141148,J,D,True,AUTOMATION2,4,342,1642,fixed_delta,0.033374705876577364,0.013109562710342202,,,,,0.5303268574274825,1909,1691,1,0.65,BLACK,BLACK,True,0,0.0011000010999850929,BLACK,True,CORRECT,0.5091434000023582,509.14340000235825
7,20260325_141148,J,D,True,AUTOMATION2,4,343,1643,fixed_delta,0.033374705876577364,0.013109562710342202,,,,,0.5415297033118381,1950,1650,1,0.65,BLACK,BLACK,True,0,0.0018999999156221747,BLACK,True,CORRECT,0.4353163999985554,435.3163999985554
7,20260325_141148,J,D,True,AUTOMATION2,4,344,1644,fixed_delta,0.033374705876577364,0.013109562710342202,,,,,0.5203077940741772,1873,1727,1,0.65,BLACK,BLACK,True,0,0.0011000010999850929,BLACK,True,CORRECT,0.45180940000136616,451.80940000136616
7,20260325_141148,J,D,True,AUTOMATION2,4,345,1645,fixed_delta,0.033374705876577364,0.013109562710342202,,,,,0.4667520151100907,1680,1920,1,0.65,WHITE,WHITE,True,0,0.0020000006770715117,WHITE,True,CORRECT,0.6711949999989884,671.1949999989884
7,20260325_141148,J,D,True,AUTOMATION2,4,346,1646,fixed_delta,0.033374705876577364,0.013109562710342202,,,,,0.540704258088645,1947,1653,1,0.65,BLACK,WHITE,False,0,0.0013999997463542968,BLACK,True,CORRECT,0.5938700000006065,593.8700000006065
7,20260325_141148,J,D,True,AUTOMATION2,4,347,1647,fixed_delta,0.033374705876577364,0.013109562710342202,,,,,0.5301483738708566,1909,1691,1,0.65,BLACK,WHITE,False,0,0.0010999974620062858,BLACK,True,CORRECT,0.5186775000001944,518.6775000001944
7,20260325_141148,J,D,True,AUTOMATION2,4,348,1648,fixed_delta,0.033374705876577364,0.013109562710342202,,,,,0.5439079468198571,1958,1642,1,0.65,BLACK,BLACK,True,0,0.0016000012692529708,BLACK,True,CORRECT,0.5430661000027612,543.0661000027612
7,20260325_141148,J,D,True,AUTOMATION2,4,349,1649,fixed_delta,0.033374705876577364,0.013109562710342202,,,,,0.5452573514135506,1963,1637,1,0.65,BLACK,BLACK,True,0,0.0011000010999850929,BLACK,True,CORRECT,0.47803340000245953,478.03340000245953
7,20260325_141148,J,D,True,AUTOMATION2,4,350,1650,fixed_delta,0.033374705876577364,0.013109562710342202,,,,,0.47625253898890085,1715,1885,1,0.65,WHITE,BLACK,False,0,0.0008999995770864189,WHITE,True,CORRECT,1.4662518000004638,1466.2518000004638
7,20260325_141148,J,D,True,AUTOMATION2,4,351,1651,fixed_delta,0.033374705876577364,0.013109562710342202,,,,,0.45915146223423203,1653,1947,1,0.65,WHITE,WHITE,True,0,0.0013999997463542968,WHITE,True,CORRECT,0.6946848000006867,694.6848000006867
7,20260325_141148,J,D,True,AUTOMATION2,4,352,1652,fixed_delta,0.033374705876577364,0.013109562710342202,,,,,0.5374763503982707,1935,1665,1,0.65,BLACK,BLACK,True,0,0.0015000005078036338,BLACK,True,CORRECT,0.48390719999952125,483.90719999952125
7,20260325_141148,J,D,True,AUTOMATION2,4,353,1653,fixed_delta,0.033374705876577364,0.013109562710342202,,,,,0.4919114426267167,1771,1829,1,0.65,WHITE,WHITE,True,0,0.0013000026228837669,WHITE,True,CORRECT,0.6883884000017133,688.3884000017133
7,20260325_141148,J,D,True,AUTOMATION2,4,354,1654,fixed_delta,0.033374705876577364,0.013109562710342202,,,,,0.4567286376717581,1644,1956,1,0.65,WHITE,BLACK,False,0,0.0013999997463542968,WHITE,True,CORRECT,0.7371100999989721,737.1100999989721
7,20260325_141148,J,D,True,AUTOMATION2,4,355,1655,fixed_delta,0.033374705876577364,0.013109562710342202,,,,,0.5445826874035484,1960,1640,1,0.65,BLACK,BLACK,True,0,0.0010999974620062858,BLACK,True,CORRECT,0.4256844999981695,425.6844999981695
7,20260325_141148,J,D,True,AUTOMATION2,4,356,1656,fixed_delta,0.033374705876577364,0.013109562710342202,,,,,0.45961426267417377,1655,1945,1,0.65,WHITE,BLACK,False,0,0.0010000003385357559,WHITE,True,CORRECT,0.5869229999989329,586.9229999989329
7,20260325_141148,J,D,True,AUTOMATION2,4,357,1657,fixed_delta,0.033374705876577364,0.013109562710342202,,,,,0.48106218322618954,1732,1868,1,0.65,WHITE,WHITE,True,0,0.0010000003385357559,WHITE,True,CORRECT,0.6431658000001335,643.1658000001335
7,20260325_141148,J,D,True,AUTOMATION2,4,358,1658,fixed_delta,0.033374705876577364,0.013109562710342202,,,,,0.5447279855984323,1961,1639,1,0.65,BLACK,WHITE,False,0,0.0007999988156370819,BLACK,True,CORRECT,0.4801763999967079,480.1763999967079
7,20260325_141148,J,D,True,AUTOMATION2,4,359,1659,fixed_delta,0.033374705876577364,0.013109562710342202,,,,,0.5463075729140333,1967,1633,1,0.65,BLACK,WHITE,False,0,0.0011999982234556228,BLACK,True,CORRECT,0.8021210000006249,802.1210000006249
7,20260325_141148,J,D,True,AUTOMATION2,4,360,1660,fixed_delta,0.033374705876577364,0.013109562710342202,,,,,0.47140675579390384,1697,1903,1,0.65,WHITE,WHITE,True,0,0.0013999997463542968,WHITE,True,CORRECT,0.5752444999998261,575.2444999998261
7,20260325_141148,J,D,True,AUTOMATION2,4,361,1661,fixed_delta,0.033374705876577364,0.013109562710342202,,,,,0.45878410548991044,1652,1948,1,0.65,WHITE,BLACK,False,0,0.0012999989849049598,WHITE,True,CORRECT,0.5741856999993615,574.1856999993615
7,20260325_141148,J,D,True,AUTOMATION2,4,362,1662,fixed_delta,0.033374705876577364,0.013109562710342202,,,,,0.4866436867299765,1752,1848,1,0.65,WHITE,WHITE,True,0,0.0013999997463542968,WHITE,True,CORRECT,0.6551327999986825,655.1327999986825
7,20260325_141148,J,D,True,AUTOMATION2,4,363,1663,fixed_delta,0.033374705876577364,0.013109562710342202,,,,,0.52793120735998,1901,1699,1,0.65,BLACK,BLACK,True,0,0.0017000020307023078,BLACK,True,CORRECT,0.5754870000018855,575.4870000018855
7,20260325_141148,J,D,True,AUTOMATION2,4,364,1664,fixed_delta,0.033374705876577364,0.013109562710342202,,,,,0.516564642652858,1860,1740,1,0.65,BLACK,BLACK,True,0,0.0010000003385357559,WHITE,False,INCORRECT,0.7034324999985984,703.4324999985984
7,20260325_141148,J,D,True,AUTOMATION2,4,365,1665,fixed_delta,0.033374705876577364,0.013109562710342202,,,,,0.47586915708808825,1713,1887,1,0.65,WHITE,WHITE,True,0,0.0011000010999850929,WHITE,True,CORRECT,0.7831932000008237,783.1932000008237
7,20260325_141148,J,D,True,AUTOMATION2,4,366,1666,fixed_delta,0.033374705876577364,0.013109562710342202,,,,,0.5287876425707831,1904,1696,1,0.65,BLACK,WHITE,False,0,0.0017000020307023078,WHITE,False,INCORRECT,0.844602200002555,844.602200002555
7,20260325_141148,J,D,True,AUTOMATION2,4,367,1667,fixed_delta,0.033374705876577364,0.013109562710342202,,,,,0.5134088922907188,1848,1752,1,0.65,BLACK,BLACK,True,0,0.0012999989849049598,BLACK,True,CORRECT,0.4994323999999324,499.4323999999324
7,20260325_141148,J,D,True,AUTOMATION2,4,368,1668,fixed_delta,0.033374705876577364,0.013109562710342202,,,,,0.5402646947230322,1945,1655,1,0.65,BLACK,BLACK,True,0,0.0011000010999850929,BLACK,True,CORRECT,0.4760511000022234,476.0511000022234
7,20260325_141148,J,D,True,AUTOMATION2,4,369,1669,fixed_delta,0.033374705876577364,0.013109562710342202,,,,,0.4370310902402732,1573,2027,1,0.65,WHITE,WHITE,True,0,0.0016999983927235007,WHITE,True,CORRECT,0.5200397999979032,520.0397999979032
7,20260325_141148,J,D,True,AUTOMATION2,4,370,1670,fixed_delta,0.033374705876577364,0.013109562710342202,,,,,0.5396961728529394,1943,1657,1,0.65,BLACK,BLACK,True,0,0.0010999974620062858,BLACK,True,CORRECT,0.863720999997895,863.720999997895
7,20260325_141148,J,D,True,AUTOMATION2,4,371,1671,fixed_delta,0.033374705876577364,0.013109562710342202,,,,,0.4663111710584157,1679,1921,1,0.65,WHITE,BLACK,False,0,0.0013999997463542968,WHITE,True,CORRECT,0.48235769999882905,482.35769999882905
7,20260325_141148,J,D,True,AUTOMATION2,4,372,1672,fixed_delta,0.033374705876577364,0.013109562710342202,,,,,0.5331271974230846,1919,1681,1,0.65,BLACK,WHITE,False,0,0.0012000018614344299,WHITE,False,INCORRECT,0.6188738999990164,618.8738999990164
7,20260325_141148,J,D,True,AUTOMATION2,4,373,1673,fixed_delta,0.033374705876577364,0.013109562710342202,,,,,0.5096843528566037,1835,1765,1,0.65,BLACK,BLACK,True,0,0.0010000003385357559,BLACK,True,CORRECT,1.058611700002075,1058.611700002075
7,20260325_141148,J,D,True,AUTOMATION2,4,374,1674,fixed_delta,0.033374705876577364,0.013109562710342202,,,,,0.486333384950294,1751,1849,1,0.65,WHITE,BLACK,False,0,0.0012999989849049598,BLACK,False,INCORRECT,0.5960893999981636,596.0893999981636
7,20260325_141148,J,D,True,AUTOMATION2,4,375,1675,fixed_delta,0.033374705876577364,0.013109562710342202,,,,,0.5490724245201384,1977,1623,1,0.65,BLACK,BLACK,True,0,0.0012000018614344299,BLACK,True,CORRECT,0.531490000001213,531.490000001213
7,20260325_141148,J,D,True,AUTOMATION2,4,376,1676,fixed_delta,0.033374705876577364,0.013109562710342202,,,,,0.4679277013186654,1685,1915,1,0.65,WHITE,WHITE,True,0,0.0012999989849049598,WHITE,True,CORRECT,0.49825419999979204,498.25419999979204
7,20260325_141148,J,D,True,AUTOMATION2,4,377,1677,fixed_delta,0.033374705876577364,0.013109562710342202,,,,,0.46319617407076497,1668,1932,1,0.65,WHITE,BLACK,False,0,0.0015000005078036338,BLACK,False,INCORRECT,0.4753318000002764,475.3318000002764
7,20260325_141148,J,D,True,AUTOMATION2,4,378,1678,fixed_delta,0.033374705876577364,0.013109562710342202,,,,,0.526619299390884,1896,1704,1,0.65,BLACK,WHITE,False,0,0.0011000010999850929,WHITE,False,INCORRECT,0.5886107999976957,588.6107999976957
7,20260325_141148,J,D,True,AUTOMATION2,4,379,1679,fixed_delta,0.033374705876577364,0.013109562710342202,,,,,0.48627441232256646,1751,1849,1,0.65,WHITE,WHITE,True,0,0.0012000018614344299,WHITE,True,CORRECT,0.5904394000026514,590.4394000026514
7,20260325_141148,J,D,True,AUTOMATION2,4,380,1680,fixed_delta,0.033374705876577364,0.013109562710342202,,,,,0.5327794454842711,1918,1682,1,0.65,BLACK,BLACK,True,0,0.0010000003385357559,BLACK,True,CORRECT,0.44360609999785083,443.60609999785083
7,20260325_141148,J,D,True,AUTOMATION2,4,381,1681,fixed_delta,0.033374705876577364,0.013109562710342202,,,,,0.5650778329924298,2034,1566,1,0.65,BLACK,WHITE,False,0,0.0012999989849049598,BLACK,True,CORRECT,0.836701100000937,836.701100000937
7,20260325_141148,J,D,True,AUTOMATION2,4,382,1682,fixed_delta,0.033374705876577364,0.013109562710342202,,,,,0.47494675545965825,1710,1890,1,0.65,WHITE,WHITE,True,0,0.0015000005078036338,WHITE,True,CORRECT,0.5749691999990318,574.9691999990318
7,20260325_141148,J,D,True,AUTOMATION2,4,383,1683,fixed_delta,0.033374705876577364,0.013109562710342202,,,,,0.5353688388775503,1927,1673,1,0.65,BLACK,BLACK,True,0,0.0008999995770864189,BLACK,True,CORRECT,0.5333325999999943,533.3325999999943
7,20260325_141148,J,D,True,AUTOMATION2,4,384,1684,fixed_delta,0.033374705876577364,0.013109562710342202,,,,,0.4704887550583886,1694,1906,1,0.65,WHITE,WHITE,True,0,0.0010000003385357559,WHITE,True,CORRECT,0.5271079000012833,527.1079000012833
7,20260325_141148,J,D,True,AUTOMATION2,4,385,1685,fixed_delta,0.033374705876577364,0.013109562710342202,,,,,0.5432369119575774,1956,1644,1,0.65,BLACK,BLACK,True,0,0.0014999968698248267,BLACK,True,CORRECT,0.45462729999781004,454.62729999781004
7,20260325_141148,J,D,True,AUTOMATION2,4,386,1686,fixed_delta,0.033374705876577364,0.013109562710342202,,,,,0.47234655730661496,1700,1900,1,0.65,WHITE,WHITE,True,0,0.0011999982234556228,BLACK,False,INCORRECT,0.7494301999977324,749.4301999977324
7,20260325_141148,J,D,True,AUTOMATION2,4,387,1687,fixed_delta,0.033374705876577364,0.013109562710342202,,,,,0.5336821657515458,1921,1679,1,0.65,BLACK,BLACK,True,0,0.0010000003385357559,BLACK,True,CORRECT,0.6587025999979232,658.7025999979232
7,20260325_141148,J,D,True,AUTOMATION2,4,388,1688,fixed_delta,0.033374705876577364,0.013109562710342202,,,,,0.5157410750436342,1857,1743,1,0.65,BLACK,WHITE,False,0,0.0011000010999850929,WHITE,False,INCORRECT,0.7034725000012259,703.4725000012259
7,20260325_141148,J,D,True,AUTOMATION2,4,389,1689,fixed_delta,0.033374705876577364,0.013109562710342202,,,,,0.514345321659422,1852,1748,1,0.65,BLACK,BLACK,True,0,0.0012999989849049598,BLACK,True,CORRECT,0.9627174999986892,962.7174999986892
7,20260325_141148,J,D,True,AUTOMATION2,4,390,1690,fixed_delta,0.033374705876577364,0.013109562710342202,,,,,0.4484265218280121,1614,1986,1,0.65,WHITE,WHITE,True,0,0.000900003215065226,WHITE,True,CORRECT,0.6816703000004054,681.6703000004054
7,20260325_141148,J,D,True,AUTOMATION2,4,391,1691,fixed_delta,0.033374705876577364,0.013109562710342202,,,,,0.5237289812642572,1885,1715,1,0.65,BLACK,WHITE,False,0,0.0013999997463542968,BLACK,True,CORRECT,0.608571299999312,608.571299999312
7,20260325_141148,J,D,True,AUTOMATION2,4,392,1692,fixed_delta,0.033374705876577364,0.013109562710342202,,,,,0.4485715692576142,1615,1985,1,0.65,WHITE,BLACK,False,0,0.0013999997463542968,WHITE,True,CORRECT,0.4799217999971006,479.9217999971006
7,20260325_141148,J,D,True,AUTOMATION2,4,393,1693,fixed_delta,0.033374705876577364,0.013109562710342202,,,,,0.5560563654446239,2002,1598,1,0.65,BLACK,WHITE,False,0,0.000900003215065226,WHITE,False,INCORRECT,0.638613200000691,638.613200000691
7,20260325_141148,J,D,True,AUTOMATION2,4,394,1694,fixed_delta,0.033374705876577364,0.013109562710342202,,,,,0.5214665151866379,1877,1723,1,0.65,BLACK,WHITE,False,0,0.0011000010999850929,WHITE,False,INCORRECT,0.6182829999997921,618.2829999997921
7,20260325_141148,J,D,True,AUTOMATION2,4,395,1695,fixed_delta,0.033374705876577364,0.013109562710342202,,,,,0.5379206352110026,1937,1663,1,0.65,BLACK,BLACK,True,0,0.0011000010999850929,BLACK,True,CORRECT,1.0064590000001772,1006.4590000001772
7,20260325_141148,J,D,True,AUTOMATION2,4,396,1696,fixed_delta,0.033374705876577364,0.013109562710342202,,,,,0.5388927056041477,1940,1660,1,0.65,BLACK,BLACK,True,0,0.0013999997463542968,BLACK,True,CORRECT,0.5070324000007531,507.0324000007531
7,20260325_141148,J,D,True,AUTOMATION2,4,397,1697,fixed_delta,0.033374705876577364,0.013109562710342202,,,,,0.5417274344905024,1950,1650,1,0.65,BLACK,WHITE,False,0,0.0010000003385357559,BLACK,True,CORRECT,0.5245102000008046,524.5102000008046
7,20260325_141148,J,D,True,AUTOMATION2,4,398,1698,fixed_delta,0.033374705876577364,0.013109562710342202,,,,,0.5441496095901726,1959,1641,1,0.65,BLACK,BLACK,True,0,0.0008999995770864189,BLACK,True,CORRECT,0.4905040000012377,490.5040000012377
7,20260325_141148,J,D,True,AUTOMATION2,4,399,1699,fixed_delta,0.033374705876577364,0.013109562710342202,,,,,0.46970377961974014,1691,1909,1,0.65,WHITE,WHITE,True,0,0.0013999997463542968,WHITE,True,CORRECT,0.7051490999983798,705.1490999983798
7,20260325_141148,J,D,True,AUTOMATION2,4,400,1700,fixed_delta,0.033374705876577364,0.013109562710342202,,,,,0.4445527721658,1600,2000,1,0.65,WHITE,BLACK,False,0,0.0011000010999850929,BLACK,False,INCORRECT,0.5091380000012578,509.13800000125775
7,20260325_141148,J,D,True,AUTOMATION2,4,401,1701,fixed_delta,0.033374705876577364,0.013109562710342202,,,,,0.5054863743355112,1820,1780,1,0.65,BLACK,BLACK,True,0,0.0010000003385357559,BLACK,True,CORRECT,0.9389482000005955,938.9482000005955
7,20260325_141148,J,D,True,AUTOMATION2,4,402,1702,fixed_delta,0.033374705876577364,0.013109562710342202,,,,,0.5300241897726079,1908,1692,1,0.65,BLACK,BLACK,True,0,0.0012000018614344299,BLACK,True,CORRECT,0.4839317000005394,483.9317000005394
7,20260325_141148,J,D,True,AUTOMATION2,4,403,1703,fixed_delta,0.033374705876577364,0.013109562710342202,,,,,0.4434939777525653,1597,2003,1,0.65,WHITE,BLACK,False,0,0.0012000018614344299,WHITE,True,CORRECT,0.5274790000003122,527.4790000003122
7,20260325_141148,J,D,True,AUTOMATION2,4,404,1704,fixed_delta,0.033374705876577364,0.013109562710342202,,,,,0.5268765119449608,1897,1703,1,0.65,BLACK,WHITE,False,0,0.0011999982234556228,BLACK,True,CORRECT,0.46895329999824753,468.95329999824753
7,20260325_141148,J,D,True,AUTOMATION2,4,405,1705,fixed_delta,0.033374705876577364,0.013109562710342202,,,,,0.5362082129684873,1930,1670,1,0.65,BLACK,BLACK,True,0,0.0012999989849049598,BLACK,True,CORRECT,0.5789981000016269,578.9981000016269
7,20260325_141148,J,D,True,AUTOMATION2,4,406,1706,fixed_delta,0.033374705876577364,0.013109562710342202,,,,,0.5470142117623753,1969,1631,1,0.65,BLACK,WHITE,False,0,0.0018999999156221747,BLACK,True,CORRECT,0.591923100000713,591.923100000713
7,20260325_141148,J,D,True,AUTOMATION2,4,407,1707,fixed_delta,0.033374705876577364,0.013109562710342202,,,,,0.4745167342202379,1708,1892,1,0.65,WHITE,WHITE,True,0,0.0011999982234556228,BLACK,False,INCORRECT,0.9374160999977903,937.4160999977903
7,20260325_141148,J,D,True,AUTOMATION2,4,408,1708,fixed_delta,0.033374705876577364,0.013109562710342202,,,,,0.47370901295096607,1705,1895,1,0.65,WHITE,BLACK,False,0,0.0012999989849049598,BLACK,False,INCORRECT,0.6555776999994123,655.5776999994123
7,20260325_141148,J,D,True,AUTOMATION2,4,409,1709,fixed_delta,0.033374705876577364,0.013109562710342202,,,,,0.5083482615063831,1830,1770,1,0.65,BLACK,BLACK,True,0,0.0012999989849049598,WHITE,False,INCORRECT,0.9730455999997503,973.0455999997503
