participant_id,run_timestamp,key_black,key_white,keymap_flip,block,block_idx,trial,global_trial,difficulty_mode,delta_fixed_mean,delta_fixed_sd,delta_stair_realised,delta_stair_mean,delta_step_down_used,delta_step_up_used,vblack_prop,n_vblack,n_vwhite,auto_on,aid_accuracy_setting,stimulus,aid_label,aid_correct,aid_onset_ms,aid_onset_ms_rel,response,correct,feedback,rt_s,rt_ms
1,20260325_120141,D,J,False,AUTOMATION2,4,1,1301,fixed_delta,0.04926863410845236,0.011780794413821632,,,,,0.4453946737360556,1603,1997,1,0.65,WHITE,BLACK,False,0,0.0015029982023406774,WHITE,True,CORRECT,3.0179214919990045,3017.9214919990045
1,20260325_120141,D,J,False,AUTOMATION2,4,2,1302,fixed_delta,0.04926863410845236,0.011780794413821632,,,,,0.5352559490085451,1927,1673,1,0.65,BLACK,WHITE,False,0,0.0015030018403194845,WHITE,False,INCORRECT,1.3767172950028908,1376.7172950028908
1,20260325_120141,D,J,False,AUTOMATION2,4,3,1303,fixed_delta,0.04926863410845236,0.011780794413821632,,,,,0.5546648649694286,1997,1603,1,0.65,BLACK,WHITE,False,0,0.0018020000425167382,WHITE,False,INCORRECT,3.1198830449975503,3119.8830449975503
1,20260325_120141,D,J,False,AUTOMATION2,4,4,1304,fixed_delta,0.04926863410845236,0.011780794413821632,,,,,0.5404332429151012,1946,1654,1,0.65,BLACK,WHITE,False,0,0.0015019977581687272,WHITE,False,INCORRECT,2.9611243799990916,2961.1243799990916
1,20260325_120141,D,J,False,AUTOMATION2,4,5,1305,fixed_delta,0.04926863410845236,0.011780794413821632,,,,,0.45060863202808676,1622,1978,1,0.65,WHITE,BLACK,False,0,0.0015030018403194845,WHITE,True,CORRECT,2.721305407001637,2721.305407001637
1,20260325_120141,D,J,False,AUTOMATION2,4,6,1306,fixed_delta,0.04926863410845236,0.011780794413821632,,,,,0.455788154709534,1641,1959,1,0.65,WHITE,BLACK,False,0,0.0015020013961475343,WHITE,True,CORRECT,1.9369113620014105,1936.9113620014105
1,20260325_120141,D,J,False,AUTOMATION2,4,7,1307,fixed_delta,0.04926863410845236,0.011780794413821632,,,,,0.5528014036638103,1990,1610,1,0.65,BLACK,WHITE,False,0,0.0018030004866886884,WHITE,False,INCORRECT,2.7398960430000443,2739.8960430000443
1,20260325_120141,D,J,False,AUTOMATION2,4,8,1308,fixed_delta,0.04926863410845236,0.011780794413821632,,,,,0.5460415389448463,1966,1634,1,0.65,BLACK,BLACK,True,0,0.0018030004866886884,BLACK,True,CORRECT,2.096412186001544,2096.412186001544
1,20260325_120141,D,J,False,AUTOMATION2,4,9,1309,fixed_delta,0.04926863410845236,0.011780794413821632,,,,,0.5945833600550691,2141,1459,1,0.65,BLACK,BLACK,True,0,0.0021039995772298425,BLACK,True,CORRECT,0.7563034710001375,756.3034710001375
1,20260325_120141,D,J,False,AUTOMATION2,4,10,1310,fixed_delta,0.04926863410845236,0.011780794413821632,,,,,0.5256352251884886,1892,1708,1,0.65,BLACK,WHITE,False,0,0.0015020013961475343,WHITE,False,INCORRECT,4.162656652999431,4162.656652999431
1,20260325_120141,D,J,False,AUTOMATION2,4,11,1311,fixed_delta,0.04926863410845236,0.011780794413821632,,,,,0.5350949778998587,1926,1674,1,0.65,BLACK,WHITE,False,0,0.0015030018403194845,WHITE,False,INCORRECT,1.131011227000272,1131.011227000272
1,20260325_120141,D,J,False,AUTOMATION2,4,12,1312,fixed_delta,0.04926863410845236,0.011780794413821632,,,,,0.5452406733237017,1963,1637,1,0.65,BLACK,BLACK,True,0,0.0015020013961475343,TIMEOUT,,TOO SLOW,,
1,20260325_120141,D,J,False,AUTOMATION2,4,13,1313,fixed_delta,0.04926863410845236,0.011780794413821632,,,,,0.5527655305674218,1990,1610,1,0.65,BLACK,BLACK,True,0,0.0015019977581687272,BLACK,True,CORRECT,2.085902070000884,2085.902070000884
1,20260325_120141,D,J,False,AUTOMATION2,4,14,1314,fixed_delta,0.04926863410845236,0.011780794413821632,,,,,0.4466161958845237,1608,1992,1,0.65,WHITE,WHITE,True,0,0.0018030004866886884,WHITE,True,CORRECT,0.8788486740013468,878.8486740013468
1,20260325_120141,D,J,False,AUTOMATION2,4,15,1315,fixed_delta,0.04926863410845236,0.011780794413821632,,,,,0.4465438801486631,1608,1992,1,0.65,WHITE,BLACK,False,0,0.0015019977581687272,WHITE,True,CORRECT,2.814768185999128,2814.768185999128
1,20260325_120141,D,J,False,AUTOMATION2,4,16,1316,fixed_delta,0.04926863410845236,0.011780794413821632,,,,,0.5494406917716216,1978,1622,1,0.65,BLACK,BLACK,True,0,0.0015019977581687272,WHITE,False,INCORRECT,2.4308555529969453,2430.8555529969453
1,20260325_120141,D,J,False,AUTOMATION2,4,17,1317,fixed_delta,0.04926863410845236,0.011780794413821632,,,,,0.4526502177256054,1630,1970,1,0.65,WHITE,BLACK,False,0,0.0015020013961475343,WHITE,True,CORRECT,2.431669524001336,2431.669524001336
1,20260325_120141,D,J,False,AUTOMATION2,4,18,1318,fixed_delta,0.04926863410845236,0.011780794413821632,,,,,0.5616932067742636,2022,1578,1,0.65,BLACK,BLACK,True,0,0.0027040005079470575,BLACK,True,CORRECT,3.1101766850006243,3110.1766850006243
1,20260325_120141,D,J,False,AUTOMATION2,4,19,1319,fixed_delta,0.04926863410845236,0.011780794413821632,,,,,0.5375413175348962,1935,1665,1,0.65,BLACK,BLACK,True,0,0.0015020013961475343,WHITE,False,INCORRECT,4.979428670001653,4979.428670001653
1,20260325_120141,D,J,False,AUTOMATION2,4,20,1320,fixed_delta,0.04926863410845236,0.011780794413821632,,,,,0.4655310490974395,1676,1924,1,0.65,WHITE,WHITE,True,0,0.0018030004866886884,WHITE,True,CORRECT,1.840686668001581,1840.686668001581
1,20260325_120141,D,J,False,AUTOMATION2,4,21,1321,fixed_delta,0.04926863410845236,0.011780794413821632,,,,,0.4494083470270061,1618,1982,1,0.65,WHITE,BLACK,False,0,0.0021029991330578923,WHITE,True,CORRECT,1.7534949830005644,1753.4949830005644
1,20260325_120141,D,J,False,AUTOMATION2,4,22,1322,fixed_delta,0.04926863410845236,0.011780794413821632,,,,,0.5908930434337681,2127,1473,1,0.65,BLACK,WHITE,False,0,0.0015019977581687272,BLACK,True,CORRECT,2.49486693200015,2494.86693200015
1,20260325_120141,D,J,False,AUTOMATION2,4,23,1323,fixed_delta,0.04926863410845236,0.011780794413821632,,,,,0.5610235196231879,2020,1580,1,0.65,BLACK,BLACK,True,0,0.0018020000425167382,BLACK,True,CORRECT,5.61053289100164,5610.53289100164
1,20260325_120141,D,J,False,AUTOMATION2,4,24,1324,fixed_delta,0.04926863410845236,0.011780794413821632,,,,,0.5554662734425995,2000,1600,1,0.65,BLACK,BLACK,True,0,0.0018020000425167382,BLACK,True,CORRECT,2.3332042309993994,2333.2042309993994
1,20260325_120141,D,J,False,AUTOMATION2,4,25,1325,fixed_delta,0.04926863410845236,0.011780794413821632,,,,,0.5531415429371592,1991,1609,1,0.65,BLACK,BLACK,True,0,0.0015020013961475343,BLACK,True,CORRECT,5.134732237998833,5134.732237998833
1,20260325_120141,D,J,False,AUTOMATION2,4,26,1326,fixed_delta,0.04926863410845236,0.011780794413821632,,,,,0.528400431906855,1902,1698,1,0.65,BLACK,BLACK,True,0,0.0015029982023406774,WHITE,False,INCORRECT,1.551493979000952,1551.493979000952
1,20260325_120141,D,J,False,AUTOMATION2,4,27,1327,fixed_delta,0.04926863410845236,0.011780794413821632,,,,,0.5484903105949086,1975,1625,1,0.65,BLACK,WHITE,False,0,0.0015019977581687272,WHITE,False,INCORRECT,2.5801284019980812,2580.1284019980812
1,20260325_120141,D,J,False,AUTOMATION2,4,28,1328,fixed_delta,0.04926863410845236,0.011780794413821632,,,,,0.4483824862593018,1614,1986,1,0.65,WHITE,WHITE,True,0,0.0018030004866886884,WHITE,True,CORRECT,0.7734094879997429,773.4094879997429
1,20260325_120141,D,J,False,AUTOMATION2,4,29,1329,fixed_delta,0.04926863410845236,0.011780794413821632,,,,,0.44130083997161174,1589,2011,1,0.65,WHITE,BLACK,False,0,0.0015020013961475343,WHITE,True,CORRECT,2.5052078840017202,2505.2078840017202
1,20260325_120141,D,J,False,AUTOMATION2,4,30,1330,fixed_delta,0.04926863410845236,0.011780794413821632,,,,,0.5523384277411357,1988,1612,1,0.65,BLACK,WHITE,False,0,0.0012019991117995232,BLACK,True,CORRECT,1.633730323999771,1633.730323999771
1,20260325_120141,D,J,False,AUTOMATION2,4,31,1331,fixed_delta,0.04926863410845236,0.011780794413821632,,,,,0.4496602904319408,1619,1981,1,0.65,WHITE,BLACK,False,0,0.0015020013961475343,WHITE,True,CORRECT,2.8452643180025916,2845.2643180025916
1,20260325_120141,D,J,False,AUTOMATION2,4,32,1332,fixed_delta,0.04926863410845236,0.011780794413821632,,,,,0.4708641983444668,1695,1905,1,0.65,WHITE,WHITE,True,0,0.0018030004866886884,WHITE,True,CORRECT,4.433589824002411,4433.589824002411
1,20260325_120141,D,J,False,AUTOMATION2,4,33,1333,fixed_delta,0.04926863410845236,0.011780794413821632,,,,,0.5581005013282733,2009,1591,1,0.65,BLACK,WHITE,False,0,0.0015029982023406774,BLACK,True,CORRECT,4.680880567997519,4680.880567997519
1,20260325_120141,D,J,False,AUTOMATION2,4,34,1334,fixed_delta,0.04926863410845236,0.011780794413821632,,,,,0.44274755439344476,1594,2006,1,0.65,WHITE,BLACK,False,0,0.0018030004866886884,WHITE,True,CORRECT,1.2232628140009183,1223.2628140009183
1,20260325_120141,D,J,False,AUTOMATION2,4,35,1335,fixed_delta,0.04926863410845236,0.011780794413821632,,,,,0.4704521252423802,1694,1906,1,0.65,WHITE,BLACK,False,0,0.0018030004866886884,WHITE,True,CORRECT,2.611227276000136,2611.227276000136
1,20260325_120141,D,J,False,AUTOMATION2,4,36,1336,fixed_delta,0.04926863410845236,0.011780794413821632,,,,,0.5486019066610036,1975,1625,1,0.65,BLACK,BLACK,True,0,0.0021029991330578923,BLACK,True,CORRECT,2.424529171999893,2424.529171999893
1,20260325_120141,D,J,False,AUTOMATION2,4,37,1337,fixed_delta,0.04926863410845236,0.011780794413821632,,,,,0.5376542495629045,1936,1664,1,0.65,BLACK,BLACK,True,0,0.0018030004866886884,BLACK,True,CORRECT,2.339720510000916,2339.720510000916
1,20260325_120141,D,J,False,AUTOMATION2,4,38,1338,fixed_delta,0.04926863410845236,0.011780794413821632,,,,,0.5618143912806312,2023,1577,1,0.65,BLACK,BLACK,True,0,0.0015019977581687272,BLACK,True,CORRECT,0.7361377729976084,736.1377729976084
1,20260325_120141,D,J,False,AUTOMATION2,4,39,1339,fixed_delta,0.04926863410845236,0.011780794413821632,,,,,0.4489128551651226,1616,1984,1,0.65,WHITE,BLACK,False,0,0.0015030018403194845,WHITE,True,CORRECT,1.0890098249983566,1089.0098249983566
1,20260325_120141,D,J,False,AUTOMATION2,4,40,1340,fixed_delta,0.04926863410845236,0.011780794413821632,,,,,0.45195419869591485,1627,1973,1,0.65,WHITE,WHITE,True,0,0.0021039995772298425,WHITE,True,CORRECT,0.7187237750003987,718.7237750003987
1,20260325_120141,D,J,False,AUTOMATION2,4,41,1341,fixed_delta,0.04926863410845236,0.011780794413821632,,,,,0.432371744830181,1557,2043,1,0.65,WHITE,WHITE,True,0,0.0021030027710366994,WHITE,True,CORRECT,0.6630735540020396,663.0735540020396
1,20260325_120141,D,J,False,AUTOMATION2,4,42,1342,fixed_delta,0.04926863410845236,0.011780794413821632,,,,,0.4789597107415115,1724,1876,1,0.65,WHITE,BLACK,False,0,0.0021029991330578923,WHITE,True,CORRECT,1.9179748849965108,1917.9748849965108
1,20260325_120141,D,J,False,AUTOMATION2,4,43,1343,fixed_delta,0.04926863410845236,0.011780794413821632,,,,,0.4582426623509338,1650,1950,1,0.65,WHITE,WHITE,True,0,0.0021030027710366994,WHITE,True,CORRECT,0.5645166180001979,564.5166180001979
1,20260325_120141,D,J,False,AUTOMATION2,4,44,1344,fixed_delta,0.04926863410845236,0.011780794413821632,,,,,0.47016311346726436,1693,1907,1,0.65,WHITE,WHITE,True,0,0.0015030018403194845,WHITE,True,CORRECT,1.0559533939995163,1055.9533939995163
1,20260325_120141,D,J,False,AUTOMATION2,4,45,1345,fixed_delta,0.04926863410845236,0.011780794413821632,,,,,0.5500280313122364,1980,1620,1,0.65,BLACK,WHITE,False,0,0.0015019977581687272,BLACK,True,CORRECT,0.9871029559981253,987.1029559981253
1,20260325_120141,D,J,False,AUTOMATION2,4,46,1346,fixed_delta,0.04926863410845236,0.011780794413821632,,,,,0.4373046793990582,1574,2026,1,0.65,WHITE,WHITE,True,0,0.0015029982023406774,WHITE,True,CORRECT,0.6892858959981822,689.2858959981822
1,20260325_120141,D,J,False,AUTOMATION2,4,47,1347,fixed_delta,0.04926863410845236,0.011780794413821632,,,,,0.5367897619315759,1932,1668,1,0.65,BLACK,WHITE,False,0,0.0018030004866886884,WHITE,False,INCORRECT,3.4399327310020453,3439.9327310020453
1,20260325_120141,D,J,False,AUTOMATION2,4,48,1348,fixed_delta,0.04926863410845236,0.011780794413821632,,,,,0.4595189258490127,1654,1946,1,0.65,WHITE,WHITE,True,0,0.0021029991330578923,WHITE,True,CORRECT,0.7116783700002998,711.6783700002998
1,20260325_120141,D,J,False,AUTOMATION2,4,49,1349,fixed_delta,0.04926863410845236,0.011780794413821632,,,,,0.5486096781455828,1975,1625,1,0.65,BLACK,BLACK,True,0,0.0015020013961475343,BLACK,True,CORRECT,0.7220253310006228,722.0253310006228
1,20260325_120141,D,J,False,AUTOMATION2,4,50,1350,fixed_delta,0.04926863410845236,0.011780794413821632,,,,,0.4721809406981576,1700,1900,1,0.65,WHITE,WHITE,True,0,0.0018030004866886884,WHITE,True,CORRECT,1.9972419920013635,1997.2419920013635
1,20260325_120141,D,J,False,AUTOMATION2,4,51,1351,fixed_delta,0.04926863410845236,0.011780794413821632,,,,,0.5458563084413407,1965,1635,1,0.65,BLACK,BLACK,True,0,0.0015030018403194845,BLACK,True,CORRECT,0.9478655720013194,947.8655720013194
1,20260325_120141,D,J,False,AUTOMATION2,4,52,1352,fixed_delta,0.04926863410845236,0.011780794413821632,,,,,0.5454649867152567,1964,1636,1,0.65,BLACK,BLACK,True,0,0.0018030004866886884,BLACK,True,CORRECT,5.278590029000043,5278.590029000043
1,20260325_120141,D,J,False,AUTOMATION2,4,53,1353,fixed_delta,0.04926863410845236,0.011780794413821632,,,,,0.44398337618013695,1598,2002,1,0.65,WHITE,BLACK,False,0,0.0015020013961475343,WHITE,True,CORRECT,0.7124469709997356,712.4469709997356
1,20260325_120141,D,J,False,AUTOMATION2,4,54,1354,fixed_delta,0.04926863410845236,0.011780794413821632,,,,,0.47276556843078243,1702,1898,1,0.65,WHITE,WHITE,True,0,0.0018030004866886884,WHITE,True,CORRECT,1.2401476869999897,1240.1476869999897
1,20260325_120141,D,J,False,AUTOMATION2,4,55,1355,fixed_delta,0.04926863410845236,0.011780794413821632,,,,,0.4532206306719051,1632,1968,1,0.65,WHITE,WHITE,True,0,0.0015020013961475343,WHITE,True,CORRECT,0.6858987049999996,685.8987049999996
1,20260325_120141,D,J,False,AUTOMATION2,4,56,1356,fixed_delta,0.04926863410845236,0.011780794413821632,,,,,0.5616763212927216,2022,1578,1,0.65,BLACK,BLACK,True,0,0.0012019991117995232,BLACK,True,CORRECT,0.8237065469984373,823.7065469984373
1,20260325_120141,D,J,False,AUTOMATION2,4,57,1357,fixed_delta,0.04926863410845236,0.011780794413821632,,,,,0.45090262331193826,1623,1977,1,0.65,WHITE,WHITE,True,0,0.0015020013961475343,WHITE,True,CORRECT,0.670116555000277,670.116555000277
1,20260325_120141,D,J,False,AUTOMATION2,4,58,1358,fixed_delta,0.04926863410845236,0.011780794413821632,,,,,0.4647460005416742,1673,1927,1,0.65,WHITE,WHITE,True,0,0.0015019977581687272,WHITE,True,CORRECT,0.6734340369985148,673.4340369985148
1,20260325_120141,D,J,False,AUTOMATION2,4,59,1359,fixed_delta,0.04926863410845236,0.011780794413821632,,,,,0.455141179658487,1639,1961,1,0.65,WHITE,WHITE,True,0,0.0015029982023406774,WHITE,True,CORRECT,0.7105999859995791,710.5999859995791
1,20260325_120141,D,J,False,AUTOMATION2,4,60,1360,fixed_delta,0.04926863410845236,0.011780794413821632,,,,,0.5228868921355807,1882,1718,1,0.65,BLACK,BLACK,True,0,0.0015019977581687272,WHITE,False,INCORRECT,3.3245513170004415,3324.5513170004415
1,20260325_120141,D,J,False,AUTOMATION2,4,61,1361,fixed_delta,0.04926863410845236,0.011780794413821632,,,,,0.4318532374792104,1555,2045,1,0.65,WHITE,WHITE,True,0,0.0015020013961475343,WHITE,True,CORRECT,0.6905695000023115,690.5695000023115
1,20260325_120141,D,J,False,AUTOMATION2,4,62,1362,fixed_delta,0.04926863410845236,0.011780794413821632,,,,,0.5585866214869324,2011,1589,1,0.65,BLACK,BLACK,True,0,0.0015020013961475343,BLACK,True,CORRECT,7.938716581000335,7938.716581000335
1,20260325_120141,D,J,False,AUTOMATION2,4,63,1363,fixed_delta,0.04926863410845236,0.011780794413821632,,,,,0.567712137740183,2044,1556,1,0.65,BLACK,BLACK,True,0,0.0015030018403194845,BLACK,True,CORRECT,2.16035806400032,2160.35806400032
1,20260325_120141,D,J,False,AUTOMATION2,4,64,1364,fixed_delta,0.04926863410845236,0.011780794413821632,,,,,0.5187744169614777,1868,1732,1,0.65,BLACK,WHITE,False,0,0.0018030004866886884,WHITE,False,INCORRECT,1.3607028820006235,1360.7028820006235
1,20260325_120141,D,J,False,AUTOMATION2,4,65,1365,fixed_delta,0.04926863410845236,0.011780794413821632,,,,,0.45153428300570697,1626,1974,1,0.65,WHITE,BLACK,False,0,0.0015019977581687272,WHITE,True,CORRECT,1.9718270969970035,1971.8270969970035
1,20260325_120141,D,J,False,AUTOMATION2,4,66,1366,fixed_delta,0.04926863410845236,0.011780794413821632,,,,,0.4807242198692969,1731,1869,1,0.65,WHITE,WHITE,True,0,0.0018020000425167382,WHITE,True,CORRECT,2.7272537970020494,2727.2537970020494
1,20260325_120141,D,J,False,AUTOMATION2,4,67,1367,fixed_delta,0.04926863410845236,0.011780794413821632,,,,,0.5506116900534271,1982,1618,1,0.65,BLACK,BLACK,True,0,0.0018030004866886884,BLACK,True,CORRECT,1.4547747130018251,1454.7747130018251
1,20260325_120141,D,J,False,AUTOMATION2,4,68,1368,fixed_delta,0.04926863410845236,0.011780794413821632,,,,,0.4512971091768777,1625,1975,1,0.65,WHITE,WHITE,True,0,0.0012019991117995232,WHITE,True,CORRECT,0.7738187270006165,773.8187270006165
1,20260325_120141,D,J,False,AUTOMATION2,4,69,1369,fixed_delta,0.04926863410845236,0.011780794413821632,,,,,0.5457370243362214,1965,1635,1,0.65,BLACK,BLACK,True,0,0.0018030004866886884,WHITE,False,INCORRECT,4.536375865001901,4536.375865001901
1,20260325_120141,D,J,False,AUTOMATION2,4,70,1370,fixed_delta,0.04926863410845236,0.011780794413821632,,,,,0.5617883176257823,2022,1578,1,0.65,BLACK,BLACK,True,0,0.0018030004866886884,BLACK,True,CORRECT,0.9819276729976991,981.9276729976991
1,20260325_120141,D,J,False,AUTOMATION2,4,71,1371,fixed_delta,0.04926863410845236,0.011780794413821632,,,,,0.452666938176244,1630,1970,1,0.65,WHITE,WHITE,True,0,0.0012019991117995232,WHITE,True,CORRECT,0.7877695169991057,787.7695169991057
1,20260325_120141,D,J,False,AUTOMATION2,4,72,1372,fixed_delta,0.04926863410845236,0.011780794413821632,,,,,0.5451071541433105,1962,1638,1,0.65,BLACK,BLACK,True,0,0.0015020013961475343,BLACK,True,CORRECT,1.3637490390028688,1363.7490390028688
1,20260325_120141,D,J,False,AUTOMATION2,4,73,1373,fixed_delta,0.04926863410845236,0.011780794413821632,,,,,0.4344489393884858,1564,2036,1,0.65,WHITE,WHITE,True,0,0.0015020013961475343,WHITE,True,CORRECT,0.6841890350005997,684.1890350005997
1,20260325_120141,D,J,False,AUTOMATION2,4,74,1374,fixed_delta,0.04926863410845236,0.011780794413821632,,,,,0.4402856667323176,1585,2015,1,0.65,WHITE,WHITE,True,0,0.0015020013961475343,WHITE,True,CORRECT,0.7115059009993274,711.5059009993274
1,20260325_120141,D,J,False,AUTOMATION2,4,75,1375,fixed_delta,0.04926863410845236,0.011780794413821632,,,,,0.5422434719926468,1952,1648,1,0.65,BLACK,BLACK,True,0,0.0018020000425167382,BLACK,True,CORRECT,1.7884344550002425,1788.4344550002425
1,20260325_120141,D,J,False,AUTOMATION2,4,76,1376,fixed_delta,0.04926863410845236,0.011780794413821632,,,,,0.5387949400867424,1940,1660,1,0.65,BLACK,WHITE,False,0,0.0018030004866886884,BLACK,True,CORRECT,1.4948897680005757,1494.8897680005757
1,20260325_120141,D,J,False,AUTOMATION2,4,77,1377,fixed_delta,0.04926863410845236,0.011780794413821632,,,,,0.5333017869621597,1920,1680,1,0.65,BLACK,WHITE,False,0,0.0015030018403194845,WHITE,False,INCORRECT,1.8871584529988468,1887.1584529988468
1,20260325_120141,D,J,False,AUTOMATION2,4,78,1378,fixed_delta,0.04926863410845236,0.011780794413821632,,,,,0.45414192353310306,1635,1965,1,0.65,WHITE,WHITE,True,0,0.0015030018403194845,WHITE,True,CORRECT,0.6961020420021669,696.1020420021669
1,20260325_120141,D,J,False,AUTOMATION2,4,79,1379,fixed_delta,0.04926863410845236,0.011780794413821632,,,,,0.5591098680256902,2013,1587,1,0.65,BLACK,BLACK,True,0,0.0015020013961475343,BLACK,True,CORRECT,1.6694885739998426,1669.4885739998426
1,20260325_120141,D,J,False,AUTOMATION2,4,80,1380,fixed_delta,0.04926863410845236,0.011780794413821632,,,,,0.4634571647636211,1668,1932,1,0.65,WHITE,BLACK,False,0,0.001200998667627573,WHITE,True,CORRECT,2.2588936659994943,2258.8936659994943
1,20260325_120141,D,J,False,AUTOMATION2,4,81,1381,fixed_delta,0.04926863410845236,0.011780794413821632,,,,,0.44387629166659076,1598,2002,1,0.65,WHITE,BLACK,False,0,0.0015019977581687272,WHITE,True,CORRECT,0.7055208530000527,705.5208530000527
1,20260325_120141,D,J,False,AUTOMATION2,4,82,1382,fixed_delta,0.04926863410845236,0.011780794413821632,,,,,0.5624039840525211,2025,1575,1,0.65,BLACK,BLACK,True,0,0.0015019977581687272,BLACK,True,CORRECT,4.055067008997867,4055.0670089978667
1,20260325_120141,D,J,False,AUTOMATION2,4,83,1383,fixed_delta,0.04926863410845236,0.011780794413821632,,,,,0.5497477570248368,1979,1621,1,0.65,BLACK,BLACK,True,0,0.0012019991117995232,WHITE,False,INCORRECT,2.452551238999149,2452.551238999149
1,20260325_120141,D,J,False,AUTOMATION2,4,84,1384,fixed_delta,0.04926863410845236,0.011780794413821632,,,,,0.4457989895236113,1605,1995,1,0.65,WHITE,BLACK,False,0,0.0018020000425167382,WHITE,True,CORRECT,1.677166165998642,1677.166165998642
1,20260325_120141,D,J,False,AUTOMATION2,4,85,1385,fixed_delta,0.04926863410845236,0.011780794413821632,,,,,0.5417759574056404,1950,1650,1,0.65,BLACK,WHITE,False,0,0.0015019977581687272,BLACK,True,CORRECT,1.0734446130009019,1073.4446130009019
1,20260325_120141,D,J,False,AUTOMATION2,4,86,1386,fixed_delta,0.04926863410845236,0.011780794413821632,,,,,0.4512145962008021,1624,1976,1,0.65,WHITE,WHITE,True,0,0.0018020000425167382,WHITE,True,CORRECT,0.8547411200015631,854.7411200015631
1,20260325_120141,D,J,False,AUTOMATION2,4,87,1387,fixed_delta,0.04926863410845236,0.011780794413821632,,,,,0.46593805890428125,1677,1923,1,0.65,WHITE,WHITE,True,0,0.0015020013961475343,WHITE,True,CORRECT,1.136261026000284,1136.261026000284
1,20260325_120141,D,J,False,AUTOMATION2,4,88,1388,fixed_delta,0.04926863410845236,0.011780794413821632,,,,,0.4321042425794033,1556,2044,1,0.65,WHITE,WHITE,True,0,0.0018030004866886884,WHITE,True,CORRECT,0.7115359480012557,711.5359480012557
1,20260325_120141,D,J,False,AUTOMATION2,4,89,1389,fixed_delta,0.04926863410845236,0.011780794413821632,,,,,0.5505788652322721,1982,1618,1,0.65,BLACK,WHITE,False,0,0.0012019991117995232,BLACK,True,CORRECT,4.12502828200013,4125.02828200013
1,20260325_120141,D,J,False,AUTOMATION2,4,90,1390,fixed_delta,0.04926863410845236,0.011780794413821632,,,,,0.5582781505887398,2010,1590,1,0.65,BLACK,WHITE,False,0,0.0015029982023406774,BLACK,True,CORRECT,0.92979023999942,929.79023999942
1,20260325_120141,D,J,False,AUTOMATION2,4,91,1391,fixed_delta,0.04926863410845236,0.011780794413821632,,,,,0.5567476757097461,2004,1596,1,0.65,BLACK,BLACK,True,0,0.0015030018403194845,BLACK,True,CORRECT,0.9563526279998769,956.3526279998769
1,20260325_120141,D,J,False,AUTOMATION2,4,92,1392,fixed_delta,0.04926863410845236,0.011780794413821632,,,,,0.5621816916459187,2024,1576,1,0.65,BLACK,BLACK,True,0,0.0018030004866886884,BLACK,True,CORRECT,0.9354976539980271,935.4976539980271
1,20260325_120141,D,J,False,AUTOMATION2,4,93,1393,fixed_delta,0.04926863410845236,0.011780794413821632,,,,,0.4407914286823113,1587,2013,1,0.65,WHITE,WHITE,True,0,0.0015020013961475343,WHITE,True,CORRECT,0.7528787209994334,752.8787209994334
1,20260325_120141,D,J,False,AUTOMATION2,4,94,1394,fixed_delta,0.04926863410845236,0.011780794413821632,,,,,0.5491011051741004,1977,1623,1,0.65,BLACK,BLACK,True,0,0.0015020013961475343,BLACK,True,CORRECT,1.6005753390018072,1600.5753390018072
1,20260325_120141,D,J,False,AUTOMATION2,4,95,1395,fixed_delta,0.04926863410845236,0.011780794413821632,,,,,0.5278727629654058,1900,1700,1,0.65,BLACK,BLACK,True,0,0.00120100230560638,WHITE,False,INCORRECT,7.595216468002036,7595.216468002036
1,20260325_120141,D,J,False,AUTOMATION2,4,96,1396,fixed_delta,0.04926863410845236,0.011780794413821632,,,,,0.46231241740627377,1664,1936,1,0.65,WHITE,WHITE,True,0,0.0018030004866886884,WHITE,True,CORRECT,0.7476066870003706,747.6066870003706
1,20260325_120141,D,J,False,AUTOMATION2,4,97,1397,fixed_delta,0.04926863410845236,0.011780794413821632,,,,,0.5617100159081725,2022,1578,1,0.65,BLACK,BLACK,True,0,0.0021029991330578923,BLACK,True,CORRECT,0.937257501998829,937.257501998829
1,20260325_120141,D,J,False,AUTOMATION2,4,98,1398,fixed_delta,0.04926863410845236,0.011780794413821632,,,,,0.440171936603035,1585,2015,1,0.65,WHITE,BLACK,False,0,0.0015030018403194845,WHITE,True,CORRECT,3.5968597360006243,3596.8597360006243
1,20260325_120141,D,J,False,AUTOMATION2,4,99,1399,fixed_delta,0.04926863410845236,0.011780794413821632,,,,,0.47191704223501924,1699,1901,1,0.65,WHITE,WHITE,True,0,0.0015029982023406774,WHITE,True,CORRECT,0.7850406549987383,785.0406549987383
1,20260325_120141,D,J,False,AUTOMATION2,4,100,1400,fixed_delta,0.04926863410845236,0.011780794413821632,,,,,0.5489609772367071,1976,1624,1,0.65,BLACK,WHITE,False,0,0.0015020013961475343,BLACK,True,CORRECT,4.826446226001281,4826.446226001281
1,20260325_120141,D,J,False,AUTOMATION2,4,101,1401,fixed_delta,0.04926863410845236,0.011780794413821632,,,,,0.5548491219945404,1997,1603,1,0.65,BLACK,WHITE,False,0,0.0018030004866886884,BLACK,True,CORRECT,1.8098245649998717,1809.8245649998717
1,20260325_120141,D,J,False,AUTOMATION2,4,102,1402,fixed_delta,0.04926863410845236,0.011780794413821632,,,,,0.46218173862734674,1664,1936,1,0.65,WHITE,WHITE,True,0,0.001200998667627573,WHITE,True,CORRECT,0.7241220059986517,724.1220059986517
1,20260325_120141,D,J,False,AUTOMATION2,4,103,1403,fixed_delta,0.04926863410845236,0.011780794413821632,,,,,0.46192477995888487,1663,1937,1,0.65,WHITE,BLACK,False,0,0.0015019977581687272,WHITE,True,CORRECT,2.617614652001066,2617.614652001066
1,20260325_120141,D,J,False,AUTOMATION2,4,104,1404,fixed_delta,0.04926863410845236,0.011780794413821632,,,,,0.45150558519143585,1625,1975,1,0.65,WHITE,WHITE,True,0,0.0018020000425167382,WHITE,True,CORRECT,0.7021486859994184,702.1486859994184
1,20260325_120141,D,J,False,AUTOMATION2,4,105,1405,fixed_delta,0.04926863410845236,0.011780794413821632,,,,,0.5451723461012262,1963,1637,1,0.65,BLACK,BLACK,True,0,0.01352099934592843,WHITE,False,INCORRECT,7.569193724000797,7569.193724000797
1,20260325_120141,D,J,False,AUTOMATION2,4,106,1406,fixed_delta,0.04926863410845236,0.011780794413821632,,,,,0.5488644055048562,1976,1624,1,0.65,BLACK,BLACK,True,0,0.0015020013961475343,WHITE,False,INCORRECT,0.6958433379986673,695.8433379986673
1,20260325_120141,D,J,False,AUTOMATION2,4,107,1407,fixed_delta,0.04926863410845236,0.011780794413821632,,,,,0.44787369218814116,1612,1988,1,0.65,WHITE,WHITE,True,0,0.0018030004866886884,WHITE,True,CORRECT,0.8537051020030049,853.7051020030049
1,20260325_120141,D,J,False,AUTOMATION2,4,108,1408,fixed_delta,0.04926863410845236,0.011780794413821632,,,,,0.5751362836712858,2070,1530,1,0.65,BLACK,BLACK,True,0,0.0015020013961475343,BLACK,True,CORRECT,2.2200925620018097,2220.0925620018097
1,20260325_120141,D,J,False,AUTOMATION2,4,109,1409,fixed_delta,0.04926863410845236,0.011780794413821632,,,,,0.5507103163633168,1983,1617,1,0.65,BLACK,BLACK,True,0,0.0015030018403194845,BLACK,True,CORRECT,3.795687785001064,3795.687785001064
1,20260325_120141,D,J,False,AUTOMATION2,4,110,1410,fixed_delta,0.04926863410845236,0.011780794413821632,,,,,0.567852033069842,2044,1556,1,0.65,BLACK,BLACK,True,0,0.0018030004866886884,BLACK,True,CORRECT,1.4585552169992297,1458.5552169992297
1,20260325_120141,D,J,False,AUTOMATION2,4,111,1411,fixed_delta,0.04926863410845236,0.011780794413821632,,,,,0.5221252068343591,1880,1720,1,0.65,BLACK,WHITE,False,0,0.0018020000425167382,WHITE,False,INCORRECT,2.5512460909994843,2551.2460909994843
1,20260325_120141,D,J,False,AUTOMATION2,4,112,1412,fixed_delta,0.04926863410845236,0.011780794413821632,,,,,0.550338917571487,1981,1619,1,0.65,BLACK,BLACK,True,0,0.0015020013961475343,BLACK,True,CORRECT,0.9520688359989435,952.0688359989435
1,20260325_120141,D,J,False,AUTOMATION2,4,113,1413,fixed_delta,0.04926863410845236,0.011780794413821632,,,,,0.45537410572737913,1639,1961,1,0.65,WHITE,WHITE,True,0,0.0021029991330578923,WHITE,True,CORRECT,0.786043020998477,786.043020998477
1,20260325_120141,D,J,False,AUTOMATION2,4,114,1414,fixed_delta,0.04926863410845236,0.011780794413821632,,,,,0.44500965768509,1602,1998,1,0.65,WHITE,BLACK,False,0,0.003906003257725388,WHITE,True,CORRECT,1.9601562679999915,1960.1562679999915
1,20260325_120141,D,J,False,AUTOMATION2,4,115,1415,fixed_delta,0.04926863410845236,0.011780794413821632,,,,,0.4523490327880398,1628,1972,1,0.65,WHITE,WHITE,True,0,0.0018030004866886884,WHITE,True,CORRECT,0.7339671830013685,733.9671830013685
1,20260325_120141,D,J,False,AUTOMATION2,4,116,1416,fixed_delta,0.04926863410845236,0.011780794413821632,,,,,0.4422050711488735,1592,2008,1,0.65,WHITE,WHITE,True,0,0.0015019977581687272,WHITE,True,CORRECT,1.5506433499976993,1550.6433499976993
1,20260325_120141,D,J,False,AUTOMATION2,4,117,1417,fixed_delta,0.04926863410845236,0.011780794413821632,,,,,0.5477178120152475,1972,1628,1,0.65,BLACK,WHITE,False,0,0.0024039982235990465,WHITE,False,INCORRECT,7.901105637000001,7901.105637000001
1,20260325_120141,D,J,False,AUTOMATION2,4,118,1418,fixed_delta,0.04926863410845236,0.011780794413821632,,,,,0.5344101971413797,1924,1676,1,0.65,BLACK,WHITE,False,0,0.0015029982023406774,WHITE,False,INCORRECT,2.1611936689987488,2161.1936689987488
1,20260325_120141,D,J,False,AUTOMATION2,4,119,1419,fixed_delta,0.04926863410845236,0.011780794413821632,,,,,0.45415122671960656,1635,1965,1,0.65,WHITE,WHITE,True,0,0.0015030018403194845,WHITE,True,CORRECT,1.5718850279990875,1571.8850279990875
1,20260325_120141,D,J,False,AUTOMATION2,4,120,1420,fixed_delta,0.04926863410845236,0.011780794413821632,,,,,0.4565788960444039,1644,1956,1,0.65,WHITE,WHITE,True,0,0.0015019977581687272,WHITE,True,CORRECT,0.7103148409987625,710.3148409987625
1,20260325_120141,D,J,False,AUTOMATION2,4,121,1421,fixed_delta,0.04926863410845236,0.011780794413821632,,,,,0.4384258397404886,1578,2022,1,0.65,WHITE,BLACK,False,0,0.0018030004866886884,WHITE,True,CORRECT,1.7585894410003675,1758.5894410003675
1,20260325_120141,D,J,False,AUTOMATION2,4,122,1422,fixed_delta,0.04926863410845236,0.011780794413821632,,,,,0.5236531125173925,1885,1715,1,0.65,BLACK,BLACK,True,0,0.0015019977581687272,WHITE,False,INCORRECT,1.3472244299991871,1347.2244299991871
1,20260325_120141,D,J,False,AUTOMATION2,4,123,1423,fixed_delta,0.04926863410845236,0.011780794413821632,,,,,0.5309855432859347,1912,1688,1,0.65,BLACK,BLACK,True,0,0.0018030004866886884,BLACK,True,CORRECT,5.656728543999634,5656.728543999634
1,20260325_120141,D,J,False,AUTOMATION2,4,124,1424,fixed_delta,0.04926863410845236,0.011780794413821632,,,,,0.5388783228807988,1940,1660,1,0.65,BLACK,WHITE,False,0,0.0018030004866886884,WHITE,False,INCORRECT,5.312244394001027,5312.244394001027
1,20260325_120141,D,J,False,AUTOMATION2,4,125,1425,fixed_delta,0.04926863410845236,0.011780794413821632,,,,,0.5516542276545787,1986,1614,1,0.65,BLACK,BLACK,True,0,0.0018030004866886884,BLACK,True,CORRECT,0.988094504999026,988.094504999026
1,20260325_120141,D,J,False,AUTOMATION2,4,126,1426,fixed_delta,0.04926863410845236,0.011780794413821632,,,,,0.4518367953419201,1627,1973,1,0.65,WHITE,BLACK,False,0,0.0015020013961475343,WHITE,True,CORRECT,3.328536441000324,3328.536441000324
1,20260325_120141,D,J,False,AUTOMATION2,4,127,1427,fixed_delta,0.04926863410845236,0.011780794413821632,,,,,0.5423334559523617,1952,1648,1,0.65,BLACK,WHITE,False,0,0.0015030018403194845,BLACK,True,CORRECT,4.198226510001405,4198.226510001405
1,20260325_120141,D,J,False,AUTOMATION2,4,128,1428,fixed_delta,0.04926863410845236,0.011780794413821632,,,,,0.43773442991259154,1576,2024,1,0.65,WHITE,BLACK,False,0,0.0015019977581687272,WHITE,True,CORRECT,2.062626515999,2062.626515999
1,20260325_120141,D,J,False,AUTOMATION2,4,129,1429,fixed_delta,0.04926863410845236,0.011780794413821632,,,,,0.4502069296735132,1621,1979,1,0.65,WHITE,WHITE,True,0,0.0015020013961475343,WHITE,True,CORRECT,0.7038760840005125,703.8760840005125
1,20260325_120141,D,J,False,AUTOMATION2,4,130,1430,fixed_delta,0.04926863410845236,0.011780794413821632,,,,,0.5281098521965031,1901,1699,1,0.65,BLACK,BLACK,True,0,0.0021030027710366994,BLACK,True,CORRECT,7.002040487001068,7002.040487001068
1,20260325_120141,D,J,False,AUTOMATION2,4,131,1431,fixed_delta,0.04926863410845236,0.011780794413821632,,,,,0.5553205412454617,1999,1601,1,0.65,BLACK,BLACK,True,0,0.0015019977581687272,WHITE,False,INCORRECT,3.370207626998308,3370.207626998308
1,20260325_120141,D,J,False,AUTOMATION2,4,132,1432,fixed_delta,0.04926863410845236,0.011780794413821632,,,,,0.559669406535877,2015,1585,1,0.65,BLACK,BLACK,True,0,0.0015020013961475343,WHITE,False,INCORRECT,4.633935244000895,4633.935244000895
1,20260325_120141,D,J,False,AUTOMATION2,4,133,1433,fixed_delta,0.04926863410845236,0.011780794413821632,,,,,0.45667307832565107,1644,1956,1,0.65,WHITE,BLACK,False,0,0.0018020000425167382,WHITE,True,CORRECT,0.8676414689980447,867.6414689980447
1,20260325_120141,D,J,False,AUTOMATION2,4,134,1434,fixed_delta,0.04926863410845236,0.011780794413821632,,,,,0.5453974126512658,1963,1637,1,0.65,BLACK,WHITE,False,0,0.0015019977581687272,BLACK,True,CORRECT,5.285163396998541,5285.163396998541
1,20260325_120141,D,J,False,AUTOMATION2,4,135,1435,fixed_delta,0.04926863410845236,0.011780794413821632,,,,,0.5631138745390349,2027,1573,1,0.65,BLACK,BLACK,True,0,0.0015019977581687272,BLACK,True,CORRECT,1.5255788009999378,1525.5788009999378
1,20260325_120141,D,J,False,AUTOMATION2,4,136,1436,fixed_delta,0.04926863410845236,0.011780794413821632,,,,,0.45249022443982423,1629,1971,1,0.65,WHITE,WHITE,True,0,0.0015020013961475343,WHITE,True,CORRECT,0.7693801950008492,769.3801950008492
1,20260325_120141,D,J,False,AUTOMATION2,4,137,1437,fixed_delta,0.04926863410845236,0.011780794413821632,,,,,0.5476718583742146,1972,1628,1,0.65,BLACK,BLACK,True,0,0.0021029991330578923,BLACK,True,CORRECT,1.243265656998119,1243.265656998119
1,20260325_120141,D,J,False,AUTOMATION2,4,138,1438,fixed_delta,0.04926863410845236,0.011780794413821632,,,,,0.45072994681615514,1623,1977,1,0.65,WHITE,WHITE,True,0,0.0015020013961475343,WHITE,True,CORRECT,0.7532236600018223,753.2236600018223
1,20260325_120141,D,J,False,AUTOMATION2,4,139,1439,fixed_delta,0.04926863410845236,0.011780794413821632,,,,,0.5475212343313728,1971,1629,1,0.65,BLACK,BLACK,True,0,0.0015019977581687272,BLACK,True,CORRECT,1.0231730939995032,1023.1730939995032
1,20260325_120141,D,J,False,AUTOMATION2,4,140,1440,fixed_delta,0.04926863410845236,0.011780794413821632,,,,,0.5601732518959952,2017,1583,1,0.65,BLACK,WHITE,False,0,0.0015019977581687272,WHITE,False,INCORRECT,0.9938959659993998,993.8959659993998
1,20260325_120141,D,J,False,AUTOMATION2,4,141,1441,fixed_delta,0.04926863410845236,0.011780794413821632,,,,,0.5258256747182125,1893,1707,1,0.65,BLACK,BLACK,True,0,0.0012019991117995232,BLACK,True,CORRECT,1.5023236799970618,1502.3236799970618
1,20260325_120141,D,J,False,AUTOMATION2,4,142,1442,fixed_delta,0.04926863410845236,0.011780794413821632,,,,,0.4660612492294883,1678,1922,1,0.65,WHITE,BLACK,False,0,0.0012019991117995232,WHITE,True,CORRECT,3.1445449650018418,3144.544965001842
1,20260325_120141,D,J,False,AUTOMATION2,4,143,1443,fixed_delta,0.04926863410845236,0.011780794413821632,,,,,0.44234288259578836,1592,2008,1,0.65,WHITE,WHITE,True,0,0.0012019991117995232,WHITE,True,CORRECT,0.7336637099979271,733.6637099979271
1,20260325_120141,D,J,False,AUTOMATION2,4,144,1444,fixed_delta,0.04926863410845236,0.011780794413821632,,,,,0.4418829463749455,1591,2009,1,0.65,WHITE,WHITE,True,0,0.0015019977581687272,WHITE,True,CORRECT,1.868269449998479,1868.269449998479
1,20260325_120141,D,J,False,AUTOMATION2,4,145,1445,fixed_delta,0.04926863410845236,0.011780794413821632,,,,,0.44164272909969304,1590,2010,1,0.65,WHITE,WHITE,True,0,0.0015030018403194845,WHITE,True,CORRECT,2.8876740580017213,2887.6740580017213
1,20260325_120141,D,J,False,AUTOMATION2,4,146,1446,fixed_delta,0.04926863410845236,0.011780794413821632,,,,,0.5661908762865071,2038,1562,1,0.65,BLACK,WHITE,False,0,0.0018030004866886884,BLACK,True,CORRECT,0.8670387279998977,867.0387279998977
1,20260325_120141,D,J,False,AUTOMATION2,4,147,1447,fixed_delta,0.04926863410845236,0.011780794413821632,,,,,0.45419382365160893,1635,1965,1,0.65,WHITE,WHITE,True,0,0.0015019977581687272,WHITE,True,CORRECT,0.7254672069975641,725.4672069975641
1,20260325_120141,D,J,False,AUTOMATION2,4,148,1448,fixed_delta,0.04926863410845236,0.011780794413821632,,,,,0.4575425175129012,1647,1953,1,0.65,WHITE,WHITE,True,0,0.0015019977581687272,WHITE,True,CORRECT,0.650615796999773,650.615796999773
1,20260325_120141,D,J,False,AUTOMATION2,4,149,1449,fixed_delta,0.04926863410845236,0.011780794413821632,,,,,0.44930148470994025,1617,1983,1,0.65,WHITE,WHITE,True,0,0.0021029991330578923,WHITE,True,CORRECT,0.6207293170009507,620.7293170009507
1,20260325_120141,D,J,False,AUTOMATION2,4,150,1450,fixed_delta,0.04926863410845236,0.011780794413821632,,,,,0.47315256160493135,1703,1897,1,0.65,WHITE,BLACK,False,0,0.0015020013961475343,WHITE,True,CORRECT,0.6025434130024223,602.5434130024223
1,20260325_120141,D,J,False,AUTOMATION2,4,151,1451,fixed_delta,0.04926863410845236,0.011780794413821632,,,,,0.5525043769552168,1989,1611,1,0.65,BLACK,BLACK,True,0,0.0015020013961475343,WHITE,False,INCORRECT,0.7062116320012137,706.2116320012137
1,20260325_120141,D,J,False,AUTOMATION2,4,152,1452,fixed_delta,0.04926863410845236,0.011780794413821632,,,,,0.4528250634590758,1630,1970,1,0.65,WHITE,WHITE,True,0,0.0015019977581687272,WHITE,True,CORRECT,1.058925935998559,1058.925935998559
1,20260325_120141,D,J,False,AUTOMATION2,4,153,1453,fixed_delta,0.04926863410845236,0.011780794413821632,,,,,0.4803645811552839,1729,1871,1,0.65,WHITE,WHITE,True,0,0.0015030018403194845,WHITE,True,CORRECT,0.8153327690015431,815.332769001543
1,20260325_120141,D,J,False,AUTOMATION2,4,154,1454,fixed_delta,0.04926863410845236,0.011780794413821632,,,,,0.4302391549872883,1549,2051,1,0.65,WHITE,BLACK,False,0,0.0015019977581687272,WHITE,True,CORRECT,1.5868922669978929,1586.8922669978929
1,20260325_120141,D,J,False,AUTOMATION2,4,155,1455,fixed_delta,0.04926863410845236,0.011780794413821632,,,,,0.5390259497196358,1940,1660,1,0.65,BLACK,BLACK,True,0,0.0015020013961475343,WHITE,False,INCORRECT,2.7332700950028084,2733.2700950028084
1,20260325_120141,D,J,False,AUTOMATION2,4,156,1456,fixed_delta,0.04926863410845236,0.011780794413821632,,,,,0.4306235845208175,1550,2050,1,0.65,WHITE,BLACK,False,0,0.0018030004866886884,WHITE,True,CORRECT,0.8062477780003974,806.2477780003974
1,20260325_120141,D,J,False,AUTOMATION2,4,157,1457,fixed_delta,0.04926863410845236,0.011780794413821632,,,,,0.5461242673734051,1966,1634,1,0.65,BLACK,BLACK,True,0,0.0021029991330578923,BLACK,True,CORRECT,0.9950945380005578,995.0945380005578
1,20260325_120141,D,J,False,AUTOMATION2,4,158,1458,fixed_delta,0.04926863410845236,0.011780794413821632,,,,,0.4481129186107413,1613,1987,1,0.65,WHITE,WHITE,True,0,0.0018030004866886884,WHITE,True,CORRECT,0.7646141510012967,764.6141510012967
1,20260325_120141,D,J,False,AUTOMATION2,4,159,1459,fixed_delta,0.04926863410845236,0.011780794413821632,,,,,0.4398979697318234,1584,2016,1,0.65,WHITE,WHITE,True,0,0.0015019977581687272,WHITE,True,CORRECT,0.6248733899992658,624.8733899992658
1,20260325_120141,D,J,False,AUTOMATION2,4,160,1460,fixed_delta,0.04926863410845236,0.011780794413821632,,,,,0.4394191311595521,1582,2018,1,0.65,WHITE,WHITE,True,0,0.0018030004866886884,WHITE,True,CORRECT,0.660380448000069,660.380448000069
1,20260325_120141,D,J,False,AUTOMATION2,4,161,1461,fixed_delta,0.04926863410845236,0.011780794413821632,,,,,0.44571337173785075,1605,1995,1,0.65,WHITE,BLACK,False,0,0.0021029991330578923,WHITE,True,CORRECT,1.8432463659992209,1843.2463659992209
1,20260325_120141,D,J,False,AUTOMATION2,4,162,1462,fixed_delta,0.04926863410845236,0.011780794413821632,,,,,0.5646361349660598,2033,1567,1,0.65,BLACK,WHITE,False,0,0.0018030004866886884,BLACK,True,CORRECT,0.5764641800014942,576.4641800014942
1,20260325_120141,D,J,False,AUTOMATION2,4,163,1463,fixed_delta,0.04926863410845236,0.011780794413821632,,,,,0.5513229522760894,1985,1615,1,0.65,BLACK,WHITE,False,0,0.0021039995772298425,BLACK,True,CORRECT,0.6653096480004024,665.3096480004024
1,20260325_120141,D,J,False,AUTOMATION2,4,164,1464,fixed_delta,0.04926863410845236,0.011780794413821632,,,,,0.44372626416807354,1597,2003,1,0.65,WHITE,WHITE,True,0,0.0015030018403194845,WHITE,True,CORRECT,1.8633480640019116,1863.3480640019116
1,20260325_120141,D,J,False,AUTOMATION2,4,165,1465,fixed_delta,0.04926863410845236,0.011780794413821632,,,,,0.4451866558444805,1603,1997,1,0.65,WHITE,WHITE,True,0,0.0018020000425167382,WHITE,True,CORRECT,0.8768057829984173,876.8057829984173
1,20260325_120141,D,J,False,AUTOMATION2,4,166,1466,fixed_delta,0.04926863410845236,0.011780794413821632,,,,,0.455582256712359,1640,1960,1,0.65,WHITE,WHITE,True,0,0.0018030004866886884,WHITE,True,CORRECT,0.6944191139991744,694.4191139991744
1,20260325_120141,D,J,False,AUTOMATION2,4,167,1467,fixed_delta,0.04926863410845236,0.011780794413821632,,,,,0.4554782696947908,1640,1960,1,0.65,WHITE,WHITE,True,0,0.0018020000425167382,WHITE,True,CORRECT,0.8218992239999352,821.8992239999352
1,20260325_120141,D,J,False,AUTOMATION2,4,168,1468,fixed_delta,0.04926863410845236,0.011780794413821632,,,,,0.4477116943015071,1612,1988,1,0.65,WHITE,BLACK,False,0,0.0018030004866886884,WHITE,True,CORRECT,0.6743657920014812,674.3657920014812
1,20260325_120141,D,J,False,AUTOMATION2,4,169,1469,fixed_delta,0.04926863410845236,0.011780794413821632,,,,,0.5669670242379188,2041,1559,1,0.65,BLACK,BLACK,True,0,0.0018020000425167382,BLACK,True,CORRECT,2.339890274000936,2339.890274000936
1,20260325_120141,D,J,False,AUTOMATION2,4,170,1470,fixed_delta,0.04926863410845236,0.011780794413821632,,,,,0.5354376160033378,1928,1672,1,0.65,BLACK,WHITE,False,0,0.0015020013961475343,WHITE,False,INCORRECT,2.002340055001696,2002.3400550016959
1,20260325_120141,D,J,False,AUTOMATION2,4,171,1471,fixed_delta,0.04926863410845236,0.011780794413821632,,,,,0.4448461862943181,1601,1999,1,0.65,WHITE,WHITE,True,0,0.0018030004866886884,WHITE,True,CORRECT,2.3785089930024697,2378.5089930024697
1,20260325_120141,D,J,False,AUTOMATION2,4,172,1472,fixed_delta,0.04926863410845236,0.011780794413821632,,,,,0.5330607878124041,1919,1681,1,0.65,BLACK,BLACK,True,0,0.0021030027710366994,WHITE,False,INCORRECT,2.4979864050001197,2497.9864050001197
1,20260325_120141,D,J,False,AUTOMATION2,4,173,1473,fixed_delta,0.04926863410845236,0.011780794413821632,,,,,0.547386776084613,1971,1629,1,0.65,BLACK,BLACK,True,0,0.0015020013961475343,BLACK,True,CORRECT,0.825367240999185,825.367240999185
1,20260325_120141,D,J,False,AUTOMATION2,4,174,1474,fixed_delta,0.04926863410845236,0.011780794413821632,,,,,0.5693021935115488,2049,1551,1,0.65,BLACK,BLACK,True,0,0.0015030018403194845,BLACK,True,CORRECT,1.1808515720003925,1180.8515720003925
1,20260325_120141,D,J,False,AUTOMATION2,4,175,1475,fixed_delta,0.04926863410845236,0.011780794413821632,,,,,0.5603612315440678,2017,1583,1,0.65,BLACK,BLACK,True,0,0.0018020000425167382,BLACK,True,CORRECT,1.0514108980023593,1051.4108980023593
1,20260325_120141,D,J,False,AUTOMATION2,4,176,1476,fixed_delta,0.04926863410845236,0.011780794413821632,,,,,0.5419500394178463,1951,1649,1,0.65,BLACK,BLACK,True,0,0.0018030004866886884,BLACK,True,CORRECT,0.8647326259997499,864.7326259997499
1,20260325_120141,D,J,False,AUTOMATION2,4,177,1477,fixed_delta,0.04926863410845236,0.011780794413821632,,,,,0.5334886188920472,1921,1679,1,0.65,BLACK,BLACK,True,0,0.0018020000425167382,BLACK,True,CORRECT,5.527964526998403,5527.964526998403
1,20260325_120141,D,J,False,AUTOMATION2,4,178,1478,fixed_delta,0.04926863410845236,0.011780794413821632,,,,,0.559015089809547,2012,1588,1,0.65,BLACK,BLACK,True,0,0.0018030004866886884,WHITE,False,INCORRECT,1.1849358519975794,1184.9358519975794
1,20260325_120141,D,J,False,AUTOMATION2,4,179,1479,fixed_delta,0.04926863410845236,0.011780794413821632,,,,,0.4404057564547803,1585,2015,1,0.65,WHITE,WHITE,True,0,0.0018030004866886884,WHITE,True,CORRECT,1.167466565999348,1167.466565999348
1,20260325_120141,D,J,False,AUTOMATION2,4,180,1480,fixed_delta,0.04926863410845236,0.011780794413821632,,,,,0.5518729387645821,1987,1613,1,0.65,BLACK,WHITE,False,0,0.0015030018403194845,BLACK,True,CORRECT,1.3303086090018041,1330.3086090018041
1,20260325_120141,D,J,False,AUTOMATION2,4,181,1481,fixed_delta,0.04926863410845236,0.011780794413821632,,,,,0.42710786332253237,1538,2062,1,0.65,WHITE,WHITE,True,0,0.0012019991117995232,WHITE,True,CORRECT,0.7670013790011581,767.001379001158
1,20260325_120141,D,J,False,AUTOMATION2,4,182,1482,fixed_delta,0.04926863410845236,0.011780794413821632,,,,,0.5320614695199042,1915,1685,1,0.65,BLACK,BLACK,True,0,0.0018030004866886884,BLACK,True,CORRECT,4.745833617002063,4745.833617002063
1,20260325_120141,D,J,False,AUTOMATION2,4,183,1483,fixed_delta,0.04926863410845236,0.011780794413821632,,,,,0.5547393857336207,1997,1603,1,0.65,BLACK,BLACK,True,0,0.0018029968487098813,BLACK,True,CORRECT,1.045012404996669,1045.012404996669
1,20260325_120141,D,J,False,AUTOMATION2,4,184,1484,fixed_delta,0.04926863410845236,0.011780794413821632,,,,,0.5464700646449656,1967,1633,1,0.65,BLACK,WHITE,False,0,0.0018020000425167382,WHITE,False,INCORRECT,3.7474303109993343,3747.4303109993343
1,20260325_120141,D,J,False,AUTOMATION2,4,185,1485,fixed_delta,0.04926863410845236,0.011780794413821632,,,,,0.454160708317666,1635,1965,1,0.65,WHITE,WHITE,True,0,0.0018030004866886884,WHITE,True,CORRECT,0.9427410680000321,942.7410680000321
1,20260325_120141,D,J,False,AUTOMATION2,4,186,1486,fixed_delta,0.04926863410845236,0.011780794413821632,,,,,0.44958997023674674,1619,1981,1,0.65,WHITE,WHITE,True,0,0.0021029991330578923,WHITE,True,CORRECT,2.7595019659966056,2759.5019659966056
1,20260325_120141,D,J,False,AUTOMATION2,4,187,1487,fixed_delta,0.04926863410845236,0.011780794413821632,,,,,0.467513368269085,1683,1917,1,0.65,WHITE,BLACK,False,0,0.0015019977581687272,WHITE,True,CORRECT,0.8130470979995152,813.0470979995152
1,20260325_120141,D,J,False,AUTOMATION2,4,188,1488,fixed_delta,0.04926863410845236,0.011780794413821632,,,,,0.4619052020655886,1663,1937,1,0.65,WHITE,WHITE,True,0,0.0015020013961475343,WHITE,True,CORRECT,0.6364745099999709,636.4745099999709
1,20260325_120141,D,J,False,AUTOMATION2,4,189,1489,fixed_delta,0.04926863410845236,0.011780794413821632,,,,,0.4433445836195334,1596,2004,1,0.65,WHITE,WHITE,True,0,0.0018030004866886884,WHITE,True,CORRECT,0.5720049139999901,572.0049139999901
1,20260325_120141,D,J,False,AUTOMATION2,4,190,1490,fixed_delta,0.04926863410845236,0.011780794413821632,,,,,0.5633151056322955,2028,1572,1,0.65,BLACK,BLACK,True,0,0.0018030004866886884,BLACK,True,CORRECT,0.7339698880023207,733.9698880023207
1,20260325_120141,D,J,False,AUTOMATION2,4,191,1491,fixed_delta,0.04926863410845236,0.011780794413821632,,,,,0.45851373503533144,1651,1949,1,0.65,WHITE,WHITE,True,0,0.0012020027497783303,WHITE,True,CORRECT,1.6165720240023802,1616.5720240023802
1,20260325_120141,D,J,False,AUTOMATION2,4,192,1492,fixed_delta,0.04926863410845236,0.011780794413821632,,,,,0.556120520117712,2002,1598,1,0.65,BLACK,WHITE,False,0,0.0018030004866886884,BLACK,True,CORRECT,0.7719170580021455,771.9170580021455
1,20260325_120141,D,J,False,AUTOMATION2,4,193,1493,fixed_delta,0.04926863410845236,0.011780794413821632,,,,,0.4475948095264862,1611,1989,1,0.65,WHITE,WHITE,True,0,0.0015020013961475343,WHITE,True,CORRECT,1.1951935729994148,1195.1935729994148
1,20260325_120141,D,J,False,AUTOMATION2,4,194,1494,fixed_delta,0.04926863410845236,0.011780794413821632,,,,,0.5457410953060603,1965,1635,1,0.65,BLACK,WHITE,False,0,0.0018030004866886884,BLACK,True,CORRECT,6.4842504510015715,6484.2504510015715
1,20260325_120141,D,J,False,AUTOMATION2,4,195,1495,fixed_delta,0.04926863410845236,0.011780794413821632,,,,,0.45950224532657824,1654,1946,1,0.65,WHITE,BLACK,False,0,0.0015019977581687272,WHITE,True,CORRECT,1.1066377569986798,1106.6377569986798
1,20260325_120141,D,J,False,AUTOMATION2,4,196,1496,fixed_delta,0.04926863410845236,0.011780794413821632,,,,,0.5643016999361556,2031,1569,1,0.65,BLACK,WHITE,False,0,0.0021029991330578923,BLACK,True,CORRECT,0.8689013369985332,868.9013369985332
1,20260325_120141,D,J,False,AUTOMATION2,4,197,1497,fixed_delta,0.04926863410845236,0.011780794413821632,,,,,0.4549195933642817,1638,1962,1,0.65,WHITE,WHITE,True,0,0.0015030018403194845,WHITE,True,CORRECT,1.8477702330019383,1847.7702330019383
1,20260325_120141,D,J,False,AUTOMATION2,4,198,1498,fixed_delta,0.04926863410845236,0.011780794413821632,,,,,0.4757256384372377,1713,1887,1,0.65,WHITE,WHITE,True,0,0.0015020013961475343,WHITE,True,CORRECT,0.8355143900007533,835.5143900007533
1,20260325_120141,D,J,False,AUTOMATION2,4,199,1499,fixed_delta,0.04926863410845236,0.011780794413821632,,,,,0.46666575722871695,1680,1920,1,0.65,WHITE,WHITE,True,0,0.0015029982023406774,WHITE,True,CORRECT,0.8202292159985518,820.2292159985518
1,20260325_120141,D,J,False,AUTOMATION2,4,200,1500,fixed_delta,0.04926863410845236,0.011780794413821632,,,,,0.43974804741542656,1583,2017,1,0.65,WHITE,BLACK,False,0,0.0015020013961475343,WHITE,True,CORRECT,0.7722169250009756,772.2169250009756
1,20260325_120141,D,J,False,AUTOMATION2,4,201,1501,fixed_delta,0.04926863410845236,0.011780794413821632,,,,,0.5516797636398845,1986,1614,1,0.65,BLACK,BLACK,True,0,0.0015020013961475343,WHITE,False,INCORRECT,4.230157082001824,4230.157082001824
1,20260325_120141,D,J,False,AUTOMATION2,4,202,1502,fixed_delta,0.04926863410845236,0.011780794413821632,,,,,0.545477690241431,1964,1636,1,0.65,BLACK,WHITE,False,0,0.0018030004866886884,BLACK,True,CORRECT,1.0057807289995253,1005.7807289995253
1,20260325_120141,D,J,False,AUTOMATION2,4,203,1503,fixed_delta,0.04926863410845236,0.011780794413821632,,,,,0.458348859176379,1650,1950,1,0.65,WHITE,BLACK,False,0,0.0018030004866886884,WHITE,True,CORRECT,1.3729788559976441,1372.9788559976441
1,20260325_120141,D,J,False,AUTOMATION2,4,204,1504,fixed_delta,0.04926863410845236,0.011780794413821632,,,,,0.4479850345275759,1613,1987,1,0.65,WHITE,WHITE,True,0,0.0015020013961475343,WHITE,True,CORRECT,0.73377698600234,733.77698600234
1,20260325_120141,D,J,False,AUTOMATION2,4,205,1505,fixed_delta,0.04926863410845236,0.011780794413821632,,,,,0.45379000930906016,1634,1966,1,0.65,WHITE,BLACK,False,0,0.0018020000425167382,WHITE,True,CORRECT,0.6669075420031731,666.9075420031731
1,20260325_120141,D,J,False,AUTOMATION2,4,206,1506,fixed_delta,0.04926863410845236,0.011780794413821632,,,,,0.5631602615840369,2027,1573,1,0.65,BLACK,WHITE,False,0,0.0015029982023406774,BLACK,True,CORRECT,0.6525688479996461,652.5688479996461
1,20260325_120141,D,J,False,AUTOMATION2,4,207,1507,fixed_delta,0.04926863410845236,0.011780794413821632,,,,,0.5460794988745818,1966,1634,1,0.65,BLACK,BLACK,True,0,0.0018020000425167382,BLACK,True,CORRECT,2.986770035997324,2986.770035997324
1,20260325_120141,D,J,False,AUTOMATION2,4,208,1508,fixed_delta,0.04926863410845236,0.011780794413821632,,,,,0.5385822388418802,1939,1661,1,0.65,BLACK,BLACK,True,0,0.0018030004866886884,WHITE,False,INCORRECT,1.3819289349994506,1381.9289349994506
1,20260325_120141,D,J,False,AUTOMATION2,4,209,1509,fixed_delta,0.04926863410845236,0.011780794413821632,,,,,0.5433939756790265,1956,1644,1,0.65,BLACK,BLACK,True,0,0.0015020013961475343,BLACK,True,CORRECT,1.1713997090009798,1171.3997090009798
1,20260325_120141,D,J,False,AUTOMATION2,4,210,1510,fixed_delta,0.04926863410845236,0.011780794413821632,,,,,0.44732807952217907,1610,1990,1,0.65,WHITE,WHITE,True,0,0.0015019977581687272,WHITE,True,CORRECT,0.7298672799988708,729.8672799988708
1,20260325_120141,D,J,False,AUTOMATION2,4,211,1511,fixed_delta,0.04926863410845236,0.011780794413821632,,,,,0.4584185416291904,1650,1950,1,0.65,WHITE,WHITE,True,0,0.0015029982023406774,WHITE,True,CORRECT,0.7656895309992251,765.6895309992251
1,20260325_120141,D,J,False,AUTOMATION2,4,212,1512,fixed_delta,0.04926863410845236,0.011780794413821632,,,,,0.5382588287265523,1938,1662,1,0.65,BLACK,BLACK,True,0,0.0015030018403194845,WHITE,False,INCORRECT,1.0432180019997759,1043.2180019997759
1,20260325_120141,D,J,False,AUTOMATION2,4,213,1513,fixed_delta,0.04926863410845236,0.011780794413821632,,,,,0.5514158383477462,1985,1615,1,0.65,BLACK,BLACK,True,0,0.0018030004866886884,BLACK,True,CORRECT,0.5129164239988313,512.9164239988313
1,20260325_120141,D,J,False,AUTOMATION2,4,214,1514,fixed_delta,0.04926863410845236,0.011780794413821632,,,,,0.4362759147693999,1571,2029,1,0.65,WHITE,WHITE,True,0,0.0015030018403194845,WHITE,True,CORRECT,0.8061080600018613,806.1080600018613
1,20260325_120141,D,J,False,AUTOMATION2,4,215,1515,fixed_delta,0.04926863410845236,0.011780794413821632,,,,,0.5744201758417966,2068,1532,1,0.65,BLACK,BLACK,True,0,0.0021029991330578923,BLACK,True,CORRECT,0.7353403279994382,735.3403279994382
1,20260325_120141,D,J,False,AUTOMATION2,4,216,1516,fixed_delta,0.04926863410845236,0.011780794413821632,,,,,0.4649944231643305,1674,1926,1,0.65,WHITE,WHITE,True,0,0.0018029968487098813,WHITE,True,CORRECT,2.49546877299872,2495.46877299872
1,20260325_120141,D,J,False,AUTOMATION2,4,217,1517,fixed_delta,0.04926863410845236,0.011780794413821632,,,,,0.4473366630719431,1610,1990,1,0.65,WHITE,WHITE,True,0,0.0015020013961475343,WHITE,True,CORRECT,0.7753207740024664,775.3207740024664
1,20260325_120141,D,J,False,AUTOMATION2,4,218,1518,fixed_delta,0.04926863410845236,0.011780794413821632,,,,,0.5460284945189854,1966,1634,1,0.65,BLACK,WHITE,False,0,0.0021029991330578923,WHITE,False,INCORRECT,2.5956118859976414,2595.6118859976414
1,20260325_120141,D,J,False,AUTOMATION2,4,219,1519,fixed_delta,0.04926863410845236,0.011780794413821632,,,,,0.5443618519253217,1960,1640,1,0.65,BLACK,WHITE,False,0,0.0018030004866886884,BLACK,True,CORRECT,0.7178992869994545,717.8992869994545
1,20260325_120141,D,J,False,AUTOMATION2,4,220,1520,fixed_delta,0.04926863410845236,0.011780794413821632,,,,,0.5418023818340636,1950,1650,1,0.65,BLACK,WHITE,False,0,0.0018030004866886884,BLACK,True,CORRECT,4.950358264999522,4950.358264999522
1,20260325_120141,D,J,False,AUTOMATION2,4,221,1521,fixed_delta,0.04926863410845236,0.011780794413821632,,,,,0.45442598633986026,1636,1964,1,0.65,WHITE,BLACK,False,0,0.0015019977581687272,WHITE,True,CORRECT,0.9108504569994693,910.8504569994693
1,20260325_120141,D,J,False,AUTOMATION2,4,222,1522,fixed_delta,0.04926863410845236,0.011780794413821632,,,,,0.5606540397730175,2018,1582,1,0.65,BLACK,WHITE,False,0,0.0015019977581687272,BLACK,True,CORRECT,0.9353582359981374,935.3582359981374
1,20260325_120141,D,J,False,AUTOMATION2,4,223,1523,fixed_delta,0.04926863410845236,0.011780794413821632,,,,,0.4488660958524664,1616,1984,1,0.65,WHITE,WHITE,True,0,0.0015029982023406774,WHITE,True,CORRECT,0.8268614749977132,826.8614749977132
1,20260325_120141,D,J,False,AUTOMATION2,4,224,1524,fixed_delta,0.04926863410845236,0.011780794413821632,,,,,0.44909829448170235,1617,1983,1,0.65,WHITE,WHITE,True,0,0.0021029991330578923,WHITE,True,CORRECT,1.4551674260001164,1455.1674260001164
1,20260325_120141,D,J,False,AUTOMATION2,4,225,1525,fixed_delta,0.04926863410845236,0.011780794413821632,,,,,0.5316613698941018,1914,1686,1,0.65,BLACK,BLACK,True,0,0.0018030004866886884,WHITE,False,INCORRECT,1.2534560729982331,1253.4560729982331
1,20260325_120141,D,J,False,AUTOMATION2,4,226,1526,fixed_delta,0.04926863410845236,0.011780794413821632,,,,,0.4483571177648238,1614,1986,1,0.65,WHITE,BLACK,False,0,0.0021039995772298425,WHITE,True,CORRECT,0.70419698600017,704.19698600017
1,20260325_120141,D,J,False,AUTOMATION2,4,227,1527,fixed_delta,0.04926863410845236,0.011780794413821632,,,,,0.4574222043615853,1647,1953,1,0.65,WHITE,BLACK,False,0,0.0012019991117995232,WHITE,True,CORRECT,0.619772924001154,619.772924001154
1,20260325_120141,D,J,False,AUTOMATION2,4,228,1528,fixed_delta,0.04926863410845236,0.011780794413821632,,,,,0.5463564191957264,1967,1633,1,0.65,BLACK,BLACK,True,0,0.0018020000425167382,BLACK,True,CORRECT,5.353141872001288,5353.141872001288
1,20260325_120141,D,J,False,AUTOMATION2,4,229,1529,fixed_delta,0.04926863410845236,0.011780794413821632,,,,,0.4406773147982758,1586,2014,1,0.65,WHITE,WHITE,True,0,0.0015020013961475343,WHITE,True,CORRECT,0.6714305070017872,671.4305070017872
1,20260325_120141,D,J,False,AUTOMATION2,4,230,1530,fixed_delta,0.04926863410845236,0.011780794413821632,,,,,0.5469573553650404,1969,1631,1,0.65,BLACK,BLACK,True,0,0.0018020000425167382,BLACK,True,CORRECT,0.7038625630011666,703.8625630011666
1,20260325_120141,D,J,False,AUTOMATION2,4,231,1531,fixed_delta,0.04926863410845236,0.011780794413821632,,,,,0.4518466271491745,1627,1973,1,0.65,WHITE,BLACK,False,0,0.0015020013961475343,WHITE,True,CORRECT,0.8657542210021347,865.7542210021347
1,20260325_120141,D,J,False,AUTOMATION2,4,232,1532,fixed_delta,0.04926863410845236,0.011780794413821632,,,,,0.5452203011568377,1963,1637,1,0.65,BLACK,WHITE,False,0,0.0015020013961475343,BLACK,True,CORRECT,2.1488164360016526,2148.8164360016526
1,20260325_120141,D,J,False,AUTOMATION2,4,233,1533,fixed_delta,0.04926863410845236,0.011780794413821632,,,,,0.5646828216367001,2033,1567,1,0.65,BLACK,WHITE,False,0,0.0015020013961475343,BLACK,True,CORRECT,0.7310120680012915,731.0120680012915
1,20260325_120141,D,J,False,AUTOMATION2,4,234,1534,fixed_delta,0.04926863410845236,0.011780794413821632,,,,,0.5546015736352891,1997,1603,1,0.65,BLACK,BLACK,True,0,0.0018030004866886884,BLACK,True,CORRECT,1.2314722369992523,1231.4722369992523
1,20260325_120141,D,J,False,AUTOMATION2,4,235,1535,fixed_delta,0.04926863410845236,0.011780794413821632,,,,,0.4608845638311652,1659,1941,1,0.65,WHITE,BLACK,False,0,0.0015020013961475343,WHITE,True,CORRECT,0.9856994639994809,985.6994639994809
1,20260325_120141,D,J,False,AUTOMATION2,4,236,1536,fixed_delta,0.04926863410845236,0.011780794413821632,,,,,0.5515219489654319,1985,1615,1,0.65,BLACK,BLACK,True,0,0.0015020013961475343,BLACK,True,CORRECT,0.9452037139999447,945.2037139999447
1,20260325_120141,D,J,False,AUTOMATION2,4,237,1537,fixed_delta,0.04926863410845236,0.011780794413821632,,,,,0.5357938919944294,1929,1671,1,0.65,BLACK,BLACK,True,0,0.0018030004866886884,BLACK,True,CORRECT,1.4804275800015603,1480.4275800015603
1,20260325_120141,D,J,False,AUTOMATION2,4,238,1538,fixed_delta,0.04926863410845236,0.011780794413821632,,,,,0.5576410720009106,2008,1592,1,0.65,BLACK,BLACK,True,0,0.0015020013961475343,BLACK,True,CORRECT,0.8139250700005505,813.9250700005505
1,20260325_120141,D,J,False,AUTOMATION2,4,239,1539,fixed_delta,0.04926863410845236,0.011780794413821632,,,,,0.5511469057429025,1984,1616,1,0.65,BLACK,BLACK,True,0,0.013521002983907238,BLACK,True,CORRECT,0.6354919750010595,635.4919750010595
1,20260325_120141,D,J,False,AUTOMATION2,4,240,1540,fixed_delta,0.04926863410845236,0.011780794413821632,,,,,0.5380451162854399,1937,1663,1,0.65,BLACK,BLACK,True,0,0.0021030027710366994,BLACK,True,CORRECT,1.2791413910017582,1279.1413910017582
1,20260325_120141,D,J,False,AUTOMATION2,4,241,1541,fixed_delta,0.04926863410845236,0.011780794413821632,,,,,0.4454256556931672,1604,1996,1,0.65,WHITE,BLACK,False,0,0.0018020000425167382,WHITE,True,CORRECT,1.1027617029976682,1102.7617029976682
1,20260325_120141,D,J,False,AUTOMATION2,4,242,1542,fixed_delta,0.04926863410845236,0.011780794413821632,,,,,0.557094262720403,2006,1594,1,0.65,BLACK,BLACK,True,0,0.0015019977581687272,BLACK,True,CORRECT,1.3421873619990947,1342.1873619990947
1,20260325_120141,D,J,False,AUTOMATION2,4,243,1543,fixed_delta,0.04926863410845236,0.011780794413821632,,,,,0.5314576162666587,1913,1687,1,0.65,BLACK,WHITE,False,0,0.0018030004866886884,BLACK,True,CORRECT,3.07930586799921,3079.30586799921
1,20260325_120141,D,J,False,AUTOMATION2,4,244,1544,fixed_delta,0.04926863410845236,0.011780794413821632,,,,,0.43605592747714117,1570,2030,1,0.65,WHITE,BLACK,False,0,0.0018020000425167382,WHITE,True,CORRECT,0.6864897279992874,686.4897279992874
1,20260325_120141,D,J,False,AUTOMATION2,4,245,1545,fixed_delta,0.04926863410845236,0.011780794413821632,,,,,0.5706432767420293,2054,1546,1,0.65,BLACK,BLACK,True,0,0.0018020000425167382,BLACK,True,CORRECT,2.5867185950010025,2586.7185950010025
1,20260325_120141,D,J,False,AUTOMATION2,4,246,1546,fixed_delta,0.04926863410845236,0.011780794413821632,,,,,0.4573397154479919,1646,1954,1,0.65,WHITE,WHITE,True,0,0.0015020013961475343,WHITE,True,CORRECT,0.882867451000493,882.867451000493
1,20260325_120141,D,J,False,AUTOMATION2,4,247,1547,fixed_delta,0.04926863410845236,0.011780794413821632,,,,,0.4607486276401657,1659,1941,1,0.65,WHITE,WHITE,True,0,0.0015020013961475343,WHITE,True,CORRECT,0.6817011489983997,681.7011489983997
1,20260325_120141,D,J,False,AUTOMATION2,4,248,1548,fixed_delta,0.04926863410845236,0.011780794413821632,,,,,0.4666449890161894,1680,1920,1,0.65,WHITE,WHITE,True,0,0.0015030018403194845,WHITE,True,CORRECT,0.6288642230028927,628.8642230028927
1,20260325_120141,D,J,False,AUTOMATION2,4,249,1549,fixed_delta,0.04926863410845236,0.011780794413821632,,,,,0.5650465771511044,2034,1566,1,0.65,BLACK,BLACK,True,0,0.0012019991117995232,BLACK,True,CORRECT,0.7121152529980463,712.1152529980463
1,20260325_120141,D,J,False,AUTOMATION2,4,250,1550,fixed_delta,0.04926863410845236,0.011780794413821632,,,,,0.5391908213247925,1941,1659,1,0.65,BLACK,BLACK,True,0,0.0012019991117995232,WHITE,False,INCORRECT,1.1453886829986004,1145.3886829986004
1,20260325_120141,D,J,False,AUTOMATION2,4,251,1551,fixed_delta,0.04926863410845236,0.011780794413821632,,,,,0.4553448399416984,1639,1961,1,0.65,WHITE,WHITE,True,0,0.0018030004866886884,WHITE,True,CORRECT,0.6816377499999362,681.6377499999362
1,20260325_120141,D,J,False,AUTOMATION2,4,252,1552,fixed_delta,0.04926863410845236,0.011780794413821632,,,,,0.4551353803491754,1638,1962,1,0.65,WHITE,BLACK,False,0,0.0012019991117995232,WHITE,True,CORRECT,2.0864107649977086,2086.4107649977086
1,20260325_120141,D,J,False,AUTOMATION2,4,253,1553,fixed_delta,0.04926863410845236,0.011780794413821632,,,,,0.45001348835780275,1620,1980,1,0.65,WHITE,BLACK,False,0,0.0018030004866886884,WHITE,True,CORRECT,0.572130210002797,572.130210002797
1,20260325_120141,D,J,False,AUTOMATION2,4,254,1554,fixed_delta,0.04926863410845236,0.011780794413821632,,,,,0.5381258806413011,1937,1663,1,0.65,BLACK,BLACK,True,0,0.0015019977581687272,BLACK,True,CORRECT,0.8327221289982845,832.7221289982845
1,20260325_120141,D,J,False,AUTOMATION2,4,255,1555,fixed_delta,0.04926863410845236,0.011780794413821632,,,,,0.44621070487353487,1606,1994,1,0.65,WHITE,BLACK,False,0,0.0018020000425167382,WHITE,True,CORRECT,0.7887748870016367,788.7748870016367
1,20260325_120141,D,J,False,AUTOMATION2,4,256,1556,fixed_delta,0.04926863410845236,0.011780794413821632,,,,,0.4554765367890132,1640,1960,1,0.65,WHITE,WHITE,True,0,0.0018030004866886884,WHITE,True,CORRECT,0.6616998089994013,661.6998089994013
1,20260325_120141,D,J,False,AUTOMATION2,4,257,1557,fixed_delta,0.04926863410845236,0.011780794413821632,,,,,0.4768279229052989,1717,1883,1,0.65,WHITE,WHITE,True,0,0.0015029982023406774,WHITE,True,CORRECT,3.520447086997592,3520.447086997592
1,20260325_120141,D,J,False,AUTOMATION2,4,258,1558,fixed_delta,0.04926863410845236,0.011780794413821632,,,,,0.5501588668611537,1981,1619,1,0.65,BLACK,BLACK,True,0,0.0015029982023406774,BLACK,True,CORRECT,1.083744100000331,1083.744100000331
1,20260325_120141,D,J,False,AUTOMATION2,4,259,1559,fixed_delta,0.04926863410845236,0.011780794413821632,,,,,0.534239335078595,1923,1677,1,0.65,BLACK,BLACK,True,0,0.0015019977581687272,BLACK,True,CORRECT,6.190967472000921,6190.967472000921
1,20260325_120141,D,J,False,AUTOMATION2,4,260,1560,fixed_delta,0.04926863410845236,0.011780794413821632,,,,,0.5343720996309697,1924,1676,1,0.65,BLACK,BLACK,True,0,0.0015019977581687272,WHITE,False,INCORRECT,0.9714914729993325,971.4914729993325
1,20260325_120141,D,J,False,AUTOMATION2,4,261,1561,fixed_delta,0.04926863410845236,0.011780794413821632,,,,,0.5414789276148851,1949,1651,1,0.65,BLACK,BLACK,True,0,0.0018030004866886884,BLACK,True,CORRECT,1.2784223680027935,1278.4223680027935
1,20260325_120141,D,J,False,AUTOMATION2,4,262,1562,fixed_delta,0.04926863410845236,0.011780794413821632,,,,,0.46899777818313265,1688,1912,1,0.65,WHITE,WHITE,True,0,0.0018030004866886884,WHITE,True,CORRECT,1.012918978001835,1012.9189780018351
1,20260325_120141,D,J,False,AUTOMATION2,4,263,1563,fixed_delta,0.04926863410845236,0.011780794413821632,,,,,0.4363826195686894,1571,2029,1,0.65,WHITE,BLACK,False,0,0.0012019991117995232,WHITE,True,CORRECT,0.7527813689994218,752.7813689994218
1,20260325_120141,D,J,False,AUTOMATION2,4,264,1564,fixed_delta,0.04926863410845236,0.011780794413821632,,,,,0.46865871842906737,1687,1913,1,0.65,WHITE,WHITE,True,0,0.0015019977581687272,WHITE,True,CORRECT,1.9403892939990328,1940.3892939990328
1,20260325_120141,D,J,False,AUTOMATION2,4,265,1565,fixed_delta,0.04926863410845236,0.011780794413821632,,,,,0.537075574758374,1933,1667,1,0.65,BLACK,WHITE,False,0,0.0015020013961475343,WHITE,False,INCORRECT,0.8447550230011984,844.7550230011984
1,20260325_120141,D,J,False,AUTOMATION2,4,266,1566,fixed_delta,0.04926863410845236,0.011780794413821632,,,,,0.44802873186243897,1613,1987,1,0.65,WHITE,WHITE,True,0,0.0018030004866886884,WHITE,True,CORRECT,1.423918317999778,1423.918317999778
1,20260325_120141,D,J,False,AUTOMATION2,4,267,1567,fixed_delta,0.04926863410845236,0.011780794413821632,,,,,0.43430669517630965,1564,2036,1,0.65,WHITE,BLACK,False,0,0.0018029968487098813,WHITE,True,CORRECT,0.6597882229980314,659.7882229980314
1,20260325_120141,D,J,False,AUTOMATION2,4,268,1568,fixed_delta,0.04926863410845236,0.011780794413821632,,,,,0.45229312875175753,1628,1972,1,0.65,WHITE,WHITE,True,0,0.0018030004866886884,WHITE,True,CORRECT,1.8246142649986723,1824.6142649986723
1,20260325_120141,D,J,False,AUTOMATION2,4,269,1569,fixed_delta,0.04926863410845236,0.011780794413821632,,,,,0.543802847540913,1958,1642,1,0.65,BLACK,WHITE,False,0,0.0015030018403194845,BLACK,True,CORRECT,0.635907824998867,635.907824998867
1,20260325_120141,D,J,False,AUTOMATION2,4,270,1570,fixed_delta,0.04926863410845236,0.011780794413821632,,,,,0.5600317736553128,2016,1584,1,0.65,BLACK,WHITE,False,0,0.0018020000425167382,BLACK,True,CORRECT,0.8003180159976182,800.3180159976182
1,20260325_120141,D,J,False,AUTOMATION2,4,271,1571,fixed_delta,0.04926863410845236,0.011780794413821632,,,,,0.5731369635056728,2063,1537,1,0.65,BLACK,WHITE,False,0,0.0015020013961475343,BLACK,True,CORRECT,2.272588756000914,2272.588756000914
1,20260325_120141,D,J,False,AUTOMATION2,4,272,1572,fixed_delta,0.04926863410845236,0.011780794413821632,,,,,0.5666863132554875,2040,1560,1,0.65,BLACK,WHITE,False,0,0.0015030018403194845,BLACK,True,CORRECT,0.6445198760011408,644.5198760011408
1,20260325_120141,D,J,False,AUTOMATION2,4,273,1573,fixed_delta,0.04926863410845236,0.011780794413821632,,,,,0.44342204321475603,1596,2004,1,0.65,WHITE,WHITE,True,0,0.0015019977581687272,WHITE,True,CORRECT,1.001873727000202,1001.873727000202
1,20260325_120141,D,J,False,AUTOMATION2,4,274,1574,fixed_delta,0.04926863410845236,0.011780794413821632,,,,,0.5480420078274824,1973,1627,1,0.65,BLACK,WHITE,False,0,0.0015020013961475343,BLACK,True,CORRECT,1.0568043230014155,1056.8043230014155
1,20260325_120141,D,J,False,AUTOMATION2,4,275,1575,fixed_delta,0.04926863410845236,0.011780794413821632,,,,,0.4713233667890465,1697,1903,1,0.65,WHITE,WHITE,True,0,0.0018020000425167382,WHITE,True,CORRECT,0.8676498819986591,867.6498819986591
1,20260325_120141,D,J,False,AUTOMATION2,4,276,1576,fixed_delta,0.04926863410845236,0.011780794413821632,,,,,0.5547286948563048,1997,1603,1,0.65,BLACK,BLACK,True,0,0.0015019977581687272,BLACK,True,CORRECT,1.0220616580008937,1022.0616580008937
1,20260325_120141,D,J,False,AUTOMATION2,4,277,1577,fixed_delta,0.04926863410845236,0.011780794413821632,,,,,0.47796588129595896,1721,1879,1,0.65,WHITE,WHITE,True,0,0.0018020000425167382,WHITE,True,CORRECT,3.230997495000338,3230.997495000338
1,20260325_120141,D,J,False,AUTOMATION2,4,278,1578,fixed_delta,0.04926863410845236,0.011780794413821632,,,,,0.4568292659441994,1645,1955,1,0.65,WHITE,BLACK,False,0,0.0015019977581687272,WHITE,True,CORRECT,1.4985143289995904,1498.5143289995904
1,20260325_120141,D,J,False,AUTOMATION2,4,279,1579,fixed_delta,0.04926863410845236,0.011780794413821632,,,,,0.44407179328085183,1599,2001,1,0.65,WHITE,WHITE,True,0,0.0015029982023406774,WHITE,True,CORRECT,0.7324861710003461,732.4861710003461
1,20260325_120141,D,J,False,AUTOMATION2,4,280,1580,fixed_delta,0.04926863410845236,0.011780794413821632,,,,,0.5655962257347912,2036,1564,1,0.65,BLACK,WHITE,False,0,0.0012019991117995232,BLACK,True,CORRECT,0.6325134219987376,632.5134219987376
1,20260325_120141,D,J,False,AUTOMATION2,4,281,1581,fixed_delta,0.04926863410845236,0.011780794413821632,,,,,0.459894789428927,1656,1944,1,0.65,WHITE,WHITE,True,0,0.0018030004866886884,WHITE,True,CORRECT,1.2335818319988903,1233.5818319988903
1,20260325_120141,D,J,False,AUTOMATION2,4,282,1582,fixed_delta,0.04926863410845236,0.011780794413821632,,,,,0.44764631013450784,1612,1988,1,0.65,WHITE,WHITE,True,0,0.0018030004866886884,WHITE,True,CORRECT,1.9840396709987544,1984.0396709987544
1,20260325_120141,D,J,False,AUTOMATION2,4,283,1583,fixed_delta,0.04926863410845236,0.011780794413821632,,,,,0.4572036596325736,1646,1954,1,0.65,WHITE,BLACK,False,0,0.0018030004866886884,WHITE,True,CORRECT,0.7674010039991117,767.4010039991117
1,20260325_120141,D,J,False,AUTOMATION2,4,284,1584,fixed_delta,0.04926863410845236,0.011780794413821632,,,,,0.4692848632481224,1689,1911,1,0.65,WHITE,WHITE,True,0,0.0015020013961475343,WHITE,True,CORRECT,0.7500110420005512,750.0110420005512
1,20260325_120141,D,J,False,AUTOMATION2,4,285,1585,fixed_delta,0.04926863410845236,0.011780794413821632,,,,,0.4315989649742224,1554,2046,1,0.65,WHITE,WHITE,True,0,0.0015030018403194845,WHITE,True,CORRECT,1.3855853460008802,1385.5853460008802
1,20260325_120141,D,J,False,AUTOMATION2,4,286,1586,fixed_delta,0.04926863410845236,0.011780794413821632,,,,,0.4443820875753437,1600,2000,1,0.65,WHITE,WHITE,True,0,0.0018030004866886884,WHITE,True,CORRECT,0.6588441489984689,658.8441489984689
1,20260325_120141,D,J,False,AUTOMATION2,4,287,1587,fixed_delta,0.04926863410845236,0.011780794413821632,,,,,0.5457050460970768,1965,1635,1,0.65,BLACK,BLACK,True,0,0.0024030014174059033,BLACK,True,CORRECT,0.6234206199987966,623.4206199987966
1,20260325_120141,D,J,False,AUTOMATION2,4,288,1588,fixed_delta,0.04926863410845236,0.011780794413821632,,,,,0.4511182195986223,1624,1976,1,0.65,WHITE,WHITE,True,0,0.0015030018403194845,WHITE,True,CORRECT,2.121526012000686,2121.526012000686
1,20260325_120141,D,J,False,AUTOMATION2,4,289,1589,fixed_delta,0.04926863410845236,0.011780794413821632,,,,,0.5416159388721248,1950,1650,1,0.65,BLACK,BLACK,True,0,0.0018030004866886884,BLACK,True,CORRECT,0.7844069649981975,784.4069649981975
1,20260325_120141,D,J,False,AUTOMATION2,4,290,1590,fixed_delta,0.04926863410845236,0.011780794413821632,,,,,0.534863349458749,1926,1674,1,0.65,BLACK,BLACK,True,0,0.0015030018403194845,BLACK,True,CORRECT,0.6729800280008931,672.9800280008931
1,20260325_120141,D,J,False,AUTOMATION2,4,291,1591,fixed_delta,0.04926863410845236,0.011780794413821632,,,,,0.5471471776393065,1970,1630,1,0.65,BLACK,BLACK,True,0,0.0018030004866886884,BLACK,True,CORRECT,1.791845984000247,1791.845984000247
1,20260325_120141,D,J,False,AUTOMATION2,4,292,1592,fixed_delta,0.04926863410845236,0.011780794413821632,,,,,0.4544565316676636,1636,1964,1,0.65,WHITE,BLACK,False,0,0.0021029991330578923,WHITE,True,CORRECT,0.7534901760009234,753.4901760009234
1,20260325_120141,D,J,False,AUTOMATION2,4,293,1593,fixed_delta,0.04926863410845236,0.011780794413821632,,,,,0.4428858023585224,1594,2006,1,0.65,WHITE,WHITE,True,0,0.0012019991117995232,BLACK,False,INCORRECT,1.7815801510005258,1781.5801510005258
1,20260325_120141,D,J,False,AUTOMATION2,4,294,1594,fixed_delta,0.04926863410845236,0.011780794413821632,,,,,0.43029636825046935,1549,2051,1,0.65,WHITE,WHITE,True,0,0.0021039995772298425,WHITE,True,CORRECT,0.5873582949971023,587.3582949971023
1,20260325_120141,D,J,False,AUTOMATION2,4,295,1595,fixed_delta,0.04926863410845236,0.011780794413821632,,,,,0.43792424799400664,1577,2023,1,0.65,WHITE,WHITE,True,0,0.0015029982023406774,WHITE,True,CORRECT,2.058643194999604,2058.643194999604
1,20260325_120141,D,J,False,AUTOMATION2,4,296,1596,fixed_delta,0.04926863410845236,0.011780794413821632,,,,,0.5446372736610648,1961,1639,1,0.65,BLACK,BLACK,True,0,0.0018030004866886884,BLACK,True,CORRECT,1.624504112998693,1624.504112998693
1,20260325_120141,D,J,False,AUTOMATION2,4,297,1597,fixed_delta,0.04926863410845236,0.011780794413821632,,,,,0.5502041775756075,1981,1619,1,0.65,BLACK,WHITE,False,0,0.0015020013961475343,BLACK,True,CORRECT,0.6721873890019197,672.1873890019197
1,20260325_120141,D,J,False,AUTOMATION2,4,298,1598,fixed_delta,0.04926863410845236,0.011780794413821632,,,,,0.45541510650161926,1639,1961,1,0.65,WHITE,WHITE,True,0,0.0015020013961475343,WHITE,True,CORRECT,0.7788777290006692,778.8777290006692
1,20260325_120141,D,J,False,AUTOMATION2,4,299,1599,fixed_delta,0.04926863410845236,0.011780794413821632,,,,,0.5654498107242685,2036,1564,1,0.65,BLACK,BLACK,True,0,0.0018030004866886884,BLACK,True,CORRECT,0.7942927059993963,794.2927059993963
1,20260325_120141,D,J,False,AUTOMATION2,4,300,1600,fixed_delta,0.04926863410845236,0.011780794413821632,,,,,0.5478016328270956,1972,1628,1,0.65,BLACK,WHITE,False,0,0.0015020013961475343,BLACK,True,CORRECT,0.8096671189996414,809.6671189996414
1,20260325_120141,D,J,False,AUTOMATION2,4,301,1601,fixed_delta,0.04926863410845236,0.011780794413821632,,,,,0.5476735787818168,1972,1628,1,0.65,BLACK,BLACK,True,0,0.0015029982023406774,BLACK,True,CORRECT,1.0007866289997764,1000.7866289997764
1,20260325_120141,D,J,False,AUTOMATION2,4,302,1602,fixed_delta,0.04926863410845236,0.011780794413821632,,,,,0.43893178442795555,1580,2020,1,0.65,WHITE,WHITE,True,0,0.0015020013961475343,WHITE,True,CORRECT,0.6752900350002164,675.2900350002164
1,20260325_120141,D,J,False,AUTOMATION2,4,303,1603,fixed_delta,0.04926863410845236,0.011780794413821632,,,,,0.5461806126949731,1966,1634,1,0.65,BLACK,BLACK,True,0,0.0015029982023406774,WHITE,False,INCORRECT,2.746548734998214,2746.548734998214
1,20260325_120141,D,J,False,AUTOMATION2,4,304,1604,fixed_delta,0.04926863410845236,0.011780794413821632,,,,,0.4510998562718789,1624,1976,1,0.65,WHITE,BLACK,False,0,0.0018030004866886884,WHITE,True,CORRECT,0.6913636409990431,691.3636409990431
1,20260325_120141,D,J,False,AUTOMATION2,4,305,1605,fixed_delta,0.04926863410845236,0.011780794413821632,,,,,0.5458021126504662,1965,1635,1,0.65,BLACK,BLACK,True,0,0.0012019991117995232,BLACK,True,CORRECT,1.193059640001593,1193.059640001593
1,20260325_120141,D,J,False,AUTOMATION2,4,306,1606,fixed_delta,0.04926863410845236,0.011780794413821632,,,,,0.46331877172338154,1668,1932,1,0.65,WHITE,WHITE,True,0,0.0018030004866886884,WHITE,True,CORRECT,0.7329678230016725,732.9678230016725
1,20260325_120141,D,J,False,AUTOMATION2,4,307,1607,fixed_delta,0.04926863410845236,0.011780794413821632,,,,,0.5621807224317517,2024,1576,1,0.65,BLACK,BLACK,True,0,0.0015020013961475343,BLACK,True,CORRECT,2.7173659540021617,2717.3659540021617
1,20260325_120141,D,J,False,AUTOMATION2,4,308,1608,fixed_delta,0.04926863410845236,0.011780794413821632,,,,,0.5406412666533322,1946,1654,1,0.65,BLACK,BLACK,True,0,0.0015019977581687272,WHITE,False,INCORRECT,2.8661246999981813,2866.1246999981813
1,20260325_120141,D,J,False,AUTOMATION2,4,309,1609,fixed_delta,0.04926863410845236,0.011780794413821632,,,,,0.45686589851688547,1645,1955,1,0.65,WHITE,BLACK,False,0,0.0021029991330578923,WHITE,True,CORRECT,0.7053823360001843,705.3823360001843
1,20260325_120141,D,J,False,AUTOMATION2,4,310,1610,fixed_delta,0.04926863410845236,0.011780794413821632,,,,,0.55256012060436,1989,1611,1,0.65,BLACK,BLACK,True,0,0.0015030018403194845,BLACK,True,CORRECT,1.4645120210007008,1464.5120210007008
1,20260325_120141,D,J,False,AUTOMATION2,4,311,1611,fixed_delta,0.04926863410845236,0.011780794413821632,,,,,0.5549161433996476,1998,1602,1,0.65,BLACK,BLACK,True,0,0.0015029982023406774,BLACK,True,CORRECT,0.5767027519978001,576.7027519978001
1,20260325_120141,D,J,False,AUTOMATION2,4,312,1612,fixed_delta,0.04926863410845236,0.011780794413821632,,,,,0.5697194656829208,2051,1549,1,0.65,BLACK,BLACK,True,0,0.0015029982023406774,BLACK,True,CORRECT,0.5691907190011989,569.1907190011989
1,20260325_120141,D,J,False,AUTOMATION2,4,313,1613,fixed_delta,0.04926863410845236,0.011780794413821632,,,,,0.5551250176232024,1998,1602,1,0.65,BLACK,BLACK,True,0,0.0018029968487098813,BLACK,True,CORRECT,1.13220318799722,1132.20318799722
1,20260325_120141,D,J,False,AUTOMATION2,4,314,1614,fixed_delta,0.04926863410845236,0.011780794413821632,,,,,0.45838983094288716,1650,1950,1,0.65,WHITE,BLACK,False,0,0.0012020027497783303,WHITE,True,CORRECT,0.6796291130012833,679.6291130012833
1,20260325_120141,D,J,False,AUTOMATION2,4,315,1615,fixed_delta,0.04926863410845236,0.011780794413821632,,,,,0.45724968530644405,1646,1954,1,0.65,WHITE,WHITE,True,0,0.0015030018403194845,WHITE,True,CORRECT,1.3941802699991968,1394.1802699991968
1,20260325_120141,D,J,False,AUTOMATION2,4,316,1616,fixed_delta,0.04926863410845236,0.011780794413821632,,,,,0.5591517694730583,2013,1587,1,0.65,BLACK,WHITE,False,0,0.001200998667627573,BLACK,True,CORRECT,0.9628541819984093,962.8541819984093
1,20260325_120141,D,J,False,AUTOMATION2,4,317,1617,fixed_delta,0.04926863410845236,0.011780794413821632,,,,,0.4527510587930894,1630,1970,1,0.65,WHITE,BLACK,False,0,0.0015019977581687272,WHITE,True,CORRECT,0.8277767039980972,827.7767039980972
1,20260325_120141,D,J,False,AUTOMATION2,4,318,1618,fixed_delta,0.04926863410845236,0.011780794413821632,,,,,0.4661460759752447,1678,1922,1,0.65,WHITE,WHITE,True,0,0.0015029982023406774,WHITE,True,CORRECT,0.5121048569999402,512.1048569999402
1,20260325_120141,D,J,False,AUTOMATION2,4,319,1619,fixed_delta,0.04926863410845236,0.011780794413821632,,,,,0.5461343779833743,1966,1634,1,0.65,BLACK,BLACK,True,0,0.0015030018403194845,BLACK,True,CORRECT,0.9257453220016032,925.7453220016032
1,20260325_120141,D,J,False,AUTOMATION2,4,320,1620,fixed_delta,0.04926863410845236,0.011780794413821632,,,,,0.44327340298372836,1596,2004,1,0.65,WHITE,WHITE,True,0,0.0015030018403194845,WHITE,True,CORRECT,0.7759800040003029,775.9800040003029
1,20260325_120141,D,J,False,AUTOMATION2,4,321,1621,fixed_delta,0.04926863410845236,0.011780794413821632,,,,,0.5620176142468868,2023,1577,1,0.65,BLACK,WHITE,False,0,0.0018030004866886884,BLACK,True,CORRECT,0.7377855470003851,737.7855470003851
1,20260325_120141,D,J,False,AUTOMATION2,4,322,1622,fixed_delta,0.04926863410845236,0.011780794413821632,,,,,0.5586883851051665,2011,1589,1,0.65,BLACK,BLACK,True,0,0.0015029982023406774,BLACK,True,CORRECT,0.6893544029990153,689.3544029990153
1,20260325_120141,D,J,False,AUTOMATION2,4,323,1623,fixed_delta,0.04926863410845236,0.011780794413821632,,,,,0.4536314203703036,1633,1967,1,0.65,WHITE,BLACK,False,0,0.0015019977581687272,WHITE,True,CORRECT,0.5873333559975435,587.3333559975435
1,20260325_120141,D,J,False,AUTOMATION2,4,324,1624,fixed_delta,0.04926863410845236,0.011780794413821632,,,,,0.5499234864170988,1980,1620,1,0.65,BLACK,BLACK,True,0,0.0018030004866886884,BLACK,True,CORRECT,0.6788136390023283,678.8136390023283
1,20260325_120141,D,J,False,AUTOMATION2,4,325,1625,fixed_delta,0.04926863410845236,0.011780794413821632,,,,,0.4562164485927913,1642,1958,1,0.65,WHITE,WHITE,True,0,0.0012020027497783303,WHITE,True,CORRECT,0.6252432670007693,625.2432670007693
1,20260325_120141,D,J,False,AUTOMATION2,4,326,1626,fixed_delta,0.04926863410845236,0.011780794413821632,,,,,0.5455308235752467,1964,1636,1,0.65,BLACK,BLACK,True,0,0.0012020027497783303,BLACK,True,CORRECT,0.6325293480003893,632.5293480003893
1,20260325_120141,D,J,False,AUTOMATION2,4,327,1627,fixed_delta,0.04926863410845236,0.011780794413821632,,,,,0.5499183132569453,1980,1620,1,0.65,BLACK,BLACK,True,0,0.0015020013961475343,BLACK,True,CORRECT,0.6614849729994603,661.4849729994603
1,20260325_120141,D,J,False,AUTOMATION2,4,328,1628,fixed_delta,0.04926863410845236,0.011780794413821632,,,,,0.4404363866996817,1586,2014,1,0.65,WHITE,WHITE,True,0,0.0015020013961475343,WHITE,True,CORRECT,0.6000795639993157,600.0795639993157
1,20260325_120141,D,J,False,AUTOMATION2,4,329,1629,fixed_delta,0.04926863410845236,0.011780794413821632,,,,,0.5686465761398183,2047,1553,1,0.65,BLACK,WHITE,False,0,0.0021039995772298425,BLACK,True,CORRECT,0.6150573580016498,615.0573580016498
1,20260325_120141,D,J,False,AUTOMATION2,4,330,1630,fixed_delta,0.04926863410845236,0.011780794413821632,,,,,0.5464557005699062,1967,1633,1,0.65,BLACK,BLACK,True,0,0.0018030004866886884,BLACK,True,CORRECT,0.6585064210012206,658.5064210012206
1,20260325_120141,D,J,False,AUTOMATION2,4,331,1631,fixed_delta,0.04926863410845236,0.011780794413821632,,,,,0.4424224621993126,1593,2007,1,0.65,WHITE,WHITE,True,0,0.0015020013961475343,WHITE,True,CORRECT,0.5868153470000834,586.8153470000834
1,20260325_120141,D,J,False,AUTOMATION2,4,332,1632,fixed_delta,0.04926863410845236,0.011780794413821632,,,,,0.46109142370614714,1660,1940,1,0.65,WHITE,BLACK,False,0,0.0015030018403194845,WHITE,True,CORRECT,0.6775871240024571,677.5871240024571
1,20260325_120141,D,J,False,AUTOMATION2,4,333,1633,fixed_delta,0.04926863410845236,0.011780794413821632,,,,,0.5589179331012243,2012,1588,1,0.65,BLACK,BLACK,True,0,0.0021029991330578923,BLACK,True,CORRECT,1.6222752319990832,1622.2752319990832
1,20260325_120141,D,J,False,AUTOMATION2,4,334,1634,fixed_delta,0.04926863410845236,0.011780794413821632,,,,,0.44365865849953734,1597,2003,1,0.65,WHITE,BLACK,False,0,0.0018020000425167382,WHITE,True,CORRECT,0.8103098220017273,810.3098220017273
1,20260325_120141,D,J,False,AUTOMATION2,4,335,1635,fixed_delta,0.04926863410845236,0.011780794413821632,,,,,0.5392186733173274,1941,1659,1,0.65,BLACK,BLACK,True,0,0.0018020000425167382,WHITE,False,INCORRECT,2.4003876650021994,2400.3876650021994
1,20260325_120141,D,J,False,AUTOMATION2,4,336,1636,fixed_delta,0.04926863410845236,0.011780794413821632,,,,,0.5379297094711482,1937,1663,1,0.65,BLACK,WHITE,False,0,0.0018020000425167382,BLACK,True,CORRECT,0.6619428880003397,661.9428880003397
1,20260325_120141,D,J,False,AUTOMATION2,4,337,1637,fixed_delta,0.04926863410845236,0.011780794413821632,,,,,0.5567809301578005,2004,1596,1,0.65,BLACK,WHITE,False,0,0.0015019977581687272,BLACK,True,CORRECT,0.4695590039991657,469.5590039991657
1,20260325_120141,D,J,False,AUTOMATION2,4,338,1638,fixed_delta,0.04926863410845236,0.011780794413821632,,,,,0.543259448320697,1956,1644,1,0.65,BLACK,BLACK,True,0,0.0018030004866886884,BLACK,True,CORRECT,0.583329302000493,583.329302000493
1,20260325_120141,D,J,False,AUTOMATION2,4,339,1639,fixed_delta,0.04926863410845236,0.011780794413821632,,,,,0.5657737128534074,2037,1563,1,0.65,BLACK,BLACK,True,0,0.0015030018403194845,BLACK,True,CORRECT,0.566332054000668,566.332054000668
1,20260325_120141,D,J,False,AUTOMATION2,4,340,1640,fixed_delta,0.04926863410845236,0.011780794413821632,,,,,0.4598275415242617,1655,1945,1,0.65,WHITE,BLACK,False,0,0.0012019991117995232,WHITE,True,CORRECT,2.1274140079985955,2127.4140079985955
1,20260325_120141,D,J,False,AUTOMATION2,4,341,1641,fixed_delta,0.04926863410845236,0.011780794413821632,,,,,0.5472072891220644,1970,1630,1,0.65,BLACK,WHITE,False,0,0.0015019977581687272,BLACK,True,CORRECT,1.3715122649991827,1371.5122649991827
1,20260325_120141,D,J,False,AUTOMATION2,4,342,1642,fixed_delta,0.04926863410845236,0.011780794413821632,,,,,0.43785590838025795,1576,2024,1,0.65,WHITE,WHITE,True,0,0.0012020027497783303,WHITE,True,CORRECT,0.710974071000237,710.974071000237
1,20260325_120141,D,J,False,AUTOMATION2,4,343,1643,fixed_delta,0.04926863410845236,0.011780794413821632,,,,,0.5630090106709155,2027,1573,1,0.65,BLACK,BLACK,True,0,0.0015030018403194845,BLACK,True,CORRECT,1.458152589002566,1458.152589002566
1,20260325_120141,D,J,False,AUTOMATION2,4,344,1644,fixed_delta,0.04926863410845236,0.011780794413821632,,,,,0.4554764702325914,1640,1960,1,0.65,WHITE,WHITE,True,0,0.0021029991330578923,WHITE,True,CORRECT,0.8836246329992719,883.6246329992719
1,20260325_120141,D,J,False,AUTOMATION2,4,345,1645,fixed_delta,0.04926863410845236,0.011780794413821632,,,,,0.5318109276938782,1915,1685,1,0.65,BLACK,WHITE,False,0,0.0015020013961475343,WHITE,False,INCORRECT,1.1872422540000116,1187.2422540000116
1,20260325_120141,D,J,False,AUTOMATION2,4,346,1646,fixed_delta,0.04926863410845236,0.011780794413821632,,,,,0.46138476088953767,1661,1939,1,0.65,WHITE,WHITE,True,0,0.0015030018403194845,BLACK,False,INCORRECT,0.8314661670010537,831.4661670010537
1,20260325_120141,D,J,False,AUTOMATION2,4,347,1647,fixed_delta,0.04926863410845236,0.011780794413821632,,,,,0.4428217648569638,1594,2006,1,0.65,WHITE,WHITE,True,0,0.0018030004866886884,WHITE,True,CORRECT,0.7015648740016331,701.5648740016331
1,20260325_120141,D,J,False,AUTOMATION2,4,348,1648,fixed_delta,0.04926863410845236,0.011780794413821632,,,,,0.5520901819988435,1988,1612,1,0.65,BLACK,WHITE,False,0,0.0012019991117995232,BLACK,True,CORRECT,0.7874528229986026,787.4528229986026
1,20260325_120141,D,J,False,AUTOMATION2,4,349,1649,fixed_delta,0.04926863410845236,0.011780794413821632,,,,,0.5501281499236922,1980,1620,1,0.65,BLACK,BLACK,True,0,0.0018020000425167382,BLACK,True,CORRECT,0.9850931170003605,985.0931170003605
1,20260325_120141,D,J,False,AUTOMATION2,4,350,1650,fixed_delta,0.04926863410845236,0.011780794413821632,,,,,0.4507831547097653,1623,1977,1,0.65,WHITE,WHITE,True,0,0.0015030018403194845,WHITE,True,CORRECT,0.863816796001629,863.816796001629
1,20260325_120141,D,J,False,AUTOMATION2,4,351,1651,fixed_delta,0.04926863410845236,0.011780794413821632,,,,,0.5459909842122981,1966,1634,1,0.65,BLACK,WHITE,False,0,0.0018029968487098813,BLACK,True,CORRECT,4.058976415999496,4058.9764159994957
1,20260325_120141,D,J,False,AUTOMATION2,4,352,1652,fixed_delta,0.04926863410845236,0.011780794413821632,,,,,0.4319658581033571,1555,2045,1,0.65,WHITE,BLACK,False,0,0.0015029982023406774,WHITE,True,CORRECT,1.3351506719991448,1335.1506719991448
1,20260325_120141,D,J,False,AUTOMATION2,4,353,1653,fixed_delta,0.04926863410845236,0.011780794413821632,,,,,0.5325748881885941,1917,1683,1,0.65,BLACK,BLACK,True,0,0.0015029982023406774,BLACK,True,CORRECT,2.6870933709979,2687.0933709979
1,20260325_120141,D,J,False,AUTOMATION2,4,354,1654,fixed_delta,0.04926863410845236,0.011780794413821632,,,,,0.5540548744082416,1995,1605,1,0.65,BLACK,BLACK,True,0,0.0021030027710366994,BLACK,True,CORRECT,0.6814520600019023,681.4520600019023
1,20260325_120141,D,J,False,AUTOMATION2,4,355,1655,fixed_delta,0.04926863410845236,0.011780794413821632,,,,,0.5532806121645769,1992,1608,1,0.65,BLACK,BLACK,True,0,0.0024039982235990465,WHITE,False,INCORRECT,1.8774025149978115,1877.4025149978115
1,20260325_120141,D,J,False,AUTOMATION2,4,356,1656,fixed_delta,0.04926863410845236,0.011780794413821632,,,,,0.4378017345481247,1576,2024,1,0.65,WHITE,WHITE,True,0,0.0018020000425167382,WHITE,True,CORRECT,0.5601273629981733,560.1273629981733
1,20260325_120141,D,J,False,AUTOMATION2,4,357,1657,fixed_delta,0.04926863410845236,0.011780794413821632,,,,,0.5671768611372193,2042,1558,1,0.65,BLACK,BLACK,True,0,0.0021029991330578923,BLACK,True,CORRECT,0.7146034389988927,714.6034389988927
1,20260325_120141,D,J,False,AUTOMATION2,4,358,1658,fixed_delta,0.04926863410845236,0.011780794413821632,,,,,0.5373937111994233,1935,1665,1,0.65,BLACK,WHITE,False,0,0.0015020013961475343,WHITE,False,INCORRECT,1.7112733379981364,1711.2733379981364
1,20260325_120141,D,J,False,AUTOMATION2,4,359,1659,fixed_delta,0.04926863410845236,0.011780794413821632,,,,,0.4491496841351202,1617,1983,1,0.65,WHITE,BLACK,False,0,0.0021029991330578923,WHITE,True,CORRECT,0.943351920999703,943.351920999703
1,20260325_120141,D,J,False,AUTOMATION2,4,360,1660,fixed_delta,0.04926863410845236,0.011780794413821632,,,,,0.5406101204003635,1946,1654,1,0.65,BLACK,BLACK,True,0,0.0015020013961475343,WHITE,False,INCORRECT,1.483873961999052,1483.873961999052
1,20260325_120141,D,J,False,AUTOMATION2,4,361,1661,fixed_delta,0.04926863410845236,0.011780794413821632,,,,,0.5438794558076031,1958,1642,1,0.65,BLACK,BLACK,True,0,0.0015029982023406774,BLACK,True,CORRECT,1.6560557939992577,1656.0557939992577
1,20260325_120141,D,J,False,AUTOMATION2,4,362,1662,fixed_delta,0.04926863410845236,0.011780794413821632,,,,,0.5374139718286701,1935,1665,1,0.65,BLACK,BLACK,True,0,0.0018030004866886884,BLACK,True,CORRECT,0.6771316119993571,677.1316119993571
1,20260325_120141,D,J,False,AUTOMATION2,4,363,1663,fixed_delta,0.04926863410845236,0.011780794413821632,,,,,0.4556446339772429,1640,1960,1,0.65,WHITE,WHITE,True,0,0.0018030004866886884,WHITE,True,CORRECT,1.0356023070016818,1035.6023070016818
1,20260325_120141,D,J,False,AUTOMATION2,4,364,1664,fixed_delta,0.04926863410845236,0.011780794413821632,,,,,0.5738353039001937,2066,1534,1,0.65,BLACK,BLACK,True,0,0.0015020013961475343,BLACK,True,CORRECT,0.6629356390003522,662.9356390003522
1,20260325_120141,D,J,False,AUTOMATION2,4,365,1665,fixed_delta,0.04926863410845236,0.011780794413821632,,,,,0.5739754020095365,2066,1534,1,0.65,BLACK,WHITE,False,0,0.0021030027710366994,BLACK,True,CORRECT,0.5752367620007135,575.2367620007135
1,20260325_120141,D,J,False,AUTOMATION2,4,366,1666,fixed_delta,0.04926863410845236,0.011780794413821632,,,,,0.5515177801521979,1985,1615,1,0.65,BLACK,BLACK,True,0,0.0021029991330578923,BLACK,True,CORRECT,0.6494196280000324,649.4196280000324
1,20260325_120141,D,J,False,AUTOMATION2,4,367,1667,fixed_delta,0.04926863410845236,0.011780794413821632,,,,,0.5207899104659516,1875,1725,1,0.65,BLACK,WHITE,False,0,0.0015020013961475343,BLACK,True,CORRECT,1.6891897460009204,1689.1897460009204
1,20260325_120141,D,J,False,AUTOMATION2,4,368,1668,fixed_delta,0.04926863410845236,0.011780794413821632,,,,,0.4432324856559486,1596,2004,1,0.65,WHITE,BLACK,False,0,0.0018030004866886884,WHITE,True,CORRECT,1.0825392180013296,1082.5392180013296
1,20260325_120141,D,J,False,AUTOMATION2,4,369,1669,fixed_delta,0.04926863410845236,0.011780794413821632,,,,,0.4510993967281209,1624,1976,1,0.65,WHITE,WHITE,True,0,0.0015020013961475343,WHITE,True,CORRECT,0.5980772370021441,598.0772370021441
1,20260325_120141,D,J,False,AUTOMATION2,4,370,1670,fixed_delta,0.04926863410845236,0.011780794413821632,,,,,0.5520615717388185,1987,1613,1,0.65,BLACK,BLACK,True,0,0.0015030018403194845,BLACK,True,CORRECT,0.7956658510011039,795.6658510011039
1,20260325_120141,D,J,False,AUTOMATION2,4,371,1671,fixed_delta,0.04926863410845236,0.011780794413821632,,,,,0.5505887624558955,1982,1618,1,0.65,BLACK,BLACK,True,0,0.0015030018403194845,BLACK,True,CORRECT,1.5834170390007785,1583.4170390007785
1,20260325_120141,D,J,False,AUTOMATION2,4,372,1672,fixed_delta,0.04926863410845236,0.011780794413821632,,,,,0.4449479014483295,1602,1998,1,0.65,WHITE,WHITE,True,0,0.0018030004866886884,WHITE,True,CORRECT,0.8679641740018269,867.9641740018269
1,20260325_120141,D,J,False,AUTOMATION2,4,373,1673,fixed_delta,0.04926863410845236,0.011780794413821632,,,,,0.4589507179018721,1652,1948,1,0.65,WHITE,WHITE,True,0,0.0012020027497783303,WHITE,True,CORRECT,2.6053344720021414,2605.3344720021414
1,20260325_120141,D,J,False,AUTOMATION2,4,374,1674,fixed_delta,0.04926863410845236,0.011780794413821632,,,,,0.5324615304129399,1917,1683,1,0.65,BLACK,BLACK,True,0,0.0018020000425167382,WHITE,False,INCORRECT,0.6325269429980835,632.5269429980835
1,20260325_120141,D,J,False,AUTOMATION2,4,375,1675,fixed_delta,0.04926863410845236,0.011780794413821632,,,,,0.5400509756324208,1944,1656,1,0.65,BLACK,BLACK,True,0,0.0015020013961475343,WHITE,False,INCORRECT,2.0275668569993286,2027.5668569993286
1,20260325_120141,D,J,False,AUTOMATION2,4,376,1676,fixed_delta,0.04926863410845236,0.011780794413821632,,,,,0.5437268971549687,1957,1643,1,0.65,BLACK,BLACK,True,0,0.0015030018403194845,BLACK,True,CORRECT,1.2471570350026013,1247.1570350026013
1,20260325_120141,D,J,False,AUTOMATION2,4,377,1677,fixed_delta,0.04926863410845236,0.011780794413821632,,,,,0.46447326706760106,1672,1928,1,0.65,WHITE,WHITE,True,0,0.0015029982023406774,WHITE,True,CORRECT,0.8364791969979706,836.4791969979706
1,20260325_120141,D,J,False,AUTOMATION2,4,378,1678,fixed_delta,0.04926863410845236,0.011780794413821632,,,,,0.5556670534650869,2000,1600,1,0.65,BLACK,WHITE,False,0,0.0024030014174059033,BLACK,True,CORRECT,1.154435813001328,1154.435813001328
1,20260325_120141,D,J,False,AUTOMATION2,4,379,1679,fixed_delta,0.04926863410845236,0.011780794413821632,,,,,0.5625122995932168,2025,1575,1,0.65,BLACK,WHITE,False,0,0.0015019977581687272,BLACK,True,CORRECT,1.8977548029979516,1897.7548029979516
1,20260325_120141,D,J,False,AUTOMATION2,4,380,1680,fixed_delta,0.04926863410845236,0.011780794413821632,,,,,0.45168783507794874,1626,1974,1,0.65,WHITE,BLACK,False,0,0.0030049995984882116,WHITE,True,CORRECT,1.7706962499978545,1770.6962499978545
1,20260325_120141,D,J,False,AUTOMATION2,4,381,1681,fixed_delta,0.04926863410845236,0.011780794413821632,,,,,0.4402179352332606,1585,2015,1,0.65,WHITE,BLACK,False,0,0.0015019977581687272,WHITE,True,CORRECT,0.5435183209992829,543.5183209992829
1,20260325_120141,D,J,False,AUTOMATION2,4,382,1682,fixed_delta,0.04926863410845236,0.011780794413821632,,,,,0.5480884737171694,1973,1627,1,0.65,BLACK,WHITE,False,0,0.0018030004866886884,BLACK,True,CORRECT,0.7834232290006184,783.4232290006184
1,20260325_120141,D,J,False,AUTOMATION2,4,383,1683,fixed_delta,0.04926863410845236,0.011780794413821632,,,,,0.5596680573906422,2015,1585,1,0.65,BLACK,BLACK,True,0,0.0018030004866886884,BLACK,True,CORRECT,0.6094554080009402,609.4554080009402
1,20260325_120141,D,J,False,AUTOMATION2,4,384,1684,fixed_delta,0.04926863410845236,0.011780794413821632,,,,,0.5658221333311144,2037,1563,1,0.65,BLACK,BLACK,True,0,0.0015029982023406774,BLACK,True,CORRECT,0.5839128139996319,583.9128139996319
1,20260325_120141,D,J,False,AUTOMATION2,4,385,1685,fixed_delta,0.04926863410845236,0.011780794413821632,,,,,0.4537289300696715,1633,1967,1,0.65,WHITE,BLACK,False,0,0.0012020027497783303,WHITE,True,CORRECT,0.6593762800002878,659.3762800002878
1,20260325_120141,D,J,False,AUTOMATION2,4,386,1686,fixed_delta,0.04926863410845236,0.011780794413821632,,,,,0.5622061573141222,2024,1576,1,0.65,BLACK,BLACK,True,0,0.0015019977581687272,BLACK,True,CORRECT,1.5261472889978904,1526.1472889978904
1,20260325_120141,D,J,False,AUTOMATION2,4,387,1687,fixed_delta,0.04926863410845236,0.011780794413821632,,,,,0.5485828487409563,1975,1625,1,0.65,BLACK,BLACK,True,0,0.0015029982023406774,WHITE,False,INCORRECT,0.7203868729993701,720.3868729993701
1,20260325_120141,D,J,False,AUTOMATION2,4,388,1688,fixed_delta,0.04926863410845236,0.011780794413821632,,,,,0.558992551725012,2012,1588,1,0.65,BLACK,BLACK,True,0,0.0018030004866886884,BLACK,True,CORRECT,1.0179878950002603,1017.9878950002603
1,20260325_120141,D,J,False,AUTOMATION2,4,389,1689,fixed_delta,0.04926863410845236,0.011780794413821632,,,,,0.5394091094725844,1942,1658,1,0.65,BLACK,WHITE,False,0,0.0018029968487098813,BLACK,True,CORRECT,0.7485802079972927,748.5802079972927
1,20260325_120141,D,J,False,AUTOMATION2,4,390,1690,fixed_delta,0.04926863410845236,0.011780794413821632,,,,,0.5586562321790317,2011,1589,1,0.65,BLACK,BLACK,True,0,0.0015030018403194845,BLACK,True,CORRECT,2.65632050700151,2656.32050700151
1,20260325_120141,D,J,False,AUTOMATION2,4,391,1691,fixed_delta,0.04926863410845236,0.011780794413821632,,,,,0.5338107123366889,1922,1678,1,0.65,BLACK,WHITE,False,0,0.0015029982023406774,BLACK,True,CORRECT,0.6179061080001702,617.9061080001702
1,20260325_120141,D,J,False,AUTOMATION2,4,392,1692,fixed_delta,0.04926863410845236,0.011780794413821632,,,,,0.41908523531372527,1509,2091,1,0.65,WHITE,WHITE,True,0,0.0015019977581687272,WHITE,True,CORRECT,0.6769612459975178,676.9612459975178
1,20260325_120141,D,J,False,AUTOMATION2,4,393,1693,fixed_delta,0.04926863410845236,0.011780794413821632,,,,,0.5433139580927918,1956,1644,1,0.65,BLACK,WHITE,False,0,0.0018030004866886884,BLACK,True,CORRECT,0.7529553409985965,752.9553409985965
1,20260325_120141,D,J,False,AUTOMATION2,4,394,1694,fixed_delta,0.04926863410845236,0.011780794413821632,,,,,0.5459222069954957,1965,1635,1,0.65,BLACK,BLACK,True,0,0.0015020013961475343,BLACK,True,CORRECT,0.7410699770007341,741.0699770007341
1,20260325_120141,D,J,False,AUTOMATION2,4,395,1695,fixed_delta,0.04926863410845236,0.011780794413821632,,,,,0.5570913842138864,2006,1594,1,0.65,BLACK,WHITE,False,0,0.0018030004866886884,BLACK,True,CORRECT,1.0658848059974844,1065.8848059974844
1,20260325_120141,D,J,False,AUTOMATION2,4,396,1696,fixed_delta,0.04926863410845236,0.011780794413821632,,,,,0.4307489201327366,1551,2049,1,0.65,WHITE,WHITE,True,0,0.0015019977581687272,WHITE,True,CORRECT,0.6709716910008865,670.9716910008865
1,20260325_120141,D,J,False,AUTOMATION2,4,397,1697,fixed_delta,0.04926863410845236,0.011780794413821632,,,,,0.44557004752012064,1604,1996,1,0.65,WHITE,WHITE,True,0,0.0018029968487098813,WHITE,True,CORRECT,0.80107429799682,801.07429799682
1,20260325_120141,D,J,False,AUTOMATION2,4,398,1698,fixed_delta,0.04926863410845236,0.011780794413821632,,,,,0.5445965716861961,1961,1639,1,0.65,BLACK,WHITE,False,0,0.0015020013961475343,BLACK,True,CORRECT,0.57842744500158,578.42744500158
1,20260325_120141,D,J,False,AUTOMATION2,4,399,1699,fixed_delta,0.04926863410845236,0.011780794413821632,,,,,0.43073040446539756,1551,2049,1,0.65,WHITE,WHITE,True,0,0.0015029982023406774,WHITE,True,CORRECT,1.77544937499988,1775.44937499988
1,20260325_120141,D,J,False,AUTOMATION2,4,400,1700,fixed_delta,0.04926863410845236,0.011780794413821632,,,,,0.46966956943087795,1691,1909,1,0.65,WHITE,BLACK,False,0,0.0015019977581687272,WHITE,True,CORRECT,0.8692985579982633,869.2985579982633
1,20260325_120141,D,J,False,AUTOMATION2,4,401,1701,fixed_delta,0.04926863410845236,0.011780794413821632,,,,,0.5541214921408956,1995,1605,1,0.65,BLACK,WHITE,False,0,0.0018030004866886884,BLACK,True,CORRECT,0.9921343150017492,992.1343150017492
1,20260325_120141,D,J,False,AUTOMATION2,4,402,1702,fixed_delta,0.04926863410845236,0.011780794413821632,,,,,0.43551705689006087,1568,2032,1,0.65,WHITE,BLACK,False,0,0.0018030004866886884,WHITE,True,CORRECT,0.6622535739988962,662.2535739988962
1,20260325_120141,D,J,False,AUTOMATION2,4,403,1703,fixed_delta,0.04926863410845236,0.011780794413821632,,,,,0.5645489545983396,2032,1568,1,0.65,BLACK,BLACK,True,0,0.0015029982023406774,BLACK,True,CORRECT,1.642676195999229,1642.676195999229
1,20260325_120141,D,J,False,AUTOMATION2,4,404,1704,fixed_delta,0.04926863410845236,0.011780794413821632,,,,,0.5409258245464895,1947,1653,1,0.65,BLACK,BLACK,True,0,0.0018029968487098813,BLACK,True,CORRECT,0.9002952709997771,900.2952709997771
1,20260325_120141,D,J,False,AUTOMATION2,4,405,1705,fixed_delta,0.04926863410845236,0.011780794413821632,,,,,0.5261039574534229,1894,1706,1,0.65,BLACK,WHITE,False,0,0.0018020000425167382,BLACK,True,CORRECT,0.7079164940005285,707.9164940005285
1,20260325_120141,D,J,False,AUTOMATION2,4,406,1706,fixed_delta,0.04926863410845236,0.011780794413821632,,,,,0.5455443388442864,1964,1636,1,0.65,BLACK,WHITE,False,0,0.0018030004866886884,BLACK,True,CORRECT,0.4817751849986962,481.7751849986962
1,20260325_120141,D,J,False,AUTOMATION2,4,407,1707,fixed_delta,0.04926863410845236,0.011780794413821632,,,,,0.4409142331421076,1587,2013,1,0.65,WHITE,BLACK,False,0,0.0018030004866886884,WHITE,True,CORRECT,0.7959966669986898,795.9966669986898
1,20260325_120141,D,J,False,AUTOMATION2,4,408,1708,fixed_delta,0.04926863410845236,0.011780794413821632,,,,,0.45101652692426253,1624,1976,1,0.65,WHITE,WHITE,True,0,0.0015029982023406774,WHITE,True,CORRECT,0.7517961310004466,751.7961310004466
1,20260325_120141,D,J,False,AUTOMATION2,4,409,1709,fixed_delta,0.04926863410845236,0.011780794413821632,,,,,0.4501209203952505,1620,1980,1,0.65,WHITE,BLACK,False,0,0.0015020013961475343,WHITE,True,CORRECT,0.83184746200277,831.84746200277
1,20260325_120141,D,J,False,AUTOMATION2,4,410,1710,fixed_delta,0.04926863410845236,0.011780794413821632,,,,,0.5386902149016467,1939,1661,1,0.65,BLACK,BLACK,True,0,0.0012019991117995232,BLACK,True,CORRECT,3.069255169997632,3069.255169997632
1,20260325_120141,D,J,False,AUTOMATION2,4,411,1711,fixed_delta,0.04926863410845236,0.011780794413821632,,,,,0.5468307376572747,1969,1631,1,0.65,BLACK,WHITE,False,0,0.0015020013961475343,BLACK,True,CORRECT,0.7421441549995507,742.1441549995507
