participant_id,run_timestamp,key_black,key_white,keymap_flip,block,block_idx,trial,global_trial,difficulty_mode,delta_fixed_mean,delta_fixed_sd,delta_stair_realised,delta_stair_mean,delta_step_down_used,delta_step_up_used,vblack_prop,n_vblack,n_vwhite,auto_on,aid_accuracy_setting,stimulus,aid_label,aid_correct,aid_onset_ms,aid_onset_ms_rel,response,correct,feedback,rt_s,rt_ms
2,20260325_120617,D,J,False,AUTOMATION1,4,1,1301,fixed_delta,0.04010600706829564,0.013286393218712247,,,,,0.5368828937641726,1933,1667,1,0.95,BLACK,BLACK,True,0,0.0015999994502635673,BLACK,True,CORRECT,1.063759199998458,1063.759199998458
2,20260325_120617,D,J,False,AUTOMATION1,4,2,1302,fixed_delta,0.04010600706829564,0.013286393218712247,,,,,0.5321015170336494,1916,1684,1,0.95,BLACK,WHITE,False,0,0.0015999994502635673,BLACK,True,CORRECT,0.6964169000002585,696.4169000002585
2,20260325_120617,D,J,False,AUTOMATION1,4,3,1303,fixed_delta,0.04010600706829564,0.013286393218712247,,,,,0.4413571799567467,1589,2011,1,0.95,WHITE,WHITE,True,0,0.0018000009731622413,WHITE,True,CORRECT,0.503546699999788,503.54669999978796
2,20260325_120617,D,J,False,AUTOMATION1,4,4,1304,fixed_delta,0.04010600706829564,0.013286393218712247,,,,,0.5476823199540635,1972,1628,1,0.95,BLACK,BLACK,True,0,0.0013000008038943633,BLACK,True,CORRECT,0.5172727000008308,517.2727000008308
2,20260325_120617,D,J,False,AUTOMATION1,4,5,1305,fixed_delta,0.04010600706829564,0.013286393218712247,,,,,0.5428490358929653,1954,1646,1,0.95,BLACK,BLACK,True,0,0.0016000012692529708,WHITE,False,INCORRECT,1.7635245000001305,1763.5245000001305
2,20260325_120617,D,J,False,AUTOMATION1,4,6,1306,fixed_delta,0.04010600706829564,0.013286393218712247,,,,,0.461401484828726,1661,1939,1,0.95,WHITE,WHITE,True,0,0.0015999994502635673,WHITE,True,CORRECT,0.9296487999999954,929.6487999999954
2,20260325_120617,D,J,False,AUTOMATION1,4,7,1307,fixed_delta,0.04010600706829564,0.013286393218712247,,,,,0.5266085550432782,1896,1704,1,0.95,BLACK,BLACK,True,0,0.0015999994502635673,WHITE,False,INCORRECT,0.9662585999994917,966.2585999994917
2,20260325_120617,D,J,False,AUTOMATION1,4,8,1308,fixed_delta,0.04010600706829564,0.013286393218712247,,,,,0.5567979791284905,2004,1596,1,0.95,BLACK,BLACK,True,0,0.002099999619531445,BLACK,True,CORRECT,0.8544645000001765,854.4645000001765
2,20260325_120617,D,J,False,AUTOMATION1,4,9,1309,fixed_delta,0.04010600706829564,0.013286393218712247,,,,,0.4761799067531051,1714,1886,1,0.95,WHITE,WHITE,True,0,0.0015000005078036338,WHITE,True,CORRECT,1.7878717000003235,1787.8717000003235
2,20260325_120617,D,J,False,AUTOMATION1,4,10,1310,fixed_delta,0.04010600706829564,0.013286393218712247,,,,,0.46492944716933665,1674,1926,1,0.95,WHITE,WHITE,True,0,0.0014999986888142303,WHITE,True,CORRECT,1.0967313000001013,1096.7313000001013
2,20260325_120617,D,J,False,AUTOMATION1,4,11,1311,fixed_delta,0.04010600706829564,0.013286393218712247,,,,,0.517746229469262,1864,1736,1,0.95,BLACK,BLACK,True,0,0.0013999997463542968,WHITE,False,INCORRECT,1.0654207999996288,1065.4207999996288
2,20260325_120617,D,J,False,AUTOMATION1,4,12,1312,fixed_delta,0.04010600706829564,0.013286393218712247,,,,,0.5407557927233428,1947,1653,1,0.95,BLACK,BLACK,True,0,0.0017999991541728377,BLACK,True,CORRECT,0.9804332000003342,980.4332000003342
2,20260325_120617,D,J,False,AUTOMATION1,4,13,1313,fixed_delta,0.04010600706829564,0.013286393218712247,,,,,0.4654918036633602,1676,1924,1,0.95,WHITE,WHITE,True,0,0.0015000005078036338,WHITE,True,CORRECT,0.7829926000013074,782.9926000013074
2,20260325_120617,D,J,False,AUTOMATION1,4,14,1314,fixed_delta,0.04010600706829564,0.013286393218712247,,,,,0.5493254705710717,1978,1622,1,0.95,BLACK,BLACK,True,0,0.0018999999156221747,BLACK,True,CORRECT,0.5913463999986561,591.3463999986561
2,20260325_120617,D,J,False,AUTOMATION1,4,15,1315,fixed_delta,0.04010600706829564,0.013286393218712247,,,,,0.4500397857629352,1620,1980,1,0.95,WHITE,WHITE,True,0,0.0017999991541728377,WHITE,True,CORRECT,0.89977429999999,899.77429999999
2,20260325_120617,D,J,False,AUTOMATION1,4,16,1316,fixed_delta,0.04010600706829564,0.013286393218712247,,,,,0.5212845970715236,1877,1723,1,0.95,BLACK,BLACK,True,0,0.0015000005078036338,BLACK,True,CORRECT,0.5327644999997574,532.7644999997574
2,20260325_120617,D,J,False,AUTOMATION1,4,17,1317,fixed_delta,0.04010600706829564,0.013286393218712247,,,,,0.5443718821358752,1960,1640,1,0.95,BLACK,BLACK,True,0,0.0015999994502635673,BLACK,True,CORRECT,1.8042380999995657,1804.2380999995657
2,20260325_120617,D,J,False,AUTOMATION1,4,18,1318,fixed_delta,0.04010600706829564,0.013286393218712247,,,,,0.4629153179783248,1666,1934,1,0.95,WHITE,BLACK,False,0,0.0017000002117129043,WHITE,True,CORRECT,0.976082299999689,976.082299999689
2,20260325_120617,D,J,False,AUTOMATION1,4,19,1319,fixed_delta,0.04010600706829564,0.013286393218712247,,,,,0.4468844670105868,1609,1991,1,0.95,WHITE,WHITE,True,0,0.0013999997463542968,WHITE,True,CORRECT,0.8372588000001997,837.2588000001997
2,20260325_120617,D,J,False,AUTOMATION1,4,20,1320,fixed_delta,0.04010600706829564,0.013286393218712247,,,,,0.4436943669865293,1597,2003,1,0.95,WHITE,WHITE,True,0,0.0017000002117129043,WHITE,True,CORRECT,0.8777871999991476,877.7871999991476
2,20260325_120617,D,J,False,AUTOMATION1,4,21,1321,fixed_delta,0.04010600706829564,0.013286393218712247,,,,,0.43701523812431453,1573,2027,1,0.95,WHITE,WHITE,True,0,0.0017999991541728377,WHITE,True,CORRECT,1.5408748999998352,1540.8748999998352
2,20260325_120617,D,J,False,AUTOMATION1,4,22,1322,fixed_delta,0.04010600706829564,0.013286393218712247,,,,,0.5442741873209085,1959,1641,1,0.95,BLACK,BLACK,True,0,0.0022999993234407157,BLACK,True,CORRECT,0.6092793999996502,609.2793999996502
2,20260325_120617,D,J,False,AUTOMATION1,4,23,1323,fixed_delta,0.04010600706829564,0.013286393218712247,,,,,0.4496802377067435,1619,1981,1,0.95,WHITE,WHITE,True,0,0.0016000012692529708,WHITE,True,CORRECT,1.6032262000007904,1603.2262000007904
2,20260325_120617,D,J,False,AUTOMATION1,4,24,1324,fixed_delta,0.04010600706829564,0.013286393218712247,,,,,0.5421910348210863,1952,1648,1,0.95,BLACK,BLACK,True,0,0.0015999994502635673,BLACK,True,CORRECT,0.5393777999997837,539.3777999997837
2,20260325_120617,D,J,False,AUTOMATION1,4,25,1325,fixed_delta,0.04010600706829564,0.013286393218712247,,,,,0.449534682355904,1618,1982,1,0.95,WHITE,WHITE,True,0,0.0015999994502635673,WHITE,True,CORRECT,0.6004584000002069,600.4584000002069
2,20260325_120617,D,J,False,AUTOMATION1,4,26,1326,fixed_delta,0.04010600706829564,0.013286393218712247,,,,,0.44995545958743355,1620,1980,1,0.95,WHITE,WHITE,True,0,0.0018999999156221747,BLACK,False,INCORRECT,1.032256000000416,1032.256000000416
2,20260325_120617,D,J,False,AUTOMATION1,4,27,1327,fixed_delta,0.04010600706829564,0.013286393218712247,,,,,0.47276055984827026,1702,1898,1,0.95,WHITE,WHITE,True,0,0.0015999994502635673,BLACK,False,INCORRECT,0.6627123999987816,662.7123999987816
2,20260325_120617,D,J,False,AUTOMATION1,4,28,1328,fixed_delta,0.04010600706829564,0.013286393218712247,,,,,0.48162209843518067,1734,1866,1,0.95,WHITE,WHITE,True,0,0.0014000015653437003,WHITE,True,CORRECT,0.5857485000015004,585.7485000015004
2,20260325_120617,D,J,False,AUTOMATION1,4,29,1329,fixed_delta,0.04010600706829564,0.013286393218712247,,,,,0.48101487934717757,1732,1868,1,0.95,WHITE,WHITE,True,0,0.0013999997463542968,BLACK,False,INCORRECT,0.5594127999993361,559.4127999993361
2,20260325_120617,D,J,False,AUTOMATION1,4,30,1330,fixed_delta,0.04010600706829564,0.013286393218712247,,,,,0.45064518959722605,1622,1978,1,0.95,WHITE,WHITE,True,0,0.0015000005078036338,WHITE,True,CORRECT,0.562214399998993,562.214399998993
2,20260325_120617,D,J,False,AUTOMATION1,4,31,1331,fixed_delta,0.04010600706829564,0.013286393218712247,,,,,0.5472109584628453,1970,1630,1,0.95,BLACK,BLACK,True,0,0.0015000005078036338,BLACK,True,CORRECT,0.6660757999998168,666.0757999998168
2,20260325_120617,D,J,False,AUTOMATION1,4,32,1332,fixed_delta,0.04010600706829564,0.013286393218712247,,,,,0.4887582088782147,1760,1840,1,0.95,WHITE,WHITE,True,0,0.0016999983927235007,WHITE,True,CORRECT,0.6083048999989842,608.3048999989842
2,20260325_120617,D,J,False,AUTOMATION1,4,33,1333,fixed_delta,0.04010600706829564,0.013286393218712247,,,,,0.5398736802821391,1944,1656,1,0.95,BLACK,BLACK,True,0,0.0017999991541728377,BLACK,True,CORRECT,0.7827072999989468,782.7072999989468
2,20260325_120617,D,J,False,AUTOMATION1,4,34,1334,fixed_delta,0.04010600706829564,0.013286393218712247,,,,,0.5436587725721588,1957,1643,1,0.95,BLACK,BLACK,True,0,0.0013999997463542968,WHITE,False,INCORRECT,0.9826162999997905,982.6162999997905
2,20260325_120617,D,J,False,AUTOMATION1,4,35,1335,fixed_delta,0.04010600706829564,0.013286393218712247,,,,,0.5093597046917704,1834,1766,1,0.95,BLACK,BLACK,True,0,0.0018999999156221747,BLACK,True,CORRECT,1.100911499999711,1100.911499999711
2,20260325_120617,D,J,False,AUTOMATION1,4,36,1336,fixed_delta,0.04010600706829564,0.013286393218712247,,,,,0.4520310636179036,1627,1973,1,0.95,WHITE,WHITE,True,0,0.0015999994502635673,WHITE,True,CORRECT,0.7490823999996792,749.0823999996792
2,20260325_120617,D,J,False,AUTOMATION1,4,37,1337,fixed_delta,0.04010600706829564,0.013286393218712247,,,,,0.46260313085535193,1665,1935,1,0.95,WHITE,WHITE,True,0,0.0016999983927235007,WHITE,True,CORRECT,4.396761899999547,4396.761899999547
2,20260325_120617,D,J,False,AUTOMATION1,4,38,1338,fixed_delta,0.04010600706829564,0.013286393218712247,,,,,0.5503453984596655,1981,1619,1,0.95,BLACK,BLACK,True,0,0.0013999997463542968,BLACK,True,CORRECT,0.5541333000001032,554.1333000001032
2,20260325_120617,D,J,False,AUTOMATION1,4,39,1339,fixed_delta,0.04010600706829564,0.013286393218712247,,,,,0.4741331360668156,1707,1893,1,0.95,WHITE,WHITE,True,0,0.0020000006770715117,WHITE,True,CORRECT,1.8278293000003032,1827.8293000003032
2,20260325_120617,D,J,False,AUTOMATION1,4,40,1340,fixed_delta,0.04010600706829564,0.013286393218712247,,,,,0.4610744383872562,1660,1940,1,0.95,WHITE,WHITE,True,0,0.0015999994502635673,WHITE,True,CORRECT,5.091587299999446,5091.587299999446
2,20260325_120617,D,J,False,AUTOMATION1,4,41,1341,fixed_delta,0.04010600706829564,0.013286393218712247,,,,,0.5300099048749916,1908,1692,1,0.95,BLACK,BLACK,True,0,0.0012999989849049598,WHITE,False,INCORRECT,2.955558599998767,2955.558599998767
2,20260325_120617,D,J,False,AUTOMATION1,4,42,1342,fixed_delta,0.04010600706829564,0.013286393218712247,,,,,0.5182333698826359,1866,1734,1,0.95,BLACK,WHITE,False,0,0.0014999986888142303,BLACK,True,CORRECT,1.127792799999952,1127.792799999952
2,20260325_120617,D,J,False,AUTOMATION1,4,43,1343,fixed_delta,0.04010600706829564,0.013286393218712247,,,,,0.5468715297032242,1969,1631,1,0.95,BLACK,BLACK,True,0,0.0015999994502635673,BLACK,True,CORRECT,0.5529327000003832,552.9327000003832
2,20260325_120617,D,J,False,AUTOMATION1,4,44,1344,fixed_delta,0.04010600706829564,0.013286393218712247,,,,,0.5476539393717,1972,1628,1,0.95,BLACK,WHITE,False,0,0.0013999997463542968,BLACK,True,CORRECT,0.6598930000000109,659.8930000000109
2,20260325_120617,D,J,False,AUTOMATION1,4,45,1345,fixed_delta,0.04010600706829564,0.013286393218712247,,,,,0.5532077990198587,1992,1608,1,0.95,BLACK,BLACK,True,0,0.0015999994502635673,BLACK,True,CORRECT,0.7253265999988798,725.3265999988798
2,20260325_120617,D,J,False,AUTOMATION1,4,46,1346,fixed_delta,0.04010600706829564,0.013286393218712247,,,,,0.533086756064829,1919,1681,1,0.95,BLACK,BLACK,True,0,0.0018999999156221747,BLACK,True,CORRECT,0.5920349999996688,592.0349999996688
2,20260325_120617,D,J,False,AUTOMATION1,4,47,1347,fixed_delta,0.04010600706829564,0.013286393218712247,,,,,0.5330875221202499,1919,1681,1,0.95,BLACK,BLACK,True,0,0.0015999994502635673,WHITE,False,INCORRECT,0.6958102000007784,695.8102000007784
2,20260325_120617,D,J,False,AUTOMATION1,4,48,1348,fixed_delta,0.04010600706829564,0.013286393218712247,,,,,0.4601293727070523,1656,1944,1,0.95,WHITE,WHITE,True,0,0.0010999992809956893,WHITE,True,CORRECT,0.589822699999786,589.822699999786
2,20260325_120617,D,J,False,AUTOMATION1,4,49,1349,fixed_delta,0.04010600706829564,0.013286393218712247,,,,,0.5485134528824096,1975,1625,1,0.95,BLACK,BLACK,True,0,0.0018000009731622413,BLACK,True,CORRECT,0.5119503000005352,511.9503000005352
2,20260325_120617,D,J,False,AUTOMATION1,4,50,1350,fixed_delta,0.04010600706829564,0.013286393218712247,,,,,0.4837856223454542,1742,1858,1,0.95,WHITE,WHITE,True,0,0.0015999994502635673,WHITE,True,CORRECT,0.5405306000011478,540.5306000011478
2,20260325_120617,D,J,False,AUTOMATION1,4,51,1351,fixed_delta,0.04010600706829564,0.013286393218712247,,,,,0.446552914466532,1608,1992,1,0.95,WHITE,WHITE,True,0,0.0017000002117129043,WHITE,True,CORRECT,0.7923639000000549,792.3639000000549
2,20260325_120617,D,J,False,AUTOMATION1,4,52,1352,fixed_delta,0.04010600706829564,0.013286393218712247,,,,,0.4757903998446622,1713,1887,1,0.95,WHITE,WHITE,True,0,0.0015000005078036338,WHITE,True,CORRECT,2.137707199999568,2137.707199999568
2,20260325_120617,D,J,False,AUTOMATION1,4,53,1353,fixed_delta,0.04010600706829564,0.013286393218712247,,,,,0.4522943071325077,1628,1972,1,0.95,WHITE,WHITE,True,0,0.0014999986888142303,WHITE,True,CORRECT,0.856984599999123,856.984599999123
2,20260325_120617,D,J,False,AUTOMATION1,4,54,1354,fixed_delta,0.04010600706829564,0.013286393218712247,,,,,0.5074216124681566,1827,1773,1,0.95,BLACK,BLACK,True,0,0.0018999999156221747,WHITE,False,INCORRECT,0.8126721999997244,812.6721999997244
2,20260325_120617,D,J,False,AUTOMATION1,4,55,1355,fixed_delta,0.04010600706829564,0.013286393218712247,,,,,0.5337903655273328,1922,1678,1,0.95,BLACK,BLACK,True,0,0.0018999999156221747,BLACK,True,CORRECT,1.417367699999886,1417.367699999886
2,20260325_120617,D,J,False,AUTOMATION1,4,56,1356,fixed_delta,0.04010600706829564,0.013286393218712247,,,,,0.4682024310613755,1686,1914,1,0.95,WHITE,WHITE,True,0,0.0013999997463542968,WHITE,True,CORRECT,0.5902365999991162,590.2365999991162
2,20260325_120617,D,J,False,AUTOMATION1,4,57,1357,fixed_delta,0.04010600706829564,0.013286393218712247,,,,,0.4613120020308788,1661,1939,1,0.95,WHITE,WHITE,True,0,0.0015000005078036338,WHITE,True,CORRECT,0.5819838000006712,581.9838000006712
2,20260325_120617,D,J,False,AUTOMATION1,4,58,1358,fixed_delta,0.04010600706829564,0.013286393218712247,,,,,0.5431178178886302,1955,1645,1,0.95,BLACK,BLACK,True,0,0.0017000002117129043,BLACK,True,CORRECT,0.5600144999989425,560.0144999989425
2,20260325_120617,D,J,False,AUTOMATION1,4,59,1359,fixed_delta,0.04010600706829564,0.013286393218712247,,,,,0.447059615679937,1609,1991,1,0.95,WHITE,WHITE,True,0,0.0017000002117129043,WHITE,True,CORRECT,1.0149679000005563,1014.9679000005563
2,20260325_120617,D,J,False,AUTOMATION1,4,60,1360,fixed_delta,0.04010600706829564,0.013286393218712247,,,,,0.4452172295771452,1603,1997,1,0.95,WHITE,WHITE,True,0,0.0017000002117129043,WHITE,True,CORRECT,0.5599199000007502,559.9199000007502
2,20260325_120617,D,J,False,AUTOMATION1,4,61,1361,fixed_delta,0.04010600706829564,0.013286393218712247,,,,,0.5443310618655809,1960,1640,1,0.95,BLACK,WHITE,False,0,0.0013999997463542968,BLACK,True,CORRECT,0.5605428999988362,560.5428999988362
2,20260325_120617,D,J,False,AUTOMATION1,4,62,1362,fixed_delta,0.04010600706829564,0.013286393218712247,,,,,0.5246193284893417,1889,1711,1,0.95,BLACK,BLACK,True,0,0.0015999994502635673,WHITE,False,INCORRECT,0.8696478000001662,869.6478000001662
2,20260325_120617,D,J,False,AUTOMATION1,4,63,1363,fixed_delta,0.04010600706829564,0.013286393218712247,,,,,0.5343868704601314,1924,1676,1,0.95,BLACK,BLACK,True,0,0.0015000005078036338,WHITE,False,INCORRECT,0.6674531999997271,667.4531999997271
2,20260325_120617,D,J,False,AUTOMATION1,4,64,1364,fixed_delta,0.04010600706829564,0.013286393218712247,,,,,0.47594108235035554,1713,1887,1,0.95,WHITE,WHITE,True,0,0.0015000005078036338,WHITE,True,CORRECT,2.144126099999994,2144.126099999994
2,20260325_120617,D,J,False,AUTOMATION1,4,65,1365,fixed_delta,0.04010600706829564,0.013286393218712247,,,,,0.44367800225763193,1597,2003,1,0.95,WHITE,WHITE,True,0,0.0015000005078036338,WHITE,True,CORRECT,1.7466153000004851,1746.6153000004851
2,20260325_120617,D,J,False,AUTOMATION1,4,66,1366,fixed_delta,0.04010600706829564,0.013286393218712247,,,,,0.5360865435216102,1930,1670,1,0.95,BLACK,BLACK,True,0,0.0016999983927235007,BLACK,True,CORRECT,0.6468600999996852,646.8600999996852
2,20260325_120617,D,J,False,AUTOMATION1,4,67,1367,fixed_delta,0.04010600706829564,0.013286393218712247,,,,,0.5573306639754273,2006,1594,1,0.95,BLACK,BLACK,True,0,0.0015000005078036338,WHITE,False,INCORRECT,1.1595732000005228,1159.5732000005228
2,20260325_120617,D,J,False,AUTOMATION1,4,68,1368,fixed_delta,0.04010600706829564,0.013286393218712247,,,,,0.5267822193889322,1896,1704,1,0.95,BLACK,BLACK,True,0,0.0013999997463542968,WHITE,False,INCORRECT,0.9723794000001362,972.3794000001362
2,20260325_120617,D,J,False,AUTOMATION1,4,69,1369,fixed_delta,0.04010600706829564,0.013286393218712247,,,,,0.53094207045274,1911,1689,1,0.95,BLACK,BLACK,True,0,0.0012999989849049598,BLACK,True,CORRECT,0.7941842999989603,794.1842999989603
2,20260325_120617,D,J,False,AUTOMATION1,4,70,1370,fixed_delta,0.04010600706829564,0.013286393218712247,,,,,0.4950938446047591,1782,1818,1,0.95,WHITE,WHITE,True,0,0.0013000008038943633,WHITE,True,CORRECT,0.6926681000004464,692.6681000004464
2,20260325_120617,D,J,False,AUTOMATION1,4,71,1371,fixed_delta,0.04010600706829564,0.013286393218712247,,,,,0.45432224253321296,1636,1964,1,0.95,WHITE,WHITE,True,0,0.0016999983927235007,WHITE,True,CORRECT,1.7833577999990666,1783.3577999990666
2,20260325_120617,D,J,False,AUTOMATION1,4,72,1372,fixed_delta,0.04010600706829564,0.013286393218712247,,,,,0.45440681795348786,1636,1964,1,0.95,WHITE,WHITE,True,0,0.0014000015653437003,WHITE,True,CORRECT,0.7689989999998943,768.9989999998943
2,20260325_120617,D,J,False,AUTOMATION1,4,73,1373,fixed_delta,0.04010600706829564,0.013286393218712247,,,,,0.48224092260109547,1736,1864,1,0.95,WHITE,WHITE,True,0,0.0013999997463542968,WHITE,True,CORRECT,0.7554538000003959,755.4538000003959
2,20260325_120617,D,J,False,AUTOMATION1,4,74,1374,fixed_delta,0.04010600706829564,0.013286393218712247,,,,,0.5370989883146587,1934,1666,1,0.95,BLACK,BLACK,True,0,0.0017000002117129043,BLACK,True,CORRECT,0.8643297999988135,864.3297999988135
2,20260325_120617,D,J,False,AUTOMATION1,4,75,1375,fixed_delta,0.04010600706829564,0.013286393218712247,,,,,0.42681602129462537,1537,2063,1,0.95,WHITE,WHITE,True,0,0.0015999994502635673,WHITE,True,CORRECT,0.776985099999365,776.985099999365
2,20260325_120617,D,J,False,AUTOMATION1,4,76,1376,fixed_delta,0.04010600706829564,0.013286393218712247,,,,,0.4670743308972528,1681,1919,1,0.95,WHITE,WHITE,True,0,0.0013999997463542968,WHITE,True,CORRECT,0.6807109999990644,680.7109999990644
2,20260325_120617,D,J,False,AUTOMATION1,4,77,1377,fixed_delta,0.04010600706829564,0.013286393218712247,,,,,0.5295644859358197,1906,1694,1,0.95,BLACK,BLACK,True,0,0.0017999991541728377,BLACK,True,CORRECT,2.7339180999988457,2733.9180999988457
2,20260325_120617,D,J,False,AUTOMATION1,4,78,1378,fixed_delta,0.04010600706829564,0.013286393218712247,,,,,0.5388228707240313,1940,1660,1,0.95,BLACK,BLACK,True,0,0.0014999986888142303,WHITE,False,INCORRECT,1.4702865999988717,1470.2865999988717
2,20260325_120617,D,J,False,AUTOMATION1,4,79,1379,fixed_delta,0.04010600706829564,0.013286393218712247,,,,,0.5531817398856581,1991,1609,1,0.95,BLACK,BLACK,True,0,0.0017000002117129043,WHITE,False,INCORRECT,0.9187748000003921,918.7748000003921
2,20260325_120617,D,J,False,AUTOMATION1,4,80,1380,fixed_delta,0.04010600706829564,0.013286393218712247,,,,,0.5420102549088422,1951,1649,1,0.95,BLACK,BLACK,True,0,0.0015000005078036338,WHITE,False,INCORRECT,0.9112437999992835,911.2437999992835
2,20260325_120617,D,J,False,AUTOMATION1,4,81,1381,fixed_delta,0.04010600706829564,0.013286393218712247,,,,,0.4519011502230813,1627,1973,1,0.95,WHITE,WHITE,True,0,0.0017000002117129043,WHITE,True,CORRECT,0.6411318999998912,641.1318999998912
2,20260325_120617,D,J,False,AUTOMATION1,4,82,1382,fixed_delta,0.04010600706829564,0.013286393218712247,,,,,0.44944516320141903,1618,1982,1,0.95,WHITE,WHITE,True,0,0.0015999994502635673,WHITE,True,CORRECT,0.6062858999994205,606.2858999994205
2,20260325_120617,D,J,False,AUTOMATION1,4,83,1383,fixed_delta,0.04010600706829564,0.013286393218712247,,,,,0.5166481806382589,1860,1740,1,0.95,BLACK,BLACK,True,0,0.0014000015653437003,BLACK,True,CORRECT,0.756908300001669,756.908300001669
2,20260325_120617,D,J,False,AUTOMATION1,4,84,1384,fixed_delta,0.04010600706829564,0.013286393218712247,,,,,0.4435967814184106,1597,2003,1,0.95,WHITE,WHITE,True,0,0.0015000005078036338,WHITE,True,CORRECT,0.5750149000014062,575.0149000014062
2,20260325_120617,D,J,False,AUTOMATION1,4,85,1385,fixed_delta,0.04010600706829564,0.013286393218712247,,,,,0.546674083810688,1968,1632,1,0.95,BLACK,BLACK,True,0,0.0015000005078036338,BLACK,True,CORRECT,0.5282544000001508,528.2544000001508
2,20260325_120617,D,J,False,AUTOMATION1,4,86,1386,fixed_delta,0.04010600706829564,0.013286393218712247,,,,,0.5515960884124097,1986,1614,1,0.95,BLACK,BLACK,True,0,0.0015000005078036338,BLACK,True,CORRECT,0.7210055000014108,721.0055000014108
2,20260325_120617,D,J,False,AUTOMATION1,4,87,1387,fixed_delta,0.04010600706829564,0.013286393218712247,,,,,0.47666240264114096,1716,1884,1,0.95,WHITE,BLACK,False,0,0.0017000002117129043,BLACK,False,INCORRECT,0.698762899999565,698.762899999565
2,20260325_120617,D,J,False,AUTOMATION1,4,88,1388,fixed_delta,0.04010600706829564,0.013286393218712247,,,,,0.5392870229347652,1941,1659,1,0.95,BLACK,BLACK,True,0,0.0018999999156221747,BLACK,True,CORRECT,0.6792699999987235,679.2699999987235
2,20260325_120617,D,J,False,AUTOMATION1,4,89,1389,fixed_delta,0.04010600706829564,0.013286393218712247,,,,,0.4898656065623304,1764,1836,1,0.95,WHITE,WHITE,True,0,0.0013999997463542968,WHITE,True,CORRECT,0.5059992999995302,505.9992999995302
2,20260325_120617,D,J,False,AUTOMATION1,4,90,1390,fixed_delta,0.04010600706829564,0.013286393218712247,,,,,0.444929800431019,1602,1998,1,0.95,WHITE,WHITE,True,0,0.0016000012692529708,WHITE,True,CORRECT,0.583737500001007,583.737500001007
2,20260325_120617,D,J,False,AUTOMATION1,4,91,1391,fixed_delta,0.04010600706829564,0.013286393218712247,,,,,0.5372769382164609,1934,1666,1,0.95,BLACK,WHITE,False,0,0.0017000002117129043,BLACK,True,CORRECT,0.8005667000015819,800.5667000015819
2,20260325_120617,D,J,False,AUTOMATION1,4,92,1392,fixed_delta,0.04010600706829564,0.013286393218712247,,,,,0.46867445923631107,1687,1913,1,0.95,WHITE,WHITE,True,0,0.0015000005078036338,WHITE,True,CORRECT,0.7236785000004602,723.6785000004602
2,20260325_120617,D,J,False,AUTOMATION1,4,93,1393,fixed_delta,0.04010600706829564,0.013286393218712247,,,,,0.5485098843950992,1975,1625,1,0.95,BLACK,BLACK,True,0,0.001999998858082108,BLACK,True,CORRECT,0.5469297999989067,546.9297999989067
2,20260325_120617,D,J,False,AUTOMATION1,4,94,1394,fixed_delta,0.04010600706829564,0.013286393218712247,,,,,0.4569337293272315,1645,1955,1,0.95,WHITE,WHITE,True,0,0.0015999994502635673,WHITE,True,CORRECT,0.5444384999991598,544.4384999991598
2,20260325_120617,D,J,False,AUTOMATION1,4,95,1395,fixed_delta,0.04010600706829564,0.013286393218712247,,,,,0.44588875885825313,1605,1995,1,0.95,WHITE,WHITE,True,0,0.0015999994502635673,WHITE,True,CORRECT,0.5818984999987151,581.8984999987151
2,20260325_120617,D,J,False,AUTOMATION1,4,96,1396,fixed_delta,0.04010600706829564,0.013286393218712247,,,,,0.5229673803616919,1883,1717,1,0.95,BLACK,BLACK,True,0,0.0015999994502635673,WHITE,False,INCORRECT,0.54090129999895,540.90129999895
2,20260325_120617,D,J,False,AUTOMATION1,4,97,1397,fixed_delta,0.04010600706829564,0.013286393218712247,,,,,0.4493026926149131,1617,1983,1,0.95,WHITE,WHITE,True,0,0.0013999997463542968,WHITE,True,CORRECT,0.5618075000002136,561.8075000002136
2,20260325_120617,D,J,False,AUTOMATION1,4,98,1398,fixed_delta,0.04010600706829564,0.013286393218712247,,,,,0.4513100236751706,1625,1975,1,0.95,WHITE,WHITE,True,0,0.001999998858082108,WHITE,True,CORRECT,0.6042209999995976,604.2209999995976
2,20260325_120617,D,J,False,AUTOMATION1,4,99,1399,fixed_delta,0.04010600706829564,0.013286393218712247,,,,,0.46472978401858267,1673,1927,1,0.95,WHITE,WHITE,True,0,0.0013999997463542968,WHITE,True,CORRECT,0.5273249999991094,527.3249999991094
2,20260325_120617,D,J,False,AUTOMATION1,4,100,1400,fixed_delta,0.04010600706829564,0.013286393218712247,,,,,0.44373955429695366,1597,2003,1,0.95,WHITE,WHITE,True,0,0.0015000005078036338,WHITE,True,CORRECT,0.4575271000012435,457.5271000012435
2,20260325_120617,D,J,False,AUTOMATION1,4,101,1401,fixed_delta,0.04010600706829564,0.013286393218712247,,,,,0.5243137889311862,1888,1712,1,0.95,BLACK,BLACK,True,0,0.0015999994502635673,WHITE,False,INCORRECT,0.5347160000001168,534.7160000001168
2,20260325_120617,D,J,False,AUTOMATION1,4,102,1402,fixed_delta,0.04010600706829564,0.013286393218712247,,,,,0.5362101505354518,1930,1670,1,0.95,BLACK,BLACK,True,0,0.0017000002117129043,BLACK,True,CORRECT,1.0847967000008794,1084.7967000008794
2,20260325_120617,D,J,False,AUTOMATION1,4,103,1403,fixed_delta,0.04010600706829564,0.013286393218712247,,,,,0.4566725232932794,1644,1956,1,0.95,WHITE,WHITE,True,0,0.0015000005078036338,WHITE,True,CORRECT,0.5634581000012986,563.4581000012986
2,20260325_120617,D,J,False,AUTOMATION1,4,104,1404,fixed_delta,0.04010600706829564,0.013286393218712247,,,,,0.48451883593597905,1744,1856,1,0.95,WHITE,WHITE,True,0,0.0013999997463542968,WHITE,True,CORRECT,0.6058288000003813,605.8288000003813
2,20260325_120617,D,J,False,AUTOMATION1,4,105,1405,fixed_delta,0.04010600706829564,0.013286393218712247,,,,,0.4783250399186131,1722,1878,1,0.95,WHITE,WHITE,True,0,0.0013999997463542968,WHITE,True,CORRECT,0.5801277000009577,580.1277000009577
2,20260325_120617,D,J,False,AUTOMATION1,4,106,1406,fixed_delta,0.04010600706829564,0.013286393218712247,,,,,0.47455955514814036,1708,1892,1,0.95,WHITE,WHITE,True,0,0.0020000006770715117,BLACK,False,INCORRECT,0.667602600000464,667.602600000464
2,20260325_120617,D,J,False,AUTOMATION1,4,107,1407,fixed_delta,0.04010600706829564,0.013286393218712247,,,,,0.45499263845127025,1638,1962,1,0.95,WHITE,WHITE,True,0,0.0018999999156221747,WHITE,True,CORRECT,0.4908747999998013,490.8747999998013
2,20260325_120617,D,J,False,AUTOMATION1,4,108,1408,fixed_delta,0.04010600706829564,0.013286393218712247,,,,,0.4507331348347021,1623,1977,1,0.95,WHITE,WHITE,True,0,0.0013000008038943633,BLACK,False,INCORRECT,0.43025850000049104,430.25850000049104
2,20260325_120617,D,J,False,AUTOMATION1,4,109,1409,fixed_delta,0.04010600706829564,0.013286393218712247,,,,,0.45202744774638925,1627,1973,1,0.95,WHITE,BLACK,False,0,0.0018999999156221747,WHITE,True,CORRECT,0.4906621999998606,490.6621999998606
2,20260325_120617,D,J,False,AUTOMATION1,4,110,1410,fixed_delta,0.04010600706829564,0.013286393218712247,,,,,0.4315114813201855,1553,2047,1,0.95,WHITE,WHITE,True,0,0.0013000008038943633,WHITE,True,CORRECT,0.4397039000014047,439.7039000014047
2,20260325_120617,D,J,False,AUTOMATION1,4,111,1411,fixed_delta,0.04010600706829564,0.013286393218712247,,,,,0.4654422304284135,1676,1924,1,0.95,WHITE,WHITE,True,0,0.0017000002117129043,BLACK,False,INCORRECT,0.6352987000009307,635.2987000009307
2,20260325_120617,D,J,False,AUTOMATION1,4,112,1412,fixed_delta,0.04010600706829564,0.013286393218712247,,,,,0.45951201170361716,1654,1946,1,0.95,WHITE,WHITE,True,0,0.0013999997463542968,WHITE,True,CORRECT,0.49076400000012654,490.76400000012654
2,20260325_120617,D,J,False,AUTOMATION1,4,113,1413,fixed_delta,0.04010600706829564,0.013286393218712247,,,,,0.4438626948283337,1598,2002,1,0.95,WHITE,WHITE,True,0,0.0013999997463542968,WHITE,True,CORRECT,1.120463799999925,1120.463799999925
2,20260325_120617,D,J,False,AUTOMATION1,4,114,1414,fixed_delta,0.04010600706829564,0.013286393218712247,,,,,0.5222145385085655,1880,1720,1,0.95,BLACK,WHITE,False,0,0.0012000000424450263,BLACK,True,CORRECT,0.49665160000040487,496.65160000040487
2,20260325_120617,D,J,False,AUTOMATION1,4,115,1415,fixed_delta,0.04010600706829564,0.013286393218712247,,,,,0.5430545819019647,1955,1645,1,0.95,BLACK,BLACK,True,0,0.0013999997463542968,WHITE,False,INCORRECT,0.4833404999990307,483.3404999990307
2,20260325_120617,D,J,False,AUTOMATION1,4,116,1416,fixed_delta,0.04010600706829564,0.013286393218712247,,,,,0.46893920046582016,1688,1912,1,0.95,WHITE,WHITE,True,0,0.0015000005078036338,BLACK,False,INCORRECT,0.5327321000004304,532.7321000004304
2,20260325_120617,D,J,False,AUTOMATION1,4,117,1417,fixed_delta,0.04010600706829564,0.013286393218712247,,,,,0.5557164467819338,2001,1599,1,0.95,BLACK,BLACK,True,0,0.0015000005078036338,BLACK,True,CORRECT,0.9114592000005359,911.4592000005359
2,20260325_120617,D,J,False,AUTOMATION1,4,118,1418,fixed_delta,0.04010600706829564,0.013286393218712247,,,,,0.4571358030578075,1646,1954,1,0.95,WHITE,WHITE,True,0,0.0017999991541728377,WHITE,True,CORRECT,0.7196579999999813,719.6579999999813
2,20260325_120617,D,J,False,AUTOMATION1,4,119,1419,fixed_delta,0.04010600706829564,0.013286393218712247,,,,,0.4537119311050893,1633,1967,1,0.95,WHITE,WHITE,True,0,0.0020000006770715117,WHITE,True,CORRECT,0.5870013000003382,587.0013000003382
2,20260325_120617,D,J,False,AUTOMATION1,4,120,1420,fixed_delta,0.04010600706829564,0.013286393218712247,,,,,0.4695342088596088,1690,1910,1,0.95,WHITE,WHITE,True,0,0.0015000005078036338,WHITE,True,CORRECT,0.48168599999917205,481.68599999917205
2,20260325_120617,D,J,False,AUTOMATION1,4,121,1421,fixed_delta,0.04010600706829564,0.013286393218712247,,,,,0.555742529911176,2001,1599,1,0.95,BLACK,BLACK,True,0,0.0016999983927235007,BLACK,True,CORRECT,0.5408912999992026,540.8912999992026
2,20260325_120617,D,J,False,AUTOMATION1,4,122,1422,fixed_delta,0.04010600706829564,0.013286393218712247,,,,,0.5291809193370253,1905,1695,1,0.95,BLACK,BLACK,True,0,0.0018999999156221747,WHITE,False,INCORRECT,1.0953544999993028,1095.3544999993028
2,20260325_120617,D,J,False,AUTOMATION1,4,123,1423,fixed_delta,0.04010600706829564,0.013286393218712247,,,,,0.4636995652021376,1669,1931,1,0.95,WHITE,WHITE,True,0,0.0013000008038943633,WHITE,True,CORRECT,0.5943232999998145,594.3232999998145
2,20260325_120617,D,J,False,AUTOMATION1,4,124,1424,fixed_delta,0.04010600706829564,0.013286393218712247,,,,,0.5501679154920716,1981,1619,1,0.95,BLACK,BLACK,True,0,0.0024000000848900527,WHITE,False,INCORRECT,0.5962438999995356,596.2438999995356
2,20260325_120617,D,J,False,AUTOMATION1,4,125,1425,fixed_delta,0.04010600706829564,0.013286393218712247,,,,,0.560214000609009,2017,1583,1,0.95,BLACK,BLACK,True,0,0.0017999991541728377,BLACK,True,CORRECT,0.6960223000005499,696.0223000005499
2,20260325_120617,D,J,False,AUTOMATION1,4,126,1426,fixed_delta,0.04010600706829564,0.013286393218712247,,,,,0.43972784581281665,1583,2017,1,0.95,WHITE,WHITE,True,0,0.0016000012692529708,WHITE,True,CORRECT,0.6445469000009325,644.5469000009325
2,20260325_120617,D,J,False,AUTOMATION1,4,127,1427,fixed_delta,0.04010600706829564,0.013286393218712247,,,,,0.5307766203685373,1911,1689,1,0.95,BLACK,BLACK,True,0,0.0016999983927235007,BLACK,True,CORRECT,0.5201113999992231,520.1113999992231
2,20260325_120617,D,J,False,AUTOMATION1,4,128,1428,fixed_delta,0.04010600706829564,0.013286393218712247,,,,,0.4522600691584431,1628,1972,1,0.95,WHITE,WHITE,True,0,0.0015000005078036338,BLACK,False,INCORRECT,0.5242374000008567,524.2374000008567
2,20260325_120617,D,J,False,AUTOMATION1,4,129,1429,fixed_delta,0.04010600706829564,0.013286393218712247,,,,,0.5396882833159804,1943,1657,1,0.95,BLACK,BLACK,True,0,0.0015000005078036338,BLACK,True,CORRECT,0.5189000999998825,518.9000999998825
2,20260325_120617,D,J,False,AUTOMATION1,4,130,1430,fixed_delta,0.04010600706829564,0.013286393218712247,,,,,0.5518803268755893,1987,1613,1,0.95,BLACK,BLACK,True,0,0.0015000005078036338,BLACK,True,CORRECT,0.48452050000014424,484.52050000014424
2,20260325_120617,D,J,False,AUTOMATION1,4,131,1431,fixed_delta,0.04010600706829564,0.013286393218712247,,,,,0.4715523995016549,1698,1902,1,0.95,WHITE,WHITE,True,0,0.0015999994502635673,WHITE,True,CORRECT,0.5319899999994959,531.9899999994959
2,20260325_120617,D,J,False,AUTOMATION1,4,132,1432,fixed_delta,0.04010600706829564,0.013286393218712247,,,,,0.4815287186231948,1734,1866,1,0.95,WHITE,BLACK,False,0,0.0016000012692529708,BLACK,False,INCORRECT,0.7548991000003298,754.8991000003298
2,20260325_120617,D,J,False,AUTOMATION1,4,133,1433,fixed_delta,0.04010600706829564,0.013286393218712247,,,,,0.5290433780140681,1905,1695,1,0.95,BLACK,BLACK,True,0,0.0018999999156221747,WHITE,False,INCORRECT,3.1172507999999652,3117.2507999999652
2,20260325_120617,D,J,False,AUTOMATION1,4,134,1434,fixed_delta,0.04010600706829564,0.013286393218712247,,,,,0.5498960422486833,1980,1620,1,0.95,BLACK,BLACK,True,0,0.0016000012692529708,BLACK,True,CORRECT,0.777653700000883,777.653700000883
2,20260325_120617,D,J,False,AUTOMATION1,4,135,1435,fixed_delta,0.04010600706829564,0.013286393218712247,,,,,0.44492516375039676,1602,1998,1,0.95,WHITE,WHITE,True,0,0.0017999991541728377,WHITE,True,CORRECT,0.7977453999992576,797.7453999992576
2,20260325_120617,D,J,False,AUTOMATION1,4,136,1436,fixed_delta,0.04010600706829564,0.013286393218712247,,,,,0.46595186919822107,1677,1923,1,0.95,WHITE,WHITE,True,0,0.0015999994502635673,WHITE,True,CORRECT,2.299502300000313,2299.502300000313
2,20260325_120617,D,J,False,AUTOMATION1,4,137,1437,fixed_delta,0.04010600706829564,0.013286393218712247,,,,,0.45601489011898677,1642,1958,1,0.95,WHITE,WHITE,True,0,0.0016000012692529708,WHITE,True,CORRECT,0.7404518000003009,740.4518000003009
2,20260325_120617,D,J,False,AUTOMATION1,4,138,1438,fixed_delta,0.04010600706829564,0.013286393218712247,,,,,0.5366599020529912,1932,1668,1,0.95,BLACK,BLACK,True,0,0.0013999997463542968,BLACK,True,CORRECT,0.611804399999528,611.804399999528
2,20260325_120617,D,J,False,AUTOMATION1,4,139,1439,fixed_delta,0.04010600706829564,0.013286393218712247,,,,,0.4365929823122172,1572,2028,1,0.95,WHITE,WHITE,True,0,0.0017999991541728377,WHITE,True,CORRECT,1.3544259999998758,1354.4259999998758
2,20260325_120617,D,J,False,AUTOMATION1,4,140,1440,fixed_delta,0.04010600706829564,0.013286393218712247,,,,,0.5720799588834562,2059,1541,1,0.95,BLACK,BLACK,True,0,0.0014000015653437003,BLACK,True,CORRECT,0.5792408000015712,579.2408000015712
2,20260325_120617,D,J,False,AUTOMATION1,4,141,1441,fixed_delta,0.04010600706829564,0.013286393218712247,,,,,0.4587088833483884,1651,1949,1,0.95,WHITE,WHITE,True,0,0.0015999994502635673,WHITE,True,CORRECT,2.0218208999995113,2021.8208999995113
2,20260325_120617,D,J,False,AUTOMATION1,4,142,1442,fixed_delta,0.04010600706829564,0.013286393218712247,,,,,0.45769716900502155,1648,1952,1,0.95,WHITE,WHITE,True,0,0.0017000002117129043,WHITE,True,CORRECT,4.110980299999937,4110.980299999937
2,20260325_120617,D,J,False,AUTOMATION1,4,143,1443,fixed_delta,0.04010600706829564,0.013286393218712247,,,,,0.5526692557981625,1990,1610,1,0.95,BLACK,BLACK,True,0,0.0015000005078036338,BLACK,True,CORRECT,0.9293983000006847,929.3983000006847
2,20260325_120617,D,J,False,AUTOMATION1,4,144,1444,fixed_delta,0.04010600706829564,0.013286393218712247,,,,,0.4509645718180506,1623,1977,1,0.95,WHITE,WHITE,True,0,0.0020000006770715117,WHITE,True,CORRECT,1.402037300000302,1402.037300000302
2,20260325_120617,D,J,False,AUTOMATION1,4,145,1445,fixed_delta,0.04010600706829564,0.013286393218712247,,,,,0.44398222294799666,1598,2002,1,0.95,WHITE,WHITE,True,0,0.0014999986888142303,WHITE,True,CORRECT,1.9506406000000425,1950.6406000000425
2,20260325_120617,D,J,False,AUTOMATION1,4,146,1446,fixed_delta,0.04010600706829564,0.013286393218712247,,,,,0.44537479676304337,1603,1997,1,0.95,WHITE,WHITE,True,0,0.0016000012692529708,WHITE,True,CORRECT,1.5138949000011053,1513.8949000011053
2,20260325_120617,D,J,False,AUTOMATION1,4,147,1447,fixed_delta,0.04010600706829564,0.013286393218712247,,,,,0.5335904977433692,1921,1679,1,0.95,BLACK,BLACK,True,0,0.0018000009731622413,BLACK,True,CORRECT,4.18590629999926,4185.90629999926
2,20260325_120617,D,J,False,AUTOMATION1,4,148,1448,fixed_delta,0.04010600706829564,0.013286393218712247,,,,,0.4755309655785251,1712,1888,1,0.95,WHITE,WHITE,True,0,0.0018999999156221747,WHITE,True,CORRECT,1.4057610999989265,1405.7610999989265
2,20260325_120617,D,J,False,AUTOMATION1,4,149,1449,fixed_delta,0.04010600706829564,0.013286393218712247,,,,,0.4408497846117094,1587,2013,1,0.95,WHITE,WHITE,True,0,0.0017000002117129043,WHITE,True,CORRECT,0.7903726000004099,790.3726000004099
2,20260325_120617,D,J,False,AUTOMATION1,4,150,1450,fixed_delta,0.04010600706829564,0.013286393218712247,,,,,0.5138805400130015,1850,1750,1,0.95,BLACK,BLACK,True,0,0.0013999997463542968,WHITE,False,INCORRECT,0.8060361000007106,806.0361000007106
2,20260325_120617,D,J,False,AUTOMATION1,4,151,1451,fixed_delta,0.04010600706829564,0.013286393218712247,,,,,0.5632017165910645,2028,1572,1,0.95,BLACK,BLACK,True,0,0.0017000002117129043,BLACK,True,CORRECT,0.5754004000009445,575.4004000009445
2,20260325_120617,D,J,False,AUTOMATION1,4,152,1452,fixed_delta,0.04010600706829564,0.013286393218712247,,,,,0.4731369431987016,1703,1897,1,0.95,WHITE,WHITE,True,0,0.0015000005078036338,WHITE,True,CORRECT,0.6073608000006061,607.3608000006061
2,20260325_120617,D,J,False,AUTOMATION1,4,153,1453,fixed_delta,0.04010600706829564,0.013286393218712247,,,,,0.4540779990967429,1635,1965,1,0.95,WHITE,WHITE,True,0,0.0013000008038943633,WHITE,True,CORRECT,1.020730400001412,1020.7304000014119
2,20260325_120617,D,J,False,AUTOMATION1,4,154,1454,fixed_delta,0.04010600706829564,0.013286393218712247,,,,,0.5460136924794222,1966,1634,1,0.95,BLACK,BLACK,True,0,0.0013999997463542968,BLACK,True,CORRECT,0.557951900000262,557.951900000262
2,20260325_120617,D,J,False,AUTOMATION1,4,155,1455,fixed_delta,0.04010600706829564,0.013286393218712247,,,,,0.4648478676622708,1673,1927,1,0.95,WHITE,WHITE,True,0,0.0013000008038943633,WHITE,True,CORRECT,0.8183160999997199,818.3160999997199
2,20260325_120617,D,J,False,AUTOMATION1,4,156,1456,fixed_delta,0.04010600706829564,0.013286393218712247,,,,,0.5318068631656425,1915,1685,1,0.95,BLACK,BLACK,True,0,0.0013999997463542968,BLACK,True,CORRECT,1.1712316000011924,1171.2316000011924
2,20260325_120617,D,J,False,AUTOMATION1,4,157,1457,fixed_delta,0.04010600706829564,0.013286393218712247,,,,,0.5419950614209531,1951,1649,1,0.95,BLACK,BLACK,True,0,0.0013999997463542968,BLACK,True,CORRECT,0.5151000999994721,515.1000999994721
2,20260325_120617,D,J,False,AUTOMATION1,4,158,1458,fixed_delta,0.04010600706829564,0.013286393218712247,,,,,0.4590267181714187,1652,1948,1,0.95,WHITE,WHITE,True,0,0.0013999997463542968,WHITE,True,CORRECT,0.5605854999994335,560.5854999994335
2,20260325_120617,D,J,False,AUTOMATION1,4,159,1459,fixed_delta,0.04010600706829564,0.013286393218712247,,,,,0.47349987091180046,1705,1895,1,0.95,WHITE,WHITE,True,0,0.0013999997463542968,WHITE,True,CORRECT,0.785162300000593,785.162300000593
2,20260325_120617,D,J,False,AUTOMATION1,4,160,1460,fixed_delta,0.04010600706829564,0.013286393218712247,,,,,0.5298298892350298,1907,1693,1,0.95,BLACK,BLACK,True,0,0.0013000008038943633,BLACK,True,CORRECT,0.7542730999994092,754.2730999994092
2,20260325_120617,D,J,False,AUTOMATION1,4,161,1461,fixed_delta,0.04010600706829564,0.013286393218712247,,,,,0.5497618930850573,1979,1621,1,0.95,BLACK,BLACK,True,0,0.0015999994502635673,BLACK,True,CORRECT,0.576260399999228,576.260399999228
2,20260325_120617,D,J,False,AUTOMATION1,4,162,1462,fixed_delta,0.04010600706829564,0.013286393218712247,,,,,0.4403309943710771,1585,2015,1,0.95,WHITE,WHITE,True,0,0.0018999999156221747,WHITE,True,CORRECT,0.7162205999993603,716.2205999993603
2,20260325_120617,D,J,False,AUTOMATION1,4,163,1463,fixed_delta,0.04010600706829564,0.013286393218712247,,,,,0.5476848234218302,1972,1628,1,0.95,BLACK,BLACK,True,0,0.0015999994502635673,BLACK,True,CORRECT,0.7833566999997856,783.3566999997856
2,20260325_120617,D,J,False,AUTOMATION1,4,164,1464,fixed_delta,0.04010600706829564,0.013286393218712247,,,,,0.46578605360823977,1677,1923,1,0.95,WHITE,WHITE,True,0,0.0018000009731622413,WHITE,True,CORRECT,0.6162135000013222,616.2135000013222
2,20260325_120617,D,J,False,AUTOMATION1,4,165,1465,fixed_delta,0.04010600706829564,0.013286393218712247,,,,,0.47214509820201883,1700,1900,1,0.95,WHITE,WHITE,True,0,0.0013999997463542968,BLACK,False,INCORRECT,0.5220117000008031,522.0117000008031
2,20260325_120617,D,J,False,AUTOMATION1,4,166,1466,fixed_delta,0.04010600706829564,0.013286393218712247,,,,,0.5280735776028012,1901,1699,1,0.95,BLACK,BLACK,True,0,0.0015000005078036338,BLACK,True,CORRECT,1.1963178000005428,1196.3178000005428
2,20260325_120617,D,J,False,AUTOMATION1,4,167,1467,fixed_delta,0.04010600706829564,0.013286393218712247,,,,,0.4560742417800782,1642,1958,1,0.95,WHITE,WHITE,True,0,0.0014999986888142303,WHITE,True,CORRECT,0.5045246999998199,504.52469999981986
2,20260325_120617,D,J,False,AUTOMATION1,4,168,1468,fixed_delta,0.04010600706829564,0.013286393218712247,,,,,0.4449516984431243,1602,1998,1,0.95,WHITE,WHITE,True,0,0.0014000015653437003,WHITE,True,CORRECT,0.487644700000601,487.644700000601
2,20260325_120617,D,J,False,AUTOMATION1,4,169,1469,fixed_delta,0.04010600706829564,0.013286393218712247,,,,,0.5567159866768757,2004,1596,1,0.95,BLACK,BLACK,True,0,0.0017000002117129043,BLACK,True,CORRECT,0.4747783000002528,474.7783000002528
2,20260325_120617,D,J,False,AUTOMATION1,4,170,1470,fixed_delta,0.04010600706829564,0.013286393218712247,,,,,0.5298856875366632,1908,1692,1,0.95,BLACK,BLACK,True,0,0.0013999997463542968,WHITE,False,INCORRECT,1.1075249000004987,1107.5249000004987
2,20260325_120617,D,J,False,AUTOMATION1,4,171,1471,fixed_delta,0.04010600706829564,0.013286393218712247,,,,,0.461927846569069,1663,1937,1,0.95,WHITE,WHITE,True,0,0.0012999989849049598,WHITE,True,CORRECT,0.5303048999994644,530.3048999994644
2,20260325_120617,D,J,False,AUTOMATION1,4,172,1472,fixed_delta,0.04010600706829564,0.013286393218712247,,,,,0.5411906878820757,1948,1652,1,0.95,BLACK,BLACK,True,0,0.0017000002117129043,BLACK,True,CORRECT,0.4451844000013807,445.1844000013807
2,20260325_120617,D,J,False,AUTOMATION1,4,173,1473,fixed_delta,0.04010600706829564,0.013286393218712247,,,,,0.5444128507835732,1960,1640,1,0.95,BLACK,WHITE,False,0,0.0013999997463542968,BLACK,True,CORRECT,0.6397981999998592,639.7981999998592
2,20260325_120617,D,J,False,AUTOMATION1,4,174,1474,fixed_delta,0.04010600706829564,0.013286393218712247,,,,,0.4471829665935565,1610,1990,1,0.95,WHITE,WHITE,True,0,0.001999998858082108,WHITE,True,CORRECT,1.0557523999996192,1055.7523999996192
2,20260325_120617,D,J,False,AUTOMATION1,4,175,1475,fixed_delta,0.04010600706829564,0.013286393218712247,,,,,0.45588005880697563,1641,1959,1,0.95,WHITE,WHITE,True,0,0.0018999999156221747,WHITE,True,CORRECT,0.48301680000076885,483.01680000076885
2,20260325_120617,D,J,False,AUTOMATION1,4,176,1476,fixed_delta,0.04010600706829564,0.013286393218712247,,,,,0.5666141937091671,2040,1560,1,0.95,BLACK,BLACK,True,0,0.0017000002117129043,BLACK,True,CORRECT,0.5788164000005054,578.8164000005054
2,20260325_120617,D,J,False,AUTOMATION1,4,177,1477,fixed_delta,0.04010600706829564,0.013286393218712247,,,,,0.5425928350258749,1953,1647,1,0.95,BLACK,BLACK,True,0,0.0013999997463542968,WHITE,False,INCORRECT,0.8994418000002042,899.4418000002042
2,20260325_120617,D,J,False,AUTOMATION1,4,178,1478,fixed_delta,0.04010600706829564,0.013286393218712247,,,,,0.4638782942977884,1670,1930,1,0.95,WHITE,WHITE,True,0,0.0015000005078036338,BLACK,False,INCORRECT,4.196596900001168,4196.596900001168
2,20260325_120617,D,J,False,AUTOMATION1,4,179,1479,fixed_delta,0.04010600706829564,0.013286393218712247,,,,,0.45792008334004114,1649,1951,1,0.95,WHITE,WHITE,True,0,0.0013999997463542968,WHITE,True,CORRECT,0.475690700000996,475.690700000996
2,20260325_120617,D,J,False,AUTOMATION1,4,180,1480,fixed_delta,0.04010600706829564,0.013286393218712247,,,,,0.4418164268378969,1591,2009,1,0.95,WHITE,WHITE,True,0,0.002200000380980782,WHITE,True,CORRECT,0.5956463000002259,595.6463000002259
2,20260325_120617,D,J,False,AUTOMATION1,4,181,1481,fixed_delta,0.04010600706829564,0.013286393218712247,,,,,0.4675502919516,1683,1917,1,0.95,WHITE,WHITE,True,0,0.0013999997463542968,WHITE,True,CORRECT,0.558718600001157,558.718600001157
2,20260325_120617,D,J,False,AUTOMATION1,4,182,1482,fixed_delta,0.04010600706829564,0.013286393218712247,,,,,0.46167111627590135,1662,1938,1,0.95,WHITE,WHITE,True,0,0.0013000008038943633,WHITE,True,CORRECT,0.5430539000008139,543.0539000008139
2,20260325_120617,D,J,False,AUTOMATION1,4,183,1483,fixed_delta,0.04010600706829564,0.013286393218712247,,,,,0.4612859131583937,1661,1939,1,0.95,WHITE,WHITE,True,0,0.0015000005078036338,WHITE,True,CORRECT,0.5671051999997871,567.1051999997871
2,20260325_120617,D,J,False,AUTOMATION1,4,184,1484,fixed_delta,0.04010600706829564,0.013286393218712247,,,,,0.5399747585084874,1944,1656,1,0.95,BLACK,BLACK,True,0,0.0013000008038943633,BLACK,True,CORRECT,0.5295528000006016,529.5528000006016
2,20260325_120617,D,J,False,AUTOMATION1,4,185,1485,fixed_delta,0.04010600706829564,0.013286393218712247,,,,,0.45654694483836805,1644,1956,1,0.95,WHITE,WHITE,True,0,0.0014999986888142303,WHITE,True,CORRECT,0.6229318999994575,622.9318999994575
2,20260325_120617,D,J,False,AUTOMATION1,4,186,1486,fixed_delta,0.04010600706829564,0.013286393218712247,,,,,0.47123133310065435,1696,1904,1,0.95,WHITE,WHITE,True,0,0.0018999999156221747,WHITE,True,CORRECT,0.6317784000002575,631.7784000002575
2,20260325_120617,D,J,False,AUTOMATION1,4,187,1487,fixed_delta,0.04010600706829564,0.013286393218712247,,,,,0.4779489720840506,1721,1879,1,0.95,WHITE,WHITE,True,0,0.0017000002117129043,WHITE,True,CORRECT,0.5728027000004658,572.8027000004658
2,20260325_120617,D,J,False,AUTOMATION1,4,188,1488,fixed_delta,0.04010600706829564,0.013286393218712247,,,,,0.4531180479370914,1631,1969,1,0.95,WHITE,WHITE,True,0,0.0017000002117129043,WHITE,True,CORRECT,0.5325655000015104,532.5655000015104
2,20260325_120617,D,J,False,AUTOMATION1,4,189,1489,fixed_delta,0.04010600706829564,0.013286393218712247,,,,,0.5491917457617386,1977,1623,1,0.95,BLACK,BLACK,True,0,0.0018000009731622413,BLACK,True,CORRECT,0.8963275000005524,896.3275000005524
2,20260325_120617,D,J,False,AUTOMATION1,4,190,1490,fixed_delta,0.04010600706829564,0.013286393218712247,,,,,0.4631021144654536,1667,1933,1,0.95,WHITE,WHITE,True,0,0.0013999997463542968,WHITE,True,CORRECT,0.9155704999993759,915.5704999993759
2,20260325_120617,D,J,False,AUTOMATION1,4,191,1491,fixed_delta,0.04010600706829564,0.013286393218712247,,,,,0.5460552110043211,1966,1634,1,0.95,BLACK,BLACK,True,0,0.0012999989849049598,BLACK,True,CORRECT,0.5801707999999053,580.1707999999053
2,20260325_120617,D,J,False,AUTOMATION1,4,192,1492,fixed_delta,0.04010600706829564,0.013286393218712247,,,,,0.5551890351695786,1999,1601,1,0.95,BLACK,BLACK,True,0,0.0013999997463542968,BLACK,True,CORRECT,0.618790500000614,618.790500000614
2,20260325_120617,D,J,False,AUTOMATION1,4,193,1493,fixed_delta,0.04010600706829564,0.013286393218712247,,,,,0.45068534012316186,1622,1978,1,0.95,WHITE,WHITE,True,0,0.0014000015653437003,WHITE,True,CORRECT,0.5786844000012934,578.6844000012934
2,20260325_120617,D,J,False,AUTOMATION1,4,194,1494,fixed_delta,0.04010600706829564,0.013286393218712247,,,,,0.5526393365712382,1990,1610,1,0.95,BLACK,BLACK,True,0,0.0013999997463542968,BLACK,True,CORRECT,0.5219695999985561,521.9695999985561
2,20260325_120617,D,J,False,AUTOMATION1,4,195,1495,fixed_delta,0.04010600706829564,0.013286393218712247,,,,,0.455442929830101,1640,1960,1,0.95,WHITE,WHITE,True,0,0.0018999999156221747,WHITE,True,CORRECT,0.620087199999034,620.087199999034
2,20260325_120617,D,J,False,AUTOMATION1,4,196,1496,fixed_delta,0.04010600706829564,0.013286393218712247,,,,,0.5418691177551221,1951,1649,1,0.95,BLACK,BLACK,True,0,0.0015000005078036338,BLACK,True,CORRECT,0.4600434999993013,460.0434999993013
2,20260325_120617,D,J,False,AUTOMATION1,4,197,1497,fixed_delta,0.04010600706829564,0.013286393218712247,,,,,0.5303203446000027,1909,1691,1,0.95,BLACK,BLACK,True,0,0.0017000002117129043,BLACK,True,CORRECT,0.7761691999985487,776.1691999985487
2,20260325_120617,D,J,False,AUTOMATION1,4,198,1498,fixed_delta,0.04010600706829564,0.013286393218712247,,,,,0.4525737691290042,1629,1971,1,0.95,WHITE,WHITE,True,0,0.0015999994502635673,WHITE,True,CORRECT,0.6185676000004605,618.5676000004605
2,20260325_120617,D,J,False,AUTOMATION1,4,199,1499,fixed_delta,0.04010600706829564,0.013286393218712247,,,,,0.5347813947599046,1925,1675,1,0.95,BLACK,BLACK,True,0,0.0016000012692529708,BLACK,True,CORRECT,0.6428208000015729,642.8208000015729
2,20260325_120617,D,J,False,AUTOMATION1,4,200,1500,fixed_delta,0.04010600706829564,0.013286393218712247,,,,,0.5621482778978654,2024,1576,1,0.95,BLACK,BLACK,True,0,0.0012999989849049598,BLACK,True,CORRECT,0.5722927000006166,572.2927000006166
2,20260325_120617,D,J,False,AUTOMATION1,4,201,1501,fixed_delta,0.04010600706829564,0.013286393218712247,,,,,0.5197634372587301,1871,1729,1,0.95,BLACK,BLACK,True,0,0.0015000005078036338,WHITE,False,INCORRECT,1.2083153999992646,1208.3153999992646
2,20260325_120617,D,J,False,AUTOMATION1,4,202,1502,fixed_delta,0.04010600706829564,0.013286393218712247,,,,,0.466267969641362,1679,1921,1,0.95,WHITE,WHITE,True,0,0.0018000009731622413,WHITE,True,CORRECT,0.7211169000001973,721.1169000001973
2,20260325_120617,D,J,False,AUTOMATION1,4,203,1503,fixed_delta,0.04010600706829564,0.013286393218712247,,,,,0.5345675652545016,1924,1676,1,0.95,BLACK,BLACK,True,0,0.0015000005078036338,BLACK,True,CORRECT,0.5693813000016235,569.3813000016235
2,20260325_120617,D,J,False,AUTOMATION1,4,204,1504,fixed_delta,0.04010600706829564,0.013286393218712247,,,,,0.46422849529562066,1671,1929,1,0.95,WHITE,WHITE,True,0,0.0015999994502635673,WHITE,True,CORRECT,0.515486599999349,515.486599999349
2,20260325_120617,D,J,False,AUTOMATION1,4,205,1505,fixed_delta,0.04010600706829564,0.013286393218712247,,,,,0.5303380991211033,1909,1691,1,0.95,BLACK,BLACK,True,0,0.0015999994502635673,BLACK,True,CORRECT,0.43059569999968517,430.59569999968517
2,20260325_120617,D,J,False,AUTOMATION1,4,206,1506,fixed_delta,0.04010600706829564,0.013286393218712247,,,,,0.5403162346598717,1945,1655,1,0.95,BLACK,BLACK,True,0,0.0017000002117129043,BLACK,True,CORRECT,0.5789617999998882,578.9617999998882
2,20260325_120617,D,J,False,AUTOMATION1,4,207,1507,fixed_delta,0.04010600706829564,0.013286393218712247,,,,,0.5405740247833202,1946,1654,1,0.95,BLACK,BLACK,True,0,0.0015999994502635673,BLACK,True,CORRECT,0.534055599999192,534.055599999192
2,20260325_120617,D,J,False,AUTOMATION1,4,208,1508,fixed_delta,0.04010600706829564,0.013286393218712247,,,,,0.5801913612652374,2089,1511,1,0.95,BLACK,BLACK,True,0,0.0015999994502635673,BLACK,True,CORRECT,0.45912830000088434,459.12830000088434
2,20260325_120617,D,J,False,AUTOMATION1,4,209,1509,fixed_delta,0.04010600706829564,0.013286393218712247,,,,,0.5472432408937025,1970,1630,1,0.95,BLACK,BLACK,True,0,0.0017999991541728377,BLACK,True,CORRECT,0.5063397999983863,506.3397999983863
2,20260325_120617,D,J,False,AUTOMATION1,4,210,1510,fixed_delta,0.04010600706829564,0.013286393218712247,,,,,0.5452328560365576,1963,1637,1,0.95,BLACK,BLACK,True,0,0.0013000008038943633,BLACK,True,CORRECT,0.4749799000001076,474.9799000001076
2,20260325_120617,D,J,False,AUTOMATION1,4,211,1511,fixed_delta,0.04010600706829564,0.013286393218712247,,,,,0.4545012049914296,1636,1964,1,0.95,WHITE,WHITE,True,0,0.0013000008038943633,WHITE,True,CORRECT,0.6222424000006868,622.2424000006868
2,20260325_120617,D,J,False,AUTOMATION1,4,212,1512,fixed_delta,0.04010600706829564,0.013286393218712247,,,,,0.5354395565928275,1928,1672,1,0.95,BLACK,BLACK,True,0,0.0013999997463542968,BLACK,True,CORRECT,0.48169870000128867,481.69870000128867
2,20260325_120617,D,J,False,AUTOMATION1,4,213,1513,fixed_delta,0.04010600706829564,0.013286393218712247,,,,,0.4503981684714387,1621,1979,1,0.95,WHITE,BLACK,False,0,0.0013000008038943633,WHITE,True,CORRECT,1.4496092000008503,1449.6092000008503
2,20260325_120617,D,J,False,AUTOMATION1,4,214,1514,fixed_delta,0.04010600706829564,0.013286393218712247,,,,,0.47862568626396423,1723,1877,1,0.95,WHITE,WHITE,True,0,0.0018999999156221747,BLACK,False,INCORRECT,0.9278787000002922,927.8787000002922
2,20260325_120617,D,J,False,AUTOMATION1,4,215,1515,fixed_delta,0.04010600706829564,0.013286393218712247,,,,,0.4460965951191852,1606,1994,1,0.95,WHITE,WHITE,True,0,0.0017999991541728377,WHITE,True,CORRECT,0.6323458999995637,632.3458999995637
2,20260325_120617,D,J,False,AUTOMATION1,4,216,1516,fixed_delta,0.04010600706829564,0.013286393218712247,,,,,0.5689339998696192,2048,1552,1,0.95,BLACK,BLACK,True,0,0.0015999994502635673,BLACK,True,CORRECT,0.6054571999993641,605.4571999993641
2,20260325_120617,D,J,False,AUTOMATION1,4,217,1517,fixed_delta,0.04010600706829564,0.013286393218712247,,,,,0.5231147233539907,1883,1717,1,0.95,BLACK,BLACK,True,0,0.0013999997463542968,BLACK,True,CORRECT,0.6101502999990771,610.1502999990771
2,20260325_120617,D,J,False,AUTOMATION1,4,218,1518,fixed_delta,0.04010600706829564,0.013286393218712247,,,,,0.46802170330904225,1685,1915,1,0.95,WHITE,WHITE,True,0,0.0015999994502635673,WHITE,True,CORRECT,0.5345089999991615,534.5089999991615
2,20260325_120617,D,J,False,AUTOMATION1,4,219,1519,fixed_delta,0.04010600706829564,0.013286393218712247,,,,,0.5314406122596109,1913,1687,1,0.95,BLACK,BLACK,True,0,0.0015000005078036338,BLACK,True,CORRECT,0.5740353999990475,574.0353999990475
2,20260325_120617,D,J,False,AUTOMATION1,4,220,1520,fixed_delta,0.04010600706829564,0.013286393218712247,,,,,0.4535272652471099,1633,1967,1,0.95,WHITE,WHITE,True,0,0.0014000015653437003,WHITE,True,CORRECT,0.5754425000013725,575.4425000013725
2,20260325_120617,D,J,False,AUTOMATION1,4,221,1521,fixed_delta,0.04010600706829564,0.013286393218712247,,,,,0.5428821616925583,1954,1646,1,0.95,BLACK,BLACK,True,0,0.0016000012692529708,BLACK,True,CORRECT,0.5947472999996535,594.7472999996535
2,20260325_120617,D,J,False,AUTOMATION1,4,222,1522,fixed_delta,0.04010600706829564,0.013286393218712247,,,,,0.5395372962948896,1942,1658,1,0.95,BLACK,BLACK,True,0,0.0015000005078036338,BLACK,True,CORRECT,0.5608839000014996,560.8839000014996
2,20260325_120617,D,J,False,AUTOMATION1,4,223,1523,fixed_delta,0.04010600706829564,0.013286393218712247,,,,,0.4593209677389268,1654,1946,1,0.95,WHITE,WHITE,True,0,0.0014999986888142303,WHITE,True,CORRECT,0.6965199999995093,696.5199999995093
2,20260325_120617,D,J,False,AUTOMATION1,4,224,1524,fixed_delta,0.04010600706829564,0.013286393218712247,,,,,0.4535440039405293,1633,1967,1,0.95,WHITE,WHITE,True,0,0.0014999986888142303,WHITE,True,CORRECT,2.007974699999977,2007.974699999977
2,20260325_120617,D,J,False,AUTOMATION1,4,225,1525,fixed_delta,0.04010600706829564,0.013286393218712247,,,,,0.46215331964394946,1664,1936,1,0.95,WHITE,WHITE,True,0,0.0018999999156221747,WHITE,True,CORRECT,0.7849532000000181,784.9532000000181
2,20260325_120617,D,J,False,AUTOMATION1,4,226,1526,fixed_delta,0.04010600706829564,0.013286393218712247,,,,,0.44550749400484174,1604,1996,1,0.95,WHITE,WHITE,True,0,0.0015000005078036338,WHITE,True,CORRECT,0.601015300000654,601.015300000654
2,20260325_120617,D,J,False,AUTOMATION1,4,227,1527,fixed_delta,0.04010600706829564,0.013286393218712247,,,,,0.519338352497609,1870,1730,1,0.95,BLACK,BLACK,True,0,0.0020000006770715117,BLACK,True,CORRECT,0.627284400001372,627.284400001372
2,20260325_120617,D,J,False,AUTOMATION1,4,228,1528,fixed_delta,0.04010600706829564,0.013286393218712247,,,,,0.5427466085494038,1954,1646,1,0.95,BLACK,BLACK,True,0,0.0013999997463542968,BLACK,True,CORRECT,0.724154899999121,724.154899999121
2,20260325_120617,D,J,False,AUTOMATION1,4,229,1529,fixed_delta,0.04010600706829564,0.013286393218712247,,,,,0.5317182621095036,1914,1686,1,0.95,BLACK,BLACK,True,0,0.002099999619531445,BLACK,True,CORRECT,0.5324142000008578,532.4142000008578
2,20260325_120617,D,J,False,AUTOMATION1,4,230,1530,fixed_delta,0.04010600706829564,0.013286393218712247,,,,,0.5516547482763128,1986,1614,1,0.95,BLACK,BLACK,True,0,0.0013000008038943633,BLACK,True,CORRECT,0.5804972000005364,580.4972000005364
2,20260325_120617,D,J,False,AUTOMATION1,4,231,1531,fixed_delta,0.04010600706829564,0.013286393218712247,,,,,0.4694171466863426,1690,1910,1,0.95,WHITE,WHITE,True,0,0.0015000005078036338,WHITE,True,CORRECT,0.5764034000003448,576.4034000003448
2,20260325_120617,D,J,False,AUTOMATION1,4,232,1532,fixed_delta,0.04010600706829564,0.013286393218712247,,,,,0.5461318574897915,1966,1634,1,0.95,BLACK,BLACK,True,0,0.0018999999156221747,BLACK,True,CORRECT,0.5509238000013283,550.9238000013283
2,20260325_120617,D,J,False,AUTOMATION1,4,233,1533,fixed_delta,0.04010600706829564,0.013286393218712247,,,,,0.4389450648947779,1580,2020,1,0.95,WHITE,WHITE,True,0,0.0016000012692529708,WHITE,True,CORRECT,0.5488242999999784,548.8242999999784
2,20260325_120617,D,J,False,AUTOMATION1,4,234,1534,fixed_delta,0.04010600706829564,0.013286393218712247,,,,,0.45528718450307953,1639,1961,1,0.95,WHITE,WHITE,True,0,0.0016999983927235007,WHITE,True,CORRECT,0.5705207999999402,570.5207999999402
2,20260325_120617,D,J,False,AUTOMATION1,4,235,1535,fixed_delta,0.04010600706829564,0.013286393218712247,,,,,0.45726290768914407,1646,1954,1,0.95,WHITE,BLACK,False,0,0.0012999989849049598,WHITE,True,CORRECT,0.9551718000002438,955.1718000002438
2,20260325_120617,D,J,False,AUTOMATION1,4,236,1536,fixed_delta,0.04010600706829564,0.013286393218712247,,,,,0.47999946221857204,1728,1872,1,0.95,WHITE,WHITE,True,0,0.0018000009731622413,WHITE,True,CORRECT,0.5777637000010145,577.7637000010145
2,20260325_120617,D,J,False,AUTOMATION1,4,237,1537,fixed_delta,0.04010600706829564,0.013286393218712247,,,,,0.45712014542180485,1646,1954,1,0.95,WHITE,WHITE,True,0,0.0014000015653437003,WHITE,True,CORRECT,0.4867007000011654,486.7007000011654
2,20260325_120617,D,J,False,AUTOMATION1,4,238,1538,fixed_delta,0.04010600706829564,0.013286393218712247,,,,,0.45459187196247786,1637,1963,1,0.95,WHITE,WHITE,True,0,0.0017000002117129043,WHITE,True,CORRECT,0.5098854999996547,509.8854999996547
2,20260325_120617,D,J,False,AUTOMATION1,4,239,1539,fixed_delta,0.04010600706829564,0.013286393218712247,,,,,0.5216606708274356,1878,1722,1,0.95,BLACK,WHITE,False,0,0.0013999997463542968,BLACK,True,CORRECT,0.5629933000000165,562.9933000000165
2,20260325_120617,D,J,False,AUTOMATION1,4,240,1540,fixed_delta,0.04010600706829564,0.013286393218712247,,,,,0.5441521260421788,1959,1641,1,0.95,BLACK,BLACK,True,0,0.0018000009731622413,WHITE,False,INCORRECT,0.5152955000012298,515.2955000012298
2,20260325_120617,D,J,False,AUTOMATION1,4,241,1541,fixed_delta,0.04010600706829564,0.013286393218712247,,,,,0.4340674004047653,1563,2037,1,0.95,WHITE,WHITE,True,0,0.0015000005078036338,WHITE,True,CORRECT,0.4817399999992631,481.7399999992631
2,20260325_120617,D,J,False,AUTOMATION1,4,242,1542,fixed_delta,0.04010600706829564,0.013286393218712247,,,,,0.5721893823324796,2060,1540,1,0.95,BLACK,BLACK,True,0,0.0015999994502635673,WHITE,False,INCORRECT,0.7159771999995428,715.9771999995428
2,20260325_120617,D,J,False,AUTOMATION1,4,243,1543,fixed_delta,0.04010600706829564,0.013286393218712247,,,,,0.4641655930171618,1671,1929,1,0.95,WHITE,WHITE,True,0,0.0013999997463542968,WHITE,True,CORRECT,0.5497197999993659,549.7197999993659
2,20260325_120617,D,J,False,AUTOMATION1,4,244,1544,fixed_delta,0.04010600706829564,0.013286393218712247,,,,,0.5297742449883475,1907,1693,1,0.95,BLACK,BLACK,True,0,0.0015000005078036338,BLACK,True,CORRECT,0.6213908999998239,621.3908999998239
2,20260325_120617,D,J,False,AUTOMATION1,4,245,1545,fixed_delta,0.04010600706829564,0.013286393218712247,,,,,0.5127385811745035,1846,1754,1,0.95,BLACK,BLACK,True,0,0.0012999989849049598,WHITE,False,INCORRECT,1.929573999999775,1929.573999999775
2,20260325_120617,D,J,False,AUTOMATION1,4,246,1546,fixed_delta,0.04010600706829564,0.013286393218712247,,,,,0.47025669807605036,1693,1907,1,0.95,WHITE,WHITE,True,0,0.0014999986888142303,WHITE,True,CORRECT,2.892798799999582,2892.798799999582
2,20260325_120617,D,J,False,AUTOMATION1,4,247,1547,fixed_delta,0.04010600706829564,0.013286393218712247,,,,,0.45270610621103957,1630,1970,1,0.95,WHITE,WHITE,True,0,0.0013999997463542968,WHITE,True,CORRECT,0.6233965999999782,623.3965999999782
2,20260325_120617,D,J,False,AUTOMATION1,4,248,1548,fixed_delta,0.04010600706829564,0.013286393218712247,,,,,0.46435414694644966,1672,1928,1,0.95,WHITE,WHITE,True,0,0.0016000012692529708,WHITE,True,CORRECT,0.4992182000005414,499.2182000005414
2,20260325_120617,D,J,False,AUTOMATION1,4,249,1549,fixed_delta,0.04010600706829564,0.013286393218712247,,,,,0.5459248143695601,1965,1635,1,0.95,BLACK,BLACK,True,0,0.0015999994502635673,BLACK,True,CORRECT,0.608604799999739,608.604799999739
2,20260325_120617,D,J,False,AUTOMATION1,4,250,1550,fixed_delta,0.04010600706829564,0.013286393218712247,,,,,0.467162896814331,1682,1918,1,0.95,WHITE,WHITE,True,0,0.0014999986888142303,WHITE,True,CORRECT,0.46907649999957357,469.07649999957357
2,20260325_120617,D,J,False,AUTOMATION1,4,251,1551,fixed_delta,0.04010600706829564,0.013286393218712247,,,,,0.4545541858405182,1636,1964,1,0.95,WHITE,WHITE,True,0,0.0013999997463542968,WHITE,True,CORRECT,0.49100299999918207,491.00299999918207
2,20260325_120617,D,J,False,AUTOMATION1,4,252,1552,fixed_delta,0.04010600706829564,0.013286393218712247,,,,,0.4541780615691126,1635,1965,1,0.95,WHITE,WHITE,True,0,0.0017000002117129043,WHITE,True,CORRECT,0.4012330000005022,401.2330000005022
2,20260325_120617,D,J,False,AUTOMATION1,4,253,1553,fixed_delta,0.04010600706829564,0.013286393218712247,,,,,0.55755892226876,2007,1593,1,0.95,BLACK,BLACK,True,0,0.0013000008038943633,BLACK,True,CORRECT,0.7546665999998368,754.6665999998368
2,20260325_120617,D,J,False,AUTOMATION1,4,254,1554,fixed_delta,0.04010600706829564,0.013286393218712247,,,,,0.45681631105253884,1645,1955,1,0.95,WHITE,BLACK,False,0,0.0017000002117129043,BLACK,False,INCORRECT,0.4421516000002157,442.1516000002157
2,20260325_120617,D,J,False,AUTOMATION1,4,255,1555,fixed_delta,0.04010600706829564,0.013286393218712247,,,,,0.5484886065582434,1975,1625,1,0.95,BLACK,BLACK,True,0,0.0015000005078036338,BLACK,True,CORRECT,0.6662522999995417,666.2522999995417
2,20260325_120617,D,J,False,AUTOMATION1,4,256,1556,fixed_delta,0.04010600706829564,0.013286393218712247,,,,,0.4446385525231674,1601,1999,1,0.95,WHITE,WHITE,True,0,0.0013999997463542968,WHITE,True,CORRECT,0.7698077999993984,769.8077999993984
2,20260325_120617,D,J,False,AUTOMATION1,4,257,1557,fixed_delta,0.04010600706829564,0.013286393218712247,,,,,0.45251743904211594,1629,1971,1,0.95,WHITE,WHITE,True,0,0.0013999997463542968,WHITE,True,CORRECT,1.5329333999998198,1532.9333999998198
2,20260325_120617,D,J,False,AUTOMATION1,4,258,1558,fixed_delta,0.04010600706829564,0.013286393218712247,,,,,0.5249483423521624,1890,1710,1,0.95,BLACK,BLACK,True,0,0.0012999989849049598,BLACK,True,CORRECT,0.6640876999990724,664.0876999990724
2,20260325_120617,D,J,False,AUTOMATION1,4,259,1559,fixed_delta,0.04010600706829564,0.013286393218712247,,,,,0.5419814105018897,1951,1649,1,0.95,BLACK,BLACK,True,0,0.0014999986888142303,BLACK,True,CORRECT,0.5340262999998231,534.0262999998231
2,20260325_120617,D,J,False,AUTOMATION1,4,260,1560,fixed_delta,0.04010600706829564,0.013286393218712247,,,,,0.46999532981657066,1692,1908,1,0.95,WHITE,WHITE,True,0,0.0016000012692529708,WHITE,True,CORRECT,0.6068584000004194,606.8584000004194
2,20260325_120617,D,J,False,AUTOMATION1,4,261,1561,fixed_delta,0.04010600706829564,0.013286393218712247,,,,,0.4769195745771648,1717,1883,1,0.95,WHITE,WHITE,True,0,0.0015000005078036338,WHITE,True,CORRECT,0.5794698999998218,579.4698999998218
2,20260325_120617,D,J,False,AUTOMATION1,4,262,1562,fixed_delta,0.04010600706829564,0.013286393218712247,,,,,0.5366090850083172,1932,1668,1,0.95,BLACK,BLACK,True,0,0.0015999994502635673,BLACK,True,CORRECT,0.6091971999994712,609.1971999994712
2,20260325_120617,D,J,False,AUTOMATION1,4,263,1563,fixed_delta,0.04010600706829564,0.013286393218712247,,,,,0.4553167366289579,1639,1961,1,0.95,WHITE,WHITE,True,0,0.0017000002117129043,WHITE,True,CORRECT,1.9992770999997447,1999.2770999997447
2,20260325_120617,D,J,False,AUTOMATION1,4,264,1564,fixed_delta,0.04010600706829564,0.013286393218712247,,,,,0.5320225268184476,1915,1685,1,0.95,BLACK,BLACK,True,0,0.0014999986888142303,BLACK,True,CORRECT,0.6410127999988617,641.0127999988617
2,20260325_120617,D,J,False,AUTOMATION1,4,265,1565,fixed_delta,0.04010600706829564,0.013286393218712247,,,,,0.4555624691724476,1640,1960,1,0.95,WHITE,WHITE,True,0,0.0015000005078036338,WHITE,True,CORRECT,1.2007792000003974,1200.7792000003974
2,20260325_120617,D,J,False,AUTOMATION1,4,266,1566,fixed_delta,0.04010600706829564,0.013286393218712247,,,,,0.5731512271358039,2063,1537,1,0.95,BLACK,BLACK,True,0,0.0015000005078036338,BLACK,True,CORRECT,0.5615075999994588,561.5075999994588
2,20260325_120617,D,J,False,AUTOMATION1,4,267,1567,fixed_delta,0.04010600706829564,0.013286393218712247,,,,,0.5347422658528936,1925,1675,1,0.95,BLACK,BLACK,True,0,0.0017000002117129043,BLACK,True,CORRECT,1.6862866999999824,1686.2866999999824
2,20260325_120617,D,J,False,AUTOMATION1,4,268,1568,fixed_delta,0.04010600706829564,0.013286393218712247,,,,,0.5276325867433564,1899,1701,1,0.95,BLACK,BLACK,True,0,0.002300001142430119,BLACK,True,CORRECT,0.4693158999998559,469.3158999998559
2,20260325_120617,D,J,False,AUTOMATION1,4,269,1569,fixed_delta,0.04010600706829564,0.013286393218712247,,,,,0.45523111105748865,1639,1961,1,0.95,WHITE,WHITE,True,0,0.0013999997463542968,WHITE,True,CORRECT,0.46124439999948663,461.24439999948663
2,20260325_120617,D,J,False,AUTOMATION1,4,270,1570,fixed_delta,0.04010600706829564,0.013286393218712247,,,,,0.4524040966195125,1629,1971,1,0.95,WHITE,WHITE,True,0,0.0017000002117129043,WHITE,True,CORRECT,0.555970299999899,555.970299999899
2,20260325_120617,D,J,False,AUTOMATION1,4,271,1571,fixed_delta,0.04010600706829564,0.013286393218712247,,,,,0.4492594676755791,1617,1983,1,0.95,WHITE,WHITE,True,0,0.0020000006770715117,WHITE,True,CORRECT,0.6393545000009908,639.3545000009908
2,20260325_120617,D,J,False,AUTOMATION1,4,272,1572,fixed_delta,0.04010600706829564,0.013286393218712247,,,,,0.5410669313562474,1948,1652,1,0.95,BLACK,BLACK,True,0,0.0013999997463542968,BLACK,True,CORRECT,0.5142790999998397,514.2790999998397
2,20260325_120617,D,J,False,AUTOMATION1,4,273,1573,fixed_delta,0.04010600706829564,0.013286393218712247,,,,,0.46386035746452725,1670,1930,1,0.95,WHITE,WHITE,True,0,0.0018999999156221747,WHITE,True,CORRECT,1.0403774999995221,1040.3774999995221
2,20260325_120617,D,J,False,AUTOMATION1,4,274,1574,fixed_delta,0.04010600706829564,0.013286393218712247,,,,,0.4435700647577735,1597,2003,1,0.95,WHITE,WHITE,True,0,0.0017999991541728377,WHITE,True,CORRECT,0.5060357999991538,506.0357999991538
2,20260325_120617,D,J,False,AUTOMATION1,4,275,1575,fixed_delta,0.04010600706829564,0.013286393218712247,,,,,0.45939033555051967,1654,1946,1,0.95,WHITE,WHITE,True,0,0.0015000005078036338,WHITE,True,CORRECT,0.5037737999991805,503.7737999991805
2,20260325_120617,D,J,False,AUTOMATION1,4,276,1576,fixed_delta,0.04010600706829564,0.013286393218712247,,,,,0.5461601129274993,1966,1634,1,0.95,BLACK,BLACK,True,0,0.0017999991541728377,BLACK,True,CORRECT,0.5779364999998506,577.9364999998506
2,20260325_120617,D,J,False,AUTOMATION1,4,277,1577,fixed_delta,0.04010600706829564,0.013286393218712247,,,,,0.4500699279082668,1620,1980,1,0.95,WHITE,WHITE,True,0,0.0017999991541728377,WHITE,True,CORRECT,0.48758539999835193,487.58539999835193
2,20260325_120617,D,J,False,AUTOMATION1,4,278,1578,fixed_delta,0.04010600706829564,0.013286393218712247,,,,,0.4687564572131171,1688,1912,1,0.95,WHITE,WHITE,True,0,0.0015000005078036338,BLACK,False,INCORRECT,0.6465406000006624,646.5406000006624
2,20260325_120617,D,J,False,AUTOMATION1,4,279,1579,fixed_delta,0.04010600706829564,0.013286393218712247,,,,,0.4443408308835302,1600,2000,1,0.95,WHITE,WHITE,True,0,0.0017000002117129043,WHITE,True,CORRECT,0.41247910000129195,412.47910000129195
2,20260325_120617,D,J,False,AUTOMATION1,4,280,1580,fixed_delta,0.04010600706829564,0.013286393218712247,,,,,0.5291725277809903,1905,1695,1,0.95,BLACK,BLACK,True,0,0.0017000002117129043,BLACK,True,CORRECT,0.5655392999997275,565.5392999997275
2,20260325_120617,D,J,False,AUTOMATION1,4,281,1581,fixed_delta,0.04010600706829564,0.013286393218712247,,,,,0.48034457610334835,1729,1871,1,0.95,WHITE,WHITE,True,0,0.0015000005078036338,WHITE,True,CORRECT,0.4956631000004563,495.6631000004563
2,20260325_120617,D,J,False,AUTOMATION1,4,282,1582,fixed_delta,0.04010600706829564,0.013286393218712247,,,,,0.5370940840453524,1934,1666,1,0.95,BLACK,WHITE,False,0,0.0013000008038943633,WHITE,False,INCORRECT,0.44477139999980864,444.77139999980864
2,20260325_120617,D,J,False,AUTOMATION1,4,283,1583,fixed_delta,0.04010600706829564,0.013286393218712247,,,,,0.5351340899298445,1926,1674,1,0.95,BLACK,BLACK,True,0,0.0015000005078036338,BLACK,True,CORRECT,1.3151562000002741,1315.156200000274
2,20260325_120617,D,J,False,AUTOMATION1,4,284,1584,fixed_delta,0.04010600706829564,0.013286393218712247,,,,,0.48703312169717367,1753,1847,1,0.95,WHITE,WHITE,True,0,0.0013000008038943633,WHITE,True,CORRECT,0.5787814000013896,578.7814000013896
2,20260325_120617,D,J,False,AUTOMATION1,4,285,1585,fixed_delta,0.04010600706829564,0.013286393218712247,,,,,0.48399390443671747,1742,1858,1,0.95,WHITE,WHITE,True,0,0.0015000005078036338,WHITE,True,CORRECT,0.7504927000009047,750.4927000009047
2,20260325_120617,D,J,False,AUTOMATION1,4,286,1586,fixed_delta,0.04010600706829564,0.013286393218712247,,,,,0.5313744272170947,1913,1687,1,0.95,BLACK,BLACK,True,0,0.0017000002117129043,WHITE,False,INCORRECT,1.11629830000129,1116.29830000129
2,20260325_120617,D,J,False,AUTOMATION1,4,287,1587,fixed_delta,0.04010600706829564,0.013286393218712247,,,,,0.4678457236813591,1684,1916,1,0.95,WHITE,WHITE,True,0,0.0013000008038943633,WHITE,True,CORRECT,0.5572890000003099,557.2890000003099
2,20260325_120617,D,J,False,AUTOMATION1,4,288,1588,fixed_delta,0.04010600706829564,0.013286393218712247,,,,,0.5276558207567568,1900,1700,1,0.95,BLACK,BLACK,True,0,0.0013999997463542968,BLACK,True,CORRECT,0.8859778999994887,885.9778999994887
2,20260325_120617,D,J,False,AUTOMATION1,4,289,1589,fixed_delta,0.04010600706829564,0.013286393218712247,,,,,0.5415365696222069,1950,1650,1,0.95,BLACK,WHITE,False,0,0.0015000005078036338,BLACK,True,CORRECT,1.219994700000825,1219.994700000825
2,20260325_120617,D,J,False,AUTOMATION1,4,290,1590,fixed_delta,0.04010600706829564,0.013286393218712247,,,,,0.5466415642972197,1968,1632,1,0.95,BLACK,BLACK,True,0,0.0017000002117129043,WHITE,False,INCORRECT,1.4203168000003643,1420.3168000003643
2,20260325_120617,D,J,False,AUTOMATION1,4,291,1591,fixed_delta,0.04010600706829564,0.013286393218712247,,,,,0.5355656101147838,1928,1672,1,0.95,BLACK,BLACK,True,0,0.0015999994502635673,BLACK,True,CORRECT,1.385297000000719,1385.297000000719
2,20260325_120617,D,J,False,AUTOMATION1,4,292,1592,fixed_delta,0.04010600706829564,0.013286393218712247,,,,,0.45609988111258803,1642,1958,1,0.95,WHITE,WHITE,True,0,0.0015000005078036338,WHITE,True,CORRECT,0.6131621000004088,613.1621000004088
2,20260325_120617,D,J,False,AUTOMATION1,4,293,1593,fixed_delta,0.04010600706829564,0.013286393218712247,,,,,0.546008597165006,1966,1634,1,0.95,BLACK,BLACK,True,0,0.0015999994502635673,BLACK,True,CORRECT,0.5759278000004997,575.9278000004997
2,20260325_120617,D,J,False,AUTOMATION1,4,294,1594,fixed_delta,0.04010600706829564,0.013286393218712247,,,,,0.44889987644188645,1616,1984,1,0.95,WHITE,WHITE,True,0,0.0013999997463542968,WHITE,True,CORRECT,0.5600819999999658,560.0819999999658
2,20260325_120617,D,J,False,AUTOMATION1,4,295,1595,fixed_delta,0.04010600706829564,0.013286393218712247,,,,,0.533624542904139,1921,1679,1,0.95,BLACK,BLACK,True,0,0.0018999999156221747,BLACK,True,CORRECT,0.4531382000004669,453.1382000004669
2,20260325_120617,D,J,False,AUTOMATION1,4,296,1596,fixed_delta,0.04010600706829564,0.013286393218712247,,,,,0.4493201003581706,1618,1982,1,0.95,WHITE,WHITE,True,0,0.0018000009731622413,WHITE,True,CORRECT,0.550361100000373,550.361100000373
2,20260325_120617,D,J,False,AUTOMATION1,4,297,1597,fixed_delta,0.04010600706829564,0.013286393218712247,,,,,0.46716248070498195,1682,1918,1,0.95,WHITE,WHITE,True,0,0.0013999997463542968,WHITE,True,CORRECT,0.6991849999994884,699.1849999994884
2,20260325_120617,D,J,False,AUTOMATION1,4,298,1598,fixed_delta,0.04010600706829564,0.013286393218712247,,,,,0.46773576939383893,1684,1916,1,0.95,WHITE,WHITE,True,0,0.0014999986888142303,WHITE,True,CORRECT,0.9349357999999484,934.9357999999484
2,20260325_120617,D,J,False,AUTOMATION1,4,299,1599,fixed_delta,0.04010600706829564,0.013286393218712247,,,,,0.5351131120443275,1926,1674,1,0.95,BLACK,BLACK,True,0,0.0013999997463542968,BLACK,True,CORRECT,0.6207314999992377,620.7314999992377
2,20260325_120617,D,J,False,AUTOMATION1,4,300,1600,fixed_delta,0.04010600706829564,0.013286393218712247,,,,,0.4689930467958091,1688,1912,1,0.95,WHITE,WHITE,True,0,0.0013000008038943633,WHITE,True,CORRECT,1.3818585999997595,1381.8585999997595
2,20260325_120617,D,J,False,AUTOMATION1,4,301,1601,fixed_delta,0.04010600706829564,0.013286393218712247,,,,,0.5473520116415447,1970,1630,1,0.95,BLACK,BLACK,True,0,0.0015000005078036338,BLACK,True,CORRECT,0.8227540000007139,822.7540000007139
2,20260325_120617,D,J,False,AUTOMATION1,4,302,1602,fixed_delta,0.04010600706829564,0.013286393218712247,,,,,0.4623723726803667,1665,1935,1,0.95,WHITE,WHITE,True,0,0.0018000009731622413,WHITE,True,CORRECT,1.1581843000003573,1158.1843000003573
2,20260325_120617,D,J,False,AUTOMATION1,4,303,1603,fixed_delta,0.04010600706829564,0.013286393218712247,,,,,0.5442412536974006,1959,1641,1,0.95,BLACK,BLACK,True,0,0.0017000002117129043,BLACK,True,CORRECT,0.8735553000005893,873.5553000005893
2,20260325_120617,D,J,False,AUTOMATION1,4,304,1604,fixed_delta,0.04010600706829564,0.013286393218712247,,,,,0.47018687961480116,1693,1907,1,0.95,WHITE,WHITE,True,0,0.0018000009731622413,WHITE,True,CORRECT,0.86361720000059,863.61720000059
2,20260325_120617,D,J,False,AUTOMATION1,4,305,1605,fixed_delta,0.04010600706829564,0.013286393218712247,,,,,0.4696919595749794,1691,1909,1,0.95,WHITE,WHITE,True,0,0.0015000005078036338,WHITE,True,CORRECT,0.876160499999969,876.160499999969
2,20260325_120617,D,J,False,AUTOMATION1,4,306,1606,fixed_delta,0.04010600706829564,0.013286393218712247,,,,,0.44822488482792816,1614,1986,1,0.95,WHITE,WHITE,True,0,0.0015999994502635673,WHITE,True,CORRECT,0.43368699999882665,433.68699999882665
2,20260325_120617,D,J,False,AUTOMATION1,4,307,1607,fixed_delta,0.04010600706829564,0.013286393218712247,,,,,0.5551437924629066,1999,1601,1,0.95,BLACK,BLACK,True,0,0.0016000012692529708,BLACK,True,CORRECT,0.5371475000010832,537.1475000010832
2,20260325_120617,D,J,False,AUTOMATION1,4,308,1608,fixed_delta,0.04010600706829564,0.013286393218712247,,,,,0.5531697584181737,1991,1609,1,0.95,BLACK,BLACK,True,0,0.0017000002117129043,BLACK,True,CORRECT,0.4434173000008741,443.4173000008741
2,20260325_120617,D,J,False,AUTOMATION1,4,309,1609,fixed_delta,0.04010600706829564,0.013286393218712247,,,,,0.45749773643256575,1647,1953,1,0.95,WHITE,WHITE,True,0,0.0015000005078036338,WHITE,True,CORRECT,0.5344920000006823,534.4920000006823
2,20260325_120617,D,J,False,AUTOMATION1,4,310,1610,fixed_delta,0.04010600706829564,0.013286393218712247,,,,,0.4624646297264906,1665,1935,1,0.95,WHITE,WHITE,True,0,0.002099999619531445,WHITE,True,CORRECT,0.7329325999999128,732.9325999999128
2,20260325_120617,D,J,False,AUTOMATION1,4,311,1611,fixed_delta,0.04010600706829564,0.013286393218712247,,,,,0.5298326803433147,1907,1693,1,0.95,BLACK,BLACK,True,0,0.0018000009731622413,BLACK,True,CORRECT,0.6234454000004916,623.4454000004916
2,20260325_120617,D,J,False,AUTOMATION1,4,312,1612,fixed_delta,0.04010600706829564,0.013286393218712247,,,,,0.5332507715777941,1920,1680,1,0.95,BLACK,BLACK,True,0,0.0015999994502635673,BLACK,True,CORRECT,0.45953630000076373,459.53630000076373
2,20260325_120617,D,J,False,AUTOMATION1,4,313,1613,fixed_delta,0.04010600706829564,0.013286393218712247,,,,,0.5292800758623297,1905,1695,1,0.95,BLACK,BLACK,True,0,0.0017000002117129043,BLACK,True,CORRECT,0.48220129999936034,482.20129999936034
2,20260325_120617,D,J,False,AUTOMATION1,4,314,1614,fixed_delta,0.04010600706829564,0.013286393218712247,,,,,0.5443735595866045,1960,1640,1,0.95,BLACK,BLACK,True,0,0.0014999986888142303,WHITE,False,INCORRECT,0.8008098999998765,800.8098999998765
2,20260325_120617,D,J,False,AUTOMATION1,4,315,1615,fixed_delta,0.04010600706829564,0.013286393218712247,,,,,0.550475520310292,1982,1618,1,0.95,BLACK,BLACK,True,0,0.0014999986888142303,BLACK,True,CORRECT,1.4811768999989,1481.1768999989
2,20260325_120617,D,J,False,AUTOMATION1,4,316,1616,fixed_delta,0.04010600706829564,0.013286393218712247,,,,,0.553054429044894,1991,1609,1,0.95,BLACK,BLACK,True,0,0.0017000002117129043,BLACK,True,CORRECT,0.4852956000013364,485.2956000013364
2,20260325_120617,D,J,False,AUTOMATION1,4,317,1617,fixed_delta,0.04010600706829564,0.013286393218712247,,,,,0.5429868794950509,1955,1645,1,0.95,BLACK,BLACK,True,0,0.0014000015653437003,BLACK,True,CORRECT,0.49031900000045425,490.31900000045425
2,20260325_120617,D,J,False,AUTOMATION1,4,318,1618,fixed_delta,0.04010600706829564,0.013286393218712247,,,,,0.537485675347943,1935,1665,1,0.95,BLACK,BLACK,True,0,0.0015999994502635673,WHITE,False,INCORRECT,0.9005818999994517,900.5818999994517
2,20260325_120617,D,J,False,AUTOMATION1,4,319,1619,fixed_delta,0.04010600706829564,0.013286393218712247,,,,,0.4850944756854707,1746,1854,1,0.95,WHITE,WHITE,True,0,0.0015999994502635673,WHITE,True,CORRECT,0.6087131999993289,608.7131999993289
2,20260325_120617,D,J,False,AUTOMATION1,4,320,1620,fixed_delta,0.04010600706829564,0.013286393218712247,,,,,0.5572163092448461,2006,1594,1,0.95,BLACK,WHITE,False,0,0.0013999997463542968,BLACK,True,CORRECT,0.7675092999998014,767.5092999998014
2,20260325_120617,D,J,False,AUTOMATION1,4,321,1621,fixed_delta,0.04010600706829564,0.013286393218712247,,,,,0.4664996252517448,1679,1921,1,0.95,WHITE,WHITE,True,0,0.0015999994502635673,WHITE,True,CORRECT,0.6623875999994198,662.3875999994198
2,20260325_120617,D,J,False,AUTOMATION1,4,322,1622,fixed_delta,0.04010600706829564,0.013286393218712247,,,,,0.4415484744397849,1590,2010,1,0.95,WHITE,WHITE,True,0,0.0013999997463542968,WHITE,True,CORRECT,0.4902366999995138,490.2366999995138
2,20260325_120617,D,J,False,AUTOMATION1,4,323,1623,fixed_delta,0.04010600706829564,0.013286393218712247,,,,,0.4543220760796023,1636,1964,1,0.95,WHITE,WHITE,True,0,0.0013999997463542968,WHITE,True,CORRECT,0.3763152999999875,376.3152999999875
2,20260325_120617,D,J,False,AUTOMATION1,4,324,1624,fixed_delta,0.04010600706829564,0.013286393218712247,,,,,0.4447616740062222,1601,1999,1,0.95,WHITE,WHITE,True,0,0.0015999994502635673,WHITE,True,CORRECT,0.3998374999991938,399.8374999991938
2,20260325_120617,D,J,False,AUTOMATION1,4,325,1625,fixed_delta,0.04010600706829564,0.013286393218712247,,,,,0.5581060150324793,2009,1591,1,0.95,BLACK,BLACK,True,0,0.0013999997463542968,BLACK,True,CORRECT,0.5789039999999659,578.9039999999659
2,20260325_120617,D,J,False,AUTOMATION1,4,326,1626,fixed_delta,0.04010600706829564,0.013286393218712247,,,,,0.5278665230763947,1900,1700,1,0.95,BLACK,BLACK,True,0,0.0015000005078036338,BLACK,True,CORRECT,0.7719054000008327,771.9054000008327
2,20260325_120617,D,J,False,AUTOMATION1,4,327,1627,fixed_delta,0.04010600706829564,0.013286393218712247,,,,,0.46126480243053286,1661,1939,1,0.95,WHITE,BLACK,False,0,0.0017000002117129043,BLACK,False,INCORRECT,2.4168561000005866,2416.8561000005866
2,20260325_120617,D,J,False,AUTOMATION1,4,328,1628,fixed_delta,0.04010600706829564,0.013286393218712247,,,,,0.5547254672401538,1997,1603,1,0.95,BLACK,BLACK,True,0,0.0017000002117129043,BLACK,True,CORRECT,2.3462811000008514,2346.2811000008514
2,20260325_120617,D,J,False,AUTOMATION1,4,329,1629,fixed_delta,0.04010600706829564,0.013286393218712247,,,,,0.5695848445942636,2051,1549,1,0.95,BLACK,BLACK,True,0,0.0014999986888142303,BLACK,True,CORRECT,1.2403751000001648,1240.3751000001648
2,20260325_120617,D,J,False,AUTOMATION1,4,330,1630,fixed_delta,0.04010600706829564,0.013286393218712247,,,,,0.5403709881566992,1945,1655,1,0.95,BLACK,BLACK,True,0,0.0017000002117129043,BLACK,True,CORRECT,0.5274840000001859,527.4840000001859
2,20260325_120617,D,J,False,AUTOMATION1,4,331,1631,fixed_delta,0.04010600706829564,0.013286393218712247,,,,,0.47808303071852426,1721,1879,1,0.95,WHITE,WHITE,True,0,0.0017000002117129043,WHITE,True,CORRECT,0.5633367999998882,563.3367999998882
2,20260325_120617,D,J,False,AUTOMATION1,4,332,1632,fixed_delta,0.04010600706829564,0.013286393218712247,,,,,0.4785041162940002,1723,1877,1,0.95,WHITE,WHITE,True,0,0.0017000002117129043,WHITE,True,CORRECT,0.4295330000004469,429.5330000004469
2,20260325_120617,D,J,False,AUTOMATION1,4,333,1633,fixed_delta,0.04010600706829564,0.013286393218712247,,,,,0.4583637159816019,1650,1950,1,0.95,WHITE,WHITE,True,0,0.0015999994502635673,WHITE,True,CORRECT,0.46193549999952666,461.93549999952666
2,20260325_120617,D,J,False,AUTOMATION1,4,334,1634,fixed_delta,0.04010600706829564,0.013286393218712247,,,,,0.5410759552755964,1948,1652,1,0.95,BLACK,BLACK,True,0,0.0014000015653437003,BLACK,True,CORRECT,0.7841238000000885,784.1238000000885
2,20260325_120617,D,J,False,AUTOMATION1,4,335,1635,fixed_delta,0.04010600706829564,0.013286393218712247,,,,,0.5473017413148924,1970,1630,1,0.95,BLACK,BLACK,True,0,0.0014000015653437003,BLACK,True,CORRECT,1.8497564000008424,1849.7564000008424
2,20260325_120617,D,J,False,AUTOMATION1,4,336,1636,fixed_delta,0.04010600706829564,0.013286393218712247,,,,,0.45336011873105564,1632,1968,1,0.95,WHITE,BLACK,False,0,0.0013999997463542968,WHITE,True,CORRECT,1.3112787999998545,1311.2787999998545
2,20260325_120617,D,J,False,AUTOMATION1,4,337,1637,fixed_delta,0.04010600706829564,0.013286393218712247,,,,,0.46108666827035305,1660,1940,1,0.95,WHITE,WHITE,True,0,0.0017000002117129043,WHITE,True,CORRECT,0.48048089999974763,480.48089999974763
2,20260325_120617,D,J,False,AUTOMATION1,4,338,1638,fixed_delta,0.04010600706829564,0.013286393218712247,,,,,0.5373987722049299,1935,1665,1,0.95,BLACK,BLACK,True,0,0.0017000002117129043,BLACK,True,CORRECT,1.7794898000011017,1779.4898000011017
2,20260325_120617,D,J,False,AUTOMATION1,4,339,1639,fixed_delta,0.04010600706829564,0.013286393218712247,,,,,0.466174267612506,1678,1922,1,0.95,WHITE,WHITE,True,0,0.0014000015653437003,WHITE,True,CORRECT,0.6502995000009832,650.2995000009832
2,20260325_120617,D,J,False,AUTOMATION1,4,340,1640,fixed_delta,0.04010600706829564,0.013286393218712247,,,,,0.4663682611489377,1679,1921,1,0.95,WHITE,WHITE,True,0,0.0013999997463542968,WHITE,True,CORRECT,0.8926940000001196,892.6940000001196
2,20260325_120617,D,J,False,AUTOMATION1,4,341,1641,fixed_delta,0.04010600706829564,0.013286393218712247,,,,,0.4658830441338638,1677,1923,1,0.95,WHITE,WHITE,True,0,0.0015000005078036338,WHITE,True,CORRECT,0.6082520999989356,608.2520999989356
2,20260325_120617,D,J,False,AUTOMATION1,4,342,1642,fixed_delta,0.04010600706829564,0.013286393218712247,,,,,0.44635626585934896,1607,1993,1,0.95,WHITE,WHITE,True,0,0.0014000015653437003,WHITE,True,CORRECT,0.5631433000016841,563.1433000016841
2,20260325_120617,D,J,False,AUTOMATION1,4,343,1643,fixed_delta,0.04010600706829564,0.013286393218712247,,,,,0.46243054714543214,1665,1935,1,0.95,WHITE,WHITE,True,0,0.0018000009731622413,WHITE,True,CORRECT,1.0353329999998095,1035.3329999998095
2,20260325_120617,D,J,False,AUTOMATION1,4,344,1644,fixed_delta,0.04010600706829564,0.013286393218712247,,,,,0.5476591934529198,1972,1628,1,0.95,BLACK,WHITE,False,0,0.0015000005078036338,BLACK,True,CORRECT,0.799783500000558,799.783500000558
2,20260325_120617,D,J,False,AUTOMATION1,4,345,1645,fixed_delta,0.04010600706829564,0.013286393218712247,,,,,0.4466358724723263,1608,1992,1,0.95,WHITE,WHITE,True,0,0.0017000002117129043,WHITE,True,CORRECT,0.5498219000000972,549.8219000000972
2,20260325_120617,D,J,False,AUTOMATION1,4,346,1646,fixed_delta,0.04010600706829564,0.013286393218712247,,,,,0.4376791209116975,1576,2024,1,0.95,WHITE,WHITE,True,0,0.0018999999156221747,WHITE,True,CORRECT,0.42998769999940123,429.98769999940123
2,20260325_120617,D,J,False,AUTOMATION1,4,347,1647,fixed_delta,0.04010600706829564,0.013286393218712247,,,,,0.5516581281051596,1986,1614,1,0.95,BLACK,BLACK,True,0,0.0013999997463542968,BLACK,True,CORRECT,0.4622063999995589,462.2063999995589
2,20260325_120617,D,J,False,AUTOMATION1,4,348,1648,fixed_delta,0.04010600706829564,0.013286393218712247,,,,,0.5224901591419491,1881,1719,1,0.95,BLACK,BLACK,True,0,0.0015000005078036338,BLACK,True,CORRECT,0.5404374000008829,540.4374000008829
2,20260325_120617,D,J,False,AUTOMATION1,4,349,1649,fixed_delta,0.04010600706829564,0.013286393218712247,,,,,0.5362268861320487,1930,1670,1,0.95,BLACK,BLACK,True,0,0.0020000006770715117,BLACK,True,CORRECT,1.5172515000012936,1517.2515000012936
2,20260325_120617,D,J,False,AUTOMATION1,4,350,1650,fixed_delta,0.04010600706829564,0.013286393218712247,,,,,0.5287459785349466,1903,1697,1,0.95,BLACK,BLACK,True,0,0.0017000002117129043,BLACK,True,CORRECT,0.7721856000007392,772.1856000007392
2,20260325_120617,D,J,False,AUTOMATION1,4,351,1651,fixed_delta,0.04010600706829564,0.013286393218712247,,,,,0.5002777777777778,1801,1799,1,0.95,BLACK,BLACK,True,0,0.0014999986888142303,WHITE,False,INCORRECT,0.8840467999998509,884.0467999998509
2,20260325_120617,D,J,False,AUTOMATION1,4,352,1652,fixed_delta,0.04010600706829564,0.013286393218712247,,,,,0.4434259960234069,1596,2004,1,0.95,WHITE,WHITE,True,0,0.0022999993234407157,WHITE,True,CORRECT,0.6676138000002538,667.6138000002538
2,20260325_120617,D,J,False,AUTOMATION1,4,353,1653,fixed_delta,0.04010600706829564,0.013286393218712247,,,,,0.5589391935628684,2012,1588,1,0.95,BLACK,BLACK,True,0,0.0015999994502635673,WHITE,False,INCORRECT,0.7700552999995125,770.0552999995125
2,20260325_120617,D,J,False,AUTOMATION1,4,354,1654,fixed_delta,0.04010600706829564,0.013286393218712247,,,,,0.5586129605809139,2011,1589,1,0.95,BLACK,BLACK,True,0,0.0018999999156221747,BLACK,True,CORRECT,0.7202058999992005,720.2058999992005
2,20260325_120617,D,J,False,AUTOMATION1,4,355,1655,fixed_delta,0.04010600706829564,0.013286393218712247,,,,,0.46293860101305295,1667,1933,1,0.95,WHITE,WHITE,True,0,0.0015999994502635673,WHITE,True,CORRECT,0.520657699998992,520.657699998992
2,20260325_120617,D,J,False,AUTOMATION1,4,356,1656,fixed_delta,0.04010600706829564,0.013286393218712247,,,,,0.46269436519076984,1666,1934,1,0.95,WHITE,WHITE,True,0,0.0017000002117129043,WHITE,True,CORRECT,0.5781336999989435,578.1336999989435
2,20260325_120617,D,J,False,AUTOMATION1,4,357,1657,fixed_delta,0.04010600706829564,0.013286393218712247,,,,,0.5490954235962406,1977,1623,1,0.95,BLACK,BLACK,True,0,0.0013999997463542968,BLACK,True,CORRECT,1.3633309999986523,1363.3309999986523
2,20260325_120617,D,J,False,AUTOMATION1,4,358,1658,fixed_delta,0.04010600706829564,0.013286393218712247,,,,,0.4764131397420723,1715,1885,1,0.95,WHITE,WHITE,True,0,0.0014999986888142303,WHITE,True,CORRECT,0.6509152999988146,650.9152999988146
2,20260325_120617,D,J,False,AUTOMATION1,4,359,1659,fixed_delta,0.04010600706829564,0.013286393218712247,,,,,0.4610682632338768,1660,1940,1,0.95,WHITE,WHITE,True,0,0.0014999986888142303,WHITE,True,CORRECT,1.6356794999992417,1635.6794999992417
2,20260325_120617,D,J,False,AUTOMATION1,4,360,1660,fixed_delta,0.04010600706829564,0.013286393218712247,,,,,0.456742689143907,1644,1956,1,0.95,WHITE,WHITE,True,0,0.0017000002117129043,WHITE,True,CORRECT,1.8893458000002283,1889.3458000002283
2,20260325_120617,D,J,False,AUTOMATION1,4,361,1661,fixed_delta,0.04010600706829564,0.013286393218712247,,,,,0.4631722156358285,1667,1933,1,0.95,WHITE,WHITE,True,0,0.0015000005078036338,WHITE,True,CORRECT,0.9484300999993138,948.4300999993138
2,20260325_120617,D,J,False,AUTOMATION1,4,362,1662,fixed_delta,0.04010600706829564,0.013286393218712247,,,,,0.45427026020085937,1635,1965,1,0.95,WHITE,WHITE,True,0,0.0017000002117129043,WHITE,True,CORRECT,0.5637956999999005,563.7956999999005
2,20260325_120617,D,J,False,AUTOMATION1,4,363,1663,fixed_delta,0.04010600706829564,0.013286393218712247,,,,,0.4346522022640136,1565,2035,1,0.95,WHITE,BLACK,False,0,0.0013999997463542968,BLACK,False,INCORRECT,0.5621953999998368,562.1953999998368
2,20260325_120617,D,J,False,AUTOMATION1,4,364,1664,fixed_delta,0.04010600706829564,0.013286393218712247,,,,,0.4591039460781842,1653,1947,1,0.95,WHITE,WHITE,True,0,0.0018999999156221747,WHITE,True,CORRECT,0.41341680000005,413.41680000005
2,20260325_120617,D,J,False,AUTOMATION1,4,365,1665,fixed_delta,0.04010600706829564,0.013286393218712247,,,,,0.4530528090976048,1631,1969,1,0.95,WHITE,WHITE,True,0,0.0018999999156221747,WHITE,True,CORRECT,0.46444789999986824,464.44789999986824
2,20260325_120617,D,J,False,AUTOMATION1,4,366,1666,fixed_delta,0.04010600706829564,0.013286393218712247,,,,,0.4668737361341398,1681,1919,1,0.95,WHITE,WHITE,True,0,0.0013999997463542968,WHITE,True,CORRECT,0.4015166999997746,401.5166999997746
2,20260325_120617,D,J,False,AUTOMATION1,4,367,1667,fixed_delta,0.04010600706829564,0.013286393218712247,,,,,0.5539009268888606,1994,1606,1,0.95,BLACK,WHITE,False,0,0.0012999989849049598,BLACK,True,CORRECT,1.9274273999999423,1927.4273999999423
2,20260325_120617,D,J,False,AUTOMATION1,4,368,1668,fixed_delta,0.04010600706829564,0.013286393218712247,,,,,0.4314449873484385,1553,2047,1,0.95,WHITE,WHITE,True,0,0.0015999994502635673,WHITE,True,CORRECT,0.5085975000001781,508.5975000001781
2,20260325_120617,D,J,False,AUTOMATION1,4,369,1669,fixed_delta,0.04010600706829564,0.013286393218712247,,,,,0.4750626339105508,1710,1890,1,0.95,WHITE,WHITE,True,0,0.0015000005078036338,WHITE,True,CORRECT,0.6477632999994967,647.7632999994967
2,20260325_120617,D,J,False,AUTOMATION1,4,370,1670,fixed_delta,0.04010600706829564,0.013286393218712247,,,,,0.5409162550973146,1947,1653,1,0.95,BLACK,BLACK,True,0,0.0013999997463542968,BLACK,True,CORRECT,0.6691327999997156,669.1327999997156
2,20260325_120617,D,J,False,AUTOMATION1,4,371,1671,fixed_delta,0.04010600706829564,0.013286393218712247,,,,,0.4702184820394136,1693,1907,1,0.95,WHITE,WHITE,True,0,0.0015000005078036338,WHITE,True,CORRECT,0.5481938000011723,548.1938000011723
2,20260325_120617,D,J,False,AUTOMATION1,4,372,1672,fixed_delta,0.04010600706829564,0.013286393218712247,,,,,0.5291285460593045,1905,1695,1,0.95,BLACK,BLACK,True,0,0.0018000009731622413,BLACK,True,CORRECT,0.5044912000012118,504.49120000121184
2,20260325_120617,D,J,False,AUTOMATION1,4,373,1673,fixed_delta,0.04010600706829564,0.013286393218712247,,,,,0.550081879819572,1980,1620,1,0.95,BLACK,BLACK,True,0,0.001999998858082108,WHITE,False,INCORRECT,0.6782509000004211,678.2509000004211
2,20260325_120617,D,J,False,AUTOMATION1,4,374,1674,fixed_delta,0.04010600706829564,0.013286393218712247,,,,,0.5387260006107749,1939,1661,1,0.95,BLACK,BLACK,True,0,0.0015000005078036338,BLACK,True,CORRECT,0.6147443000008934,614.7443000008934
2,20260325_120617,D,J,False,AUTOMATION1,4,375,1675,fixed_delta,0.04010600706829564,0.013286393218712247,,,,,0.4702471061874135,1693,1907,1,0.95,WHITE,WHITE,True,0,0.0015999994502635673,WHITE,True,CORRECT,0.6514762999995583,651.4762999995583
2,20260325_120617,D,J,False,AUTOMATION1,4,376,1676,fixed_delta,0.04010600706829564,0.013286393218712247,,,,,0.5448917251421961,1962,1638,1,0.95,BLACK,BLACK,True,0,0.0013999997463542968,BLACK,True,CORRECT,0.5560778999988543,556.0778999988543
2,20260325_120617,D,J,False,AUTOMATION1,4,377,1677,fixed_delta,0.04010600706829564,0.013286393218712247,,,,,0.5608829042456389,2019,1581,1,0.95,BLACK,BLACK,True,0,0.0017000002117129043,BLACK,True,CORRECT,0.5734355000004143,573.4355000004143
2,20260325_120617,D,J,False,AUTOMATION1,4,378,1678,fixed_delta,0.04010600706829564,0.013286393218712247,,,,,0.4621334462057466,1664,1936,1,0.95,WHITE,WHITE,True,0,0.0015999994502635673,WHITE,True,CORRECT,0.620737299999746,620.737299999746
2,20260325_120617,D,J,False,AUTOMATION1,4,379,1679,fixed_delta,0.04010600706829564,0.013286393218712247,,,,,0.5205976037216599,1874,1726,1,0.95,BLACK,BLACK,True,0,0.0017000002117129043,BLACK,True,CORRECT,0.6176434999997582,617.6434999997582
2,20260325_120617,D,J,False,AUTOMATION1,4,380,1680,fixed_delta,0.04010600706829564,0.013286393218712247,,,,,0.5376188175131263,1935,1665,1,0.95,BLACK,BLACK,True,0,0.0018000009731622413,BLACK,True,CORRECT,2.67716130000008,2677.16130000008
2,20260325_120617,D,J,False,AUTOMATION1,4,381,1681,fixed_delta,0.04010600706829564,0.013286393218712247,,,,,0.44888733523524527,1616,1984,1,0.95,WHITE,WHITE,True,0,0.0012999989849049598,WHITE,True,CORRECT,0.8992699999998877,899.2699999998877
2,20260325_120617,D,J,False,AUTOMATION1,4,382,1682,fixed_delta,0.04010600706829564,0.013286393218712247,,,,,0.43532788447521487,1567,2033,1,0.95,WHITE,WHITE,True,0,0.0013999997463542968,WHITE,True,CORRECT,0.6875786999989941,687.5786999989941
2,20260325_120617,D,J,False,AUTOMATION1,4,383,1683,fixed_delta,0.04010600706829564,0.013286393218712247,,,,,0.42423182419951283,1527,2073,1,0.95,WHITE,WHITE,True,0,0.0016999983927235007,WHITE,True,CORRECT,0.7197949999990669,719.7949999990669
2,20260325_120617,D,J,False,AUTOMATION1,4,384,1684,fixed_delta,0.04010600706829564,0.013286393218712247,,,,,0.5541137358018768,1995,1605,1,0.95,BLACK,BLACK,True,0,0.0013999997463542968,BLACK,True,CORRECT,0.8839663999988261,883.9663999988261
2,20260325_120617,D,J,False,AUTOMATION1,4,385,1685,fixed_delta,0.04010600706829564,0.013286393218712247,,,,,0.48220124223353567,1736,1864,1,0.95,WHITE,BLACK,False,0,0.0018000009731622413,WHITE,True,CORRECT,0.5497701000003872,549.7701000003872
2,20260325_120617,D,J,False,AUTOMATION1,4,386,1686,fixed_delta,0.04010600706829564,0.013286393218712247,,,,,0.44433268616089666,1600,2000,1,0.95,WHITE,WHITE,True,0,0.0013999997463542968,WHITE,True,CORRECT,0.4466259999990143,446.6259999990143
2,20260325_120617,D,J,False,AUTOMATION1,4,387,1687,fixed_delta,0.04010600706829564,0.013286393218712247,,,,,0.5263750284713166,1895,1705,1,0.95,BLACK,BLACK,True,0,0.0012000000424450263,BLACK,True,CORRECT,0.5519743000004382,551.9743000004382
2,20260325_120617,D,J,False,AUTOMATION1,4,388,1688,fixed_delta,0.04010600706829564,0.013286393218712247,,,,,0.569271960344585,2049,1551,1,0.95,BLACK,BLACK,True,0,0.0012999989849049598,BLACK,True,CORRECT,0.9564537999995082,956.4537999995082
2,20260325_120617,D,J,False,AUTOMATION1,4,389,1689,fixed_delta,0.04010600706829564,0.013286393218712247,,,,,0.5290613386926047,1905,1695,1,0.95,BLACK,BLACK,True,0,0.0013999997463542968,BLACK,True,CORRECT,0.4627602000000479,462.7602000000479
2,20260325_120617,D,J,False,AUTOMATION1,4,390,1690,fixed_delta,0.04010600706829564,0.013286393218712247,,,,,0.5545104384279985,1996,1604,1,0.95,BLACK,BLACK,True,0,0.0013999997463542968,BLACK,True,CORRECT,0.4603974000001472,460.3974000001472
2,20260325_120617,D,J,False,AUTOMATION1,4,391,1691,fixed_delta,0.04010600706829564,0.013286393218712247,,,,,0.46845092306506536,1686,1914,1,0.95,WHITE,WHITE,True,0,0.0020000006770715117,WHITE,True,CORRECT,0.48861630000101286,488.61630000101286
2,20260325_120617,D,J,False,AUTOMATION1,4,392,1692,fixed_delta,0.04010600706829564,0.013286393218712247,,,,,0.455990439073677,1642,1958,1,0.95,WHITE,WHITE,True,0,0.0013999997463542968,WHITE,True,CORRECT,0.46025340000051074,460.25340000051074
2,20260325_120617,D,J,False,AUTOMATION1,4,393,1693,fixed_delta,0.04010600706829564,0.013286393218712247,,,,,0.5286155653590243,1903,1697,1,0.95,BLACK,BLACK,True,0,0.0013999997463542968,BLACK,True,CORRECT,0.5346384999993461,534.6384999993461
2,20260325_120617,D,J,False,AUTOMATION1,4,394,1694,fixed_delta,0.04010600706829564,0.013286393218712247,,,,,0.5350079802579448,1926,1674,1,0.95,BLACK,BLACK,True,0,0.0013999997463542968,BLACK,True,CORRECT,0.9695350000001781,969.5350000001781
2,20260325_120617,D,J,False,AUTOMATION1,4,395,1695,fixed_delta,0.04010600706829564,0.013286393218712247,,,,,0.44058298035184706,1586,2014,1,0.95,WHITE,WHITE,True,0,0.0015000005078036338,WHITE,True,CORRECT,2.0538999999989755,2053.8999999989755
2,20260325_120617,D,J,False,AUTOMATION1,4,396,1696,fixed_delta,0.04010600706829564,0.013286393218712247,,,,,0.5270432330588231,1897,1703,1,0.95,BLACK,BLACK,True,0,0.0017999991541728377,BLACK,True,CORRECT,0.6853501999994478,685.3501999994478
2,20260325_120617,D,J,False,AUTOMATION1,4,397,1697,fixed_delta,0.04010600706829564,0.013286393218712247,,,,,0.547404838531625,1971,1629,1,0.95,BLACK,BLACK,True,0,0.0017000002117129043,BLACK,True,CORRECT,1.3220080999999482,1322.0080999999482
2,20260325_120617,D,J,False,AUTOMATION1,4,398,1698,fixed_delta,0.04010600706829564,0.013286393218712247,,,,,0.46957583362660504,1690,1910,1,0.95,WHITE,WHITE,True,0,0.0015000005078036338,WHITE,True,CORRECT,0.6564617000003636,656.4617000003636
2,20260325_120617,D,J,False,AUTOMATION1,4,399,1699,fixed_delta,0.04010600706829564,0.013286393218712247,,,,,0.4564391418710671,1643,1957,1,0.95,WHITE,WHITE,True,0,0.0014999986888142303,WHITE,True,CORRECT,0.5987616999991587,598.7616999991587
2,20260325_120617,D,J,False,AUTOMATION1,4,400,1700,fixed_delta,0.04010600706829564,0.013286393218712247,,,,,0.5358137734816996,1929,1671,1,0.95,BLACK,BLACK,True,0,0.0012999989849049598,BLACK,True,CORRECT,1.157323899999028,1157.323899999028
2,20260325_120617,D,J,False,AUTOMATION1,4,401,1701,fixed_delta,0.04010600706829564,0.013286393218712247,,,,,0.4886838464999339,1759,1841,1,0.95,WHITE,WHITE,True,0,0.0018999999156221747,BLACK,False,INCORRECT,1.1959970999996585,1195.9970999996585
2,20260325_120617,D,J,False,AUTOMATION1,4,402,1702,fixed_delta,0.04010600706829564,0.013286393218712247,,,,,0.4624904618830611,1665,1935,1,0.95,WHITE,WHITE,True,0,0.0013000008038943633,WHITE,True,CORRECT,0.7259976000004826,725.9976000004826
2,20260325_120617,D,J,False,AUTOMATION1,4,403,1703,fixed_delta,0.04010600706829564,0.013286393218712247,,,,,0.4625477949590017,1665,1935,1,0.95,WHITE,WHITE,True,0,0.0014000015653437003,WHITE,True,CORRECT,0.6094287000014447,609.4287000014447
2,20260325_120617,D,J,False,AUTOMATION1,4,404,1704,fixed_delta,0.04010600706829564,0.013286393218712247,,,,,0.4794830628937934,1726,1874,1,0.95,WHITE,WHITE,True,0,0.0013999997463542968,WHITE,True,CORRECT,0.5929636000000755,592.9636000000755
2,20260325_120617,D,J,False,AUTOMATION1,4,405,1705,fixed_delta,0.04010600706829564,0.013286393218712247,,,,,0.5509984786011614,1984,1616,1,0.95,BLACK,BLACK,True,0,0.0013999997463542968,BLACK,True,CORRECT,2.4336517000010645,2433.6517000010645
2,20260325_120617,D,J,False,AUTOMATION1,4,406,1706,fixed_delta,0.04010600706829564,0.013286393218712247,,,,,0.5153573589348909,1855,1745,1,0.95,BLACK,BLACK,True,0,0.0015999994502635673,BLACK,True,CORRECT,1.4668526000004931,1466.852600000493
2,20260325_120617,D,J,False,AUTOMATION1,4,407,1707,fixed_delta,0.04010600706829564,0.013286393218712247,,,,,0.47109744758355554,1696,1904,1,0.95,WHITE,WHITE,True,0,0.0013999997463542968,WHITE,True,CORRECT,1.0320840000003955,1032.0840000003955
2,20260325_120617,D,J,False,AUTOMATION1,4,408,1708,fixed_delta,0.04010600706829564,0.013286393218712247,,,,,0.45439883210824294,1636,1964,1,0.95,WHITE,WHITE,True,0,0.0017000002117129043,WHITE,True,CORRECT,0.5353825000001962,535.3825000001962
2,20260325_120617,D,J,False,AUTOMATION1,4,409,1709,fixed_delta,0.04010600706829564,0.013286393218712247,,,,,0.5328364056704308,1918,1682,1,0.95,BLACK,BLACK,True,0,0.0017000002117129043,BLACK,True,CORRECT,1.0799119000002975,1079.9119000002975
2,20260325_120617,D,J,False,AUTOMATION1,4,410,1710,fixed_delta,0.04010600706829564,0.013286393218712247,,,,,0.47647720243421954,1715,1885,1,0.95,WHITE,WHITE,True,0,0.0015999994502635673,WHITE,True,CORRECT,0.7538907999987714,753.8907999987714
2,20260325_120617,D,J,False,AUTOMATION1,4,411,1711,fixed_delta,0.04010600706829564,0.013286393218712247,,,,,0.46969590927976207,1691,1909,1,0.95,WHITE,WHITE,True,0,0.0015000005078036338,WHITE,True,CORRECT,0.6387307999993936,638.7307999993936
