participant_id,run_timestamp,key_black,key_white,keymap_flip,block,block_idx,trial,global_trial,difficulty_mode,delta_fixed_mean,delta_fixed_sd,delta_stair_realised,delta_stair_mean,delta_step_down_used,delta_step_up_used,vblack_prop,n_vblack,n_vwhite,auto_on,aid_accuracy_setting,stimulus,aid_label,aid_correct,aid_onset_ms,aid_onset_ms_rel,response,correct,feedback,rt_s,rt_ms
1,20260325_120141,D,J,False,MANUAL,2,1,301,fixed_delta,0.04926863410845236,0.011780794413821632,,,,,0.44301871200453263,1595,2005,0,,WHITE,,,0,,WHITE,True,CORRECT,3.2445838149997144,3244.5838149997144
1,20260325_120141,D,J,False,MANUAL,2,2,302,fixed_delta,0.04926863410845236,0.011780794413821632,,,,,0.5406745526145269,1946,1654,0,,BLACK,,,0,,BLACK,True,CORRECT,3.1142294149994996,3114.2294149994996
1,20260325_120141,D,J,False,MANUAL,2,3,303,fixed_delta,0.04926863410845236,0.011780794413821632,,,,,0.45318653177744966,1631,1969,0,,WHITE,,,0,,WHITE,True,CORRECT,1.8612378680008987,1861.2378680008987
1,20260325_120141,D,J,False,MANUAL,2,4,304,fixed_delta,0.04926863410845236,0.011780794413821632,,,,,0.5694771998575086,2050,1550,0,,BLACK,,,0,,BLACK,True,CORRECT,2.7578397699999186,2757.8397699999186
1,20260325_120141,D,J,False,MANUAL,2,5,305,fixed_delta,0.04926863410845236,0.011780794413821632,,,,,0.5383624179418949,1938,1662,0,,BLACK,,,0,,WHITE,False,INCORRECT,8.373364658000355,8373.364658000355
1,20260325_120141,D,J,False,MANUAL,2,6,306,fixed_delta,0.04926863410845236,0.011780794413821632,,,,,0.560992591922753,2020,1580,0,,BLACK,,,0,,BLACK,True,CORRECT,1.5018765810000332,1501.8765810000332
1,20260325_120141,D,J,False,MANUAL,2,7,307,fixed_delta,0.04926863410845236,0.011780794413821632,,,,,0.44625002655165524,1607,1993,0,,WHITE,,,0,,BLACK,False,INCORRECT,4.232654283001466,4232.654283001466
1,20260325_120141,D,J,False,MANUAL,2,8,308,fixed_delta,0.04926863410845236,0.011780794413821632,,,,,0.5644961109268627,2032,1568,0,,BLACK,,,0,,BLACK,True,CORRECT,6.290679110999918,6290.679110999918
1,20260325_120141,D,J,False,MANUAL,2,9,309,fixed_delta,0.04926863410845236,0.011780794413821632,,,,,0.45118718124000856,1624,1976,0,,WHITE,,,0,,WHITE,True,CORRECT,3.189560373999484,3189.560373999484
1,20260325_120141,D,J,False,MANUAL,2,10,310,fixed_delta,0.04926863410845236,0.011780794413821632,,,,,0.4332253064007313,1560,2040,0,,WHITE,,,0,,WHITE,True,CORRECT,7.393407162000585,7393.407162000585
1,20260325_120141,D,J,False,MANUAL,2,11,311,fixed_delta,0.04926863410845236,0.011780794413821632,,,,,0.5398875405812812,1944,1656,0,,BLACK,,,0,,BLACK,True,CORRECT,2.1527856360007718,2152.785636000772
1,20260325_120141,D,J,False,MANUAL,2,12,312,fixed_delta,0.04926863410845236,0.011780794413821632,,,,,0.5428305011611941,1954,1646,0,,BLACK,,,0,,BLACK,True,CORRECT,6.689486007999221,6689.486007999221
1,20260325_120141,D,J,False,MANUAL,2,13,313,fixed_delta,0.04926863410845236,0.011780794413821632,,,,,0.5484049545201927,1974,1626,0,,BLACK,,,0,,BLACK,True,CORRECT,4.624923266999758,4624.923266999758
1,20260325_120141,D,J,False,MANUAL,2,14,314,fixed_delta,0.04926863410845236,0.011780794413821632,,,,,0.5455199392905705,1964,1636,0,,BLACK,,,0,,BLACK,True,CORRECT,3.1351625099996454,3135.1625099996454
1,20260325_120141,D,J,False,MANUAL,2,15,315,fixed_delta,0.04926863410845236,0.011780794413821632,,,,,0.5577504336131893,2008,1592,0,,BLACK,,,0,,BLACK,True,CORRECT,4.608944609999526,4608.944609999526
1,20260325_120141,D,J,False,MANUAL,2,16,316,fixed_delta,0.04926863410845236,0.011780794413821632,,,,,0.5481473340169231,1973,1627,0,,BLACK,,,0,,BLACK,True,CORRECT,3.5725737029988522,3572.5737029988522
1,20260325_120141,D,J,False,MANUAL,2,17,317,fixed_delta,0.04926863410845236,0.011780794413821632,,,,,0.5468990716577338,1969,1631,0,,BLACK,,,0,,BLACK,True,CORRECT,4.19520228699912,4195.20228699912
1,20260325_120141,D,J,False,MANUAL,2,18,318,fixed_delta,0.04926863410845236,0.011780794413821632,,,,,0.5516400051462785,1986,1614,0,,BLACK,,,0,,BLACK,True,CORRECT,6.04742697599977,6047.42697599977
1,20260325_120141,D,J,False,MANUAL,2,19,319,fixed_delta,0.04926863410845236,0.011780794413821632,,,,,0.44705033137864547,1609,1991,0,,WHITE,,,0,,WHITE,True,CORRECT,4.026225862000501,4026.2258620005014
1,20260325_120141,D,J,False,MANUAL,2,20,320,fixed_delta,0.04926863410845236,0.011780794413821632,,,,,0.45495548364956323,1638,1962,0,,WHITE,,,0,,WHITE,True,CORRECT,3.7447663500006456,3744.7663500006456
1,20260325_120141,D,J,False,MANUAL,2,21,321,fixed_delta,0.04926863410845236,0.011780794413821632,,,,,0.5618161670461226,2023,1577,0,,BLACK,,,0,,BLACK,True,CORRECT,4.303628437999578,4303.628437999578
1,20260325_120141,D,J,False,MANUAL,2,22,322,fixed_delta,0.04926863410845236,0.011780794413821632,,,,,0.43684808463090236,1573,2027,0,,WHITE,,,0,,WHITE,True,CORRECT,1.5853709909988538,1585.3709909988538
1,20260325_120141,D,J,False,MANUAL,2,23,323,fixed_delta,0.04926863410845236,0.011780794413821632,,,,,0.46616825483531743,1678,1922,0,,WHITE,,,0,,WHITE,True,CORRECT,2.3617854730000545,2361.7854730000545
1,20260325_120141,D,J,False,MANUAL,2,24,324,fixed_delta,0.04926863410845236,0.011780794413821632,,,,,0.46153546033496395,1662,1938,0,,WHITE,,,0,,WHITE,True,CORRECT,2.280255831999966,2280.255831999966
1,20260325_120141,D,J,False,MANUAL,2,25,325,fixed_delta,0.04926863410845236,0.011780794413821632,,,,,0.4446692222761837,1601,1999,0,,WHITE,,,0,,WHITE,True,CORRECT,2.1955343049994553,2195.5343049994553
1,20260325_120141,D,J,False,MANUAL,2,26,326,fixed_delta,0.04926863410845236,0.011780794413821632,,,,,0.5601917889468206,2017,1583,0,,BLACK,,,0,,BLACK,True,CORRECT,1.161082795000766,1161.082795000766
1,20260325_120141,D,J,False,MANUAL,2,27,327,fixed_delta,0.04926863410845236,0.011780794413821632,,,,,0.4441595697739056,1599,2001,0,,WHITE,,,0,,WHITE,True,CORRECT,1.0333436800010531,1033.3436800010531
1,20260325_120141,D,J,False,MANUAL,2,28,328,fixed_delta,0.04926863410845236,0.011780794413821632,,,,,0.4431017231374912,1595,2005,0,,WHITE,,,0,,WHITE,True,CORRECT,0.9828951840008813,982.8951840008813
1,20260325_120141,D,J,False,MANUAL,2,29,329,fixed_delta,0.04926863410845236,0.011780794413821632,,,,,0.4573746098186851,1647,1953,0,,WHITE,,,0,,WHITE,True,CORRECT,1.5333777830001054,1533.3777830001054
1,20260325_120141,D,J,False,MANUAL,2,30,330,fixed_delta,0.04926863410845236,0.011780794413821632,,,,,0.4371017113795195,1574,2026,0,,WHITE,,,0,,WHITE,True,CORRECT,1.8773931999985507,1877.3931999985507
1,20260325_120141,D,J,False,MANUAL,2,31,331,fixed_delta,0.04926863410845236,0.011780794413821632,,,,,0.4492165601459399,1617,1983,0,,WHITE,,,0,,WHITE,True,CORRECT,1.8494219120002526,1849.4219120002526
1,20260325_120141,D,J,False,MANUAL,2,32,332,fixed_delta,0.04926863410845236,0.011780794413821632,,,,,0.4328710598008564,1558,2042,0,,WHITE,,,0,,WHITE,True,CORRECT,1.8549929129985685,1854.9929129985685
1,20260325_120141,D,J,False,MANUAL,2,33,333,fixed_delta,0.04926863410845236,0.011780794413821632,,,,,0.44610445868682463,1606,1994,0,,WHITE,,,0,,WHITE,True,CORRECT,2.122050931000558,2122.050931000558
1,20260325_120141,D,J,False,MANUAL,2,34,334,fixed_delta,0.04926863410845236,0.011780794413821632,,,,,0.4353927266366664,1567,2033,0,,WHITE,,,0,,WHITE,True,CORRECT,2.3274607610001112,2327.4607610001112
1,20260325_120141,D,J,False,MANUAL,2,35,335,fixed_delta,0.04926863410845236,0.011780794413821632,,,,,0.44210982262179166,1592,2008,0,,WHITE,,,0,,WHITE,True,CORRECT,2.2776168100008363,2277.6168100008363
1,20260325_120141,D,J,False,MANUAL,2,36,336,fixed_delta,0.04926863410845236,0.011780794413821632,,,,,0.4516635499168372,1626,1974,0,,WHITE,,,0,,WHITE,True,CORRECT,2.652360621999833,2652.360621999833
1,20260325_120141,D,J,False,MANUAL,2,37,337,fixed_delta,0.04926863410845236,0.011780794413821632,,,,,0.45383459616533034,1634,1966,0,,WHITE,,,0,,WHITE,True,CORRECT,2.360096534999684,2360.096534999684
1,20260325_120141,D,J,False,MANUAL,2,38,338,fixed_delta,0.04926863410845236,0.011780794413821632,,,,,0.5728732900936868,2062,1538,0,,BLACK,,,0,,WHITE,False,INCORRECT,2.3646856020004634,2364.6856020004634
1,20260325_120141,D,J,False,MANUAL,2,39,339,fixed_delta,0.04926863410845236,0.011780794413821632,,,,,0.5373686545795024,1935,1665,0,,BLACK,,,0,,BLACK,True,CORRECT,1.230182622999564,1230.182622999564
1,20260325_120141,D,J,False,MANUAL,2,40,340,fixed_delta,0.04926863410845236,0.011780794413821632,,,,,0.438984135875259,1580,2020,0,,WHITE,,,0,,WHITE,True,CORRECT,1.7140157210014877,1714.0157210014877
1,20260325_120141,D,J,False,MANUAL,2,41,341,fixed_delta,0.04926863410845236,0.011780794413821632,,,,,0.4671268440306523,1682,1918,0,,WHITE,,,0,,WHITE,True,CORRECT,3.515278713999578,3515.278713999578
1,20260325_120141,D,J,False,MANUAL,2,42,342,fixed_delta,0.04926863410845236,0.011780794413821632,,,,,0.5513595064151748,1985,1615,0,,BLACK,,,0,,BLACK,True,CORRECT,1.024143009000909,1024.143009000909
1,20260325_120141,D,J,False,MANUAL,2,43,343,fixed_delta,0.04926863410845236,0.011780794413821632,,,,,0.45406413657684797,1635,1965,0,,WHITE,,,0,,WHITE,True,CORRECT,5.060518423999383,5060.518423999383
1,20260325_120141,D,J,False,MANUAL,2,44,344,fixed_delta,0.04926863410845236,0.011780794413821632,,,,,0.4433509980811033,1596,2004,0,,WHITE,,,0,,WHITE,True,CORRECT,2.1808317409995652,2180.831740999565
1,20260325_120141,D,J,False,MANUAL,2,45,345,fixed_delta,0.04926863410845236,0.011780794413821632,,,,,0.5553615396079117,1999,1601,0,,BLACK,,,0,,BLACK,True,CORRECT,2.5131180389998917,2513.1180389998917
1,20260325_120141,D,J,False,MANUAL,2,46,346,fixed_delta,0.04926863410845236,0.011780794413821632,,,,,0.46310725373944917,1667,1933,0,,WHITE,,,0,,WHITE,True,CORRECT,2.9726987579997513,2972.6987579997513
1,20260325_120141,D,J,False,MANUAL,2,47,347,fixed_delta,0.04926863410845236,0.011780794413821632,,,,,0.47123137744638116,1696,1904,0,,WHITE,,,0,,WHITE,True,CORRECT,3.394265904000349,3394.265904000349
1,20260325_120141,D,J,False,MANUAL,2,48,348,fixed_delta,0.04926863410845236,0.011780794413821632,,,,,0.5725939553833763,2061,1539,0,,BLACK,,,0,,BLACK,True,CORRECT,3.2217505520002305,3221.7505520002305
1,20260325_120141,D,J,False,MANUAL,2,49,349,fixed_delta,0.04926863410845236,0.011780794413821632,,,,,0.461099774456373,1660,1940,0,,WHITE,,,0,,WHITE,True,CORRECT,2.049943706999329,2049.943706999329
1,20260325_120141,D,J,False,MANUAL,2,50,350,fixed_delta,0.04926863410845236,0.011780794413821632,,,,,0.4558086771927952,1641,1959,0,,WHITE,,,0,,WHITE,True,CORRECT,3.393566110999018,3393.566110999018
1,20260325_120141,D,J,False,MANUAL,2,51,351,fixed_delta,0.04926863410845236,0.011780794413821632,,,,,0.539575608174644,1942,1658,0,,BLACK,,,0,,BLACK,True,CORRECT,6.547052141000677,6547.052141000677
1,20260325_120141,D,J,False,MANUAL,2,52,352,fixed_delta,0.04926863410845236,0.011780794413821632,,,,,0.5426220613866947,1953,1647,0,,BLACK,,,0,,WHITE,False,INCORRECT,5.262807278000764,5262.807278000764
1,20260325_120141,D,J,False,MANUAL,2,53,353,fixed_delta,0.04926863410845236,0.011780794413821632,,,,,0.5506615501911136,1982,1618,0,,BLACK,,,0,,WHITE,False,INCORRECT,8.238718955000877,8238.718955000877
1,20260325_120141,D,J,False,MANUAL,2,54,354,fixed_delta,0.04926863410845236,0.011780794413821632,,,,,0.5452843315620937,1963,1637,0,,BLACK,,,0,,WHITE,False,INCORRECT,5.949010360000102,5949.010360000102
1,20260325_120141,D,J,False,MANUAL,2,55,355,fixed_delta,0.04926863410845236,0.011780794413821632,,,,,0.5516543799499459,1986,1614,0,,BLACK,,,0,,BLACK,True,CORRECT,1.1891634539988445,1189.1634539988445
1,20260325_120141,D,J,False,MANUAL,2,56,356,fixed_delta,0.04926863410845236,0.011780794413821632,,,,,0.4349431612676523,1566,2034,0,,WHITE,,,0,,WHITE,True,CORRECT,2.291090153999903,2291.090153999903
1,20260325_120141,D,J,False,MANUAL,2,57,357,fixed_delta,0.04926863410845236,0.011780794413821632,,,,,0.4618506273766505,1663,1937,0,,WHITE,,,0,,WHITE,True,CORRECT,4.9201839359993755,4920.1839359993755
1,20260325_120141,D,J,False,MANUAL,2,58,358,fixed_delta,0.04926863410845236,0.011780794413821632,,,,,0.5569452414165269,2005,1595,0,,BLACK,,,0,,WHITE,False,INCORRECT,6.445820126000399,6445.820126000399
1,20260325_120141,D,J,False,MANUAL,2,59,359,fixed_delta,0.04926863410845236,0.011780794413821632,,,,,0.46784868564092014,1684,1916,0,,WHITE,,,0,,WHITE,True,CORRECT,1.3374216180000076,1337.4216180000076
1,20260325_120141,D,J,False,MANUAL,2,60,360,fixed_delta,0.04926863410845236,0.011780794413821632,,,,,0.46111864888510007,1660,1940,0,,WHITE,,,0,,WHITE,True,CORRECT,5.900319309001134,5900.319309001134
1,20260325_120141,D,J,False,MANUAL,2,61,361,fixed_delta,0.04926863410845236,0.011780794413821632,,,,,0.576708344400835,2076,1524,0,,BLACK,,,0,,BLACK,True,CORRECT,0.9507386590012175,950.7386590012175
1,20260325_120141,D,J,False,MANUAL,2,62,362,fixed_delta,0.04926863410845236,0.011780794413821632,,,,,0.5565878723089479,2004,1596,0,,BLACK,,,0,,BLACK,True,CORRECT,1.1392543009988003,1139.2543009988003
1,20260325_120141,D,J,False,MANUAL,2,63,363,fixed_delta,0.04926863410845236,0.011780794413821632,,,,,0.4603109666227562,1657,1943,0,,WHITE,,,0,,BLACK,False,INCORRECT,6.354094960999646,6354.094960999646
1,20260325_120141,D,J,False,MANUAL,2,64,364,fixed_delta,0.04926863410845236,0.011780794413821632,,,,,0.5603034140300145,2017,1583,0,,BLACK,,,0,,BLACK,True,CORRECT,0.793642489999911,793.642489999911
1,20260325_120141,D,J,False,MANUAL,2,65,365,fixed_delta,0.04926863410845236,0.011780794413821632,,,,,0.5409222891118732,1947,1653,0,,BLACK,,,0,,BLACK,True,CORRECT,0.8941140160004579,894.1140160004579
1,20260325_120141,D,J,False,MANUAL,2,66,366,fixed_delta,0.04926863410845236,0.011780794413821632,,,,,0.4637661903083865,1670,1930,0,,WHITE,,,0,,BLACK,False,INCORRECT,3.6419160090008518,3641.916009000852
1,20260325_120141,D,J,False,MANUAL,2,67,367,fixed_delta,0.04926863410845236,0.011780794413821632,,,,,0.5700295400967345,2052,1548,0,,BLACK,,,0,,BLACK,True,CORRECT,1.2727666339997086,1272.7666339997086
1,20260325_120141,D,J,False,MANUAL,2,68,368,fixed_delta,0.04926863410845236,0.011780794413821632,,,,,0.5514479925580907,1985,1615,0,,BLACK,,,0,,BLACK,True,CORRECT,6.441939264999746,6441.939264999746
1,20260325_120141,D,J,False,MANUAL,2,69,369,fixed_delta,0.04926863410845236,0.011780794413821632,,,,,0.5409902570726948,1948,1652,0,,BLACK,,,0,,BLACK,True,CORRECT,2.0195097720006743,2019.5097720006743
1,20260325_120141,D,J,False,MANUAL,2,70,370,fixed_delta,0.04926863410845236,0.011780794413821632,,,,,0.44590632407011627,1605,1995,0,,WHITE,,,0,,WHITE,True,CORRECT,1.562148619999789,1562.148619999789
1,20260325_120141,D,J,False,MANUAL,2,71,371,fixed_delta,0.04926863410845236,0.011780794413821632,,,,,0.5548716515006304,1998,1602,0,,BLACK,,,0,,BLACK,True,CORRECT,8.361466074000418,8361.466074000418
1,20260325_120141,D,J,False,MANUAL,2,72,372,fixed_delta,0.04926863410845236,0.011780794413821632,,,,,0.5534232510701911,1992,1608,0,,BLACK,,,0,,BLACK,True,CORRECT,2.521866503999263,2521.866503999263
1,20260325_120141,D,J,False,MANUAL,2,73,373,fixed_delta,0.04926863410845236,0.011780794413821632,,,,,0.5517045535743654,1986,1614,0,,BLACK,,,0,,BLACK,True,CORRECT,3.9538025439997,3953.8025439997
1,20260325_120141,D,J,False,MANUAL,2,74,374,fixed_delta,0.04926863410845236,0.011780794413821632,,,,,0.4451520353257342,1603,1997,0,,WHITE,,,0,,WHITE,True,CORRECT,2.494411421001132,2494.411421001132
1,20260325_120141,D,J,False,MANUAL,2,75,375,fixed_delta,0.04926863410845236,0.011780794413821632,,,,,0.4656859497634524,1676,1924,0,,WHITE,,,0,,WHITE,True,CORRECT,5.344609145000504,5344.609145000504
1,20260325_120141,D,J,False,MANUAL,2,76,376,fixed_delta,0.04926863410845236,0.011780794413821632,,,,,0.5782419348758389,2082,1518,0,,BLACK,,,0,,BLACK,True,CORRECT,1.167098490999706,1167.098490999706
1,20260325_120141,D,J,False,MANUAL,2,77,377,fixed_delta,0.04926863410845236,0.011780794413821632,,,,,0.4387594123993152,1580,2020,0,,WHITE,,,0,,WHITE,True,CORRECT,5.042624876001355,5042.624876001355
1,20260325_120141,D,J,False,MANUAL,2,78,378,fixed_delta,0.04926863410845236,0.011780794413821632,,,,,0.5485113477516128,1975,1625,0,,BLACK,,,0,,BLACK,True,CORRECT,3.4322692610003287,3432.2692610003287
1,20260325_120141,D,J,False,MANUAL,2,79,379,fixed_delta,0.04926863410845236,0.011780794413821632,,,,,0.547802334779958,1972,1628,0,,BLACK,,,0,,BLACK,True,CORRECT,2.553478277999602,2553.478277999602
1,20260325_120141,D,J,False,MANUAL,2,80,380,fixed_delta,0.04926863410845236,0.011780794413821632,,,,,0.4523714597475642,1629,1971,0,,WHITE,,,0,,WHITE,True,CORRECT,4.394151425000018,4394.151425000018
1,20260325_120141,D,J,False,MANUAL,2,81,381,fixed_delta,0.04926863410845236,0.011780794413821632,,,,,0.5405384622855273,1946,1654,0,,BLACK,,,0,,BLACK,True,CORRECT,5.867469601000266,5867.469601000266
1,20260325_120141,D,J,False,MANUAL,2,82,382,fixed_delta,0.04926863410845236,0.011780794413821632,,,,,0.5364871577470519,1931,1669,0,,BLACK,,,0,,BLACK,True,CORRECT,4.968912545000421,4968.912545000421
1,20260325_120141,D,J,False,MANUAL,2,83,383,fixed_delta,0.04926863410845236,0.011780794413821632,,,,,0.4388202746042452,1580,2020,0,,WHITE,,,0,,WHITE,True,CORRECT,0.9840261499994085,984.0261499994085
1,20260325_120141,D,J,False,MANUAL,2,84,384,fixed_delta,0.04926863410845236,0.011780794413821632,,,,,0.5667695156430586,2040,1560,0,,BLACK,,,0,,BLACK,True,CORRECT,1.7131560779998836,1713.1560779998836
1,20260325_120141,D,J,False,MANUAL,2,85,385,fixed_delta,0.04926863410845236,0.011780794413821632,,,,,0.5348396793041224,1925,1675,0,,BLACK,,,0,,BLACK,True,CORRECT,8.395798898000066,8395.798898000066
1,20260325_120141,D,J,False,MANUAL,2,86,386,fixed_delta,0.04926863410845236,0.011780794413821632,,,,,0.5474987021194746,1971,1629,0,,BLACK,,,0,,BLACK,True,CORRECT,2.1690422269984992,2169.0422269984992
1,20260325_120141,D,J,False,MANUAL,2,87,387,fixed_delta,0.04926863410845236,0.011780794413821632,,,,,0.5558834890919747,2001,1599,0,,BLACK,,,0,,BLACK,True,CORRECT,1.3075982379996276,1307.5982379996276
1,20260325_120141,D,J,False,MANUAL,2,88,388,fixed_delta,0.04926863410845236,0.011780794413821632,,,,,0.4411897666175491,1588,2012,0,,WHITE,,,0,,WHITE,True,CORRECT,5.664917234000313,5664.917234000313
1,20260325_120141,D,J,False,MANUAL,2,89,389,fixed_delta,0.04926863410845236,0.011780794413821632,,,,,0.44172581100906777,1590,2010,0,,WHITE,,,0,,WHITE,True,CORRECT,3.8367114599986962,3836.7114599986962
1,20260325_120141,D,J,False,MANUAL,2,90,390,fixed_delta,0.04926863410845236,0.011780794413821632,,,,,0.4542948617955075,1635,1965,0,,WHITE,,,0,,WHITE,True,CORRECT,5.023677582001255,5023.677582001255
1,20260325_120141,D,J,False,MANUAL,2,91,391,fixed_delta,0.04926863410845236,0.011780794413821632,,,,,0.5500664920167159,1980,1620,0,,BLACK,,,0,,BLACK,True,CORRECT,1.676570334999269,1676.570334999269
1,20260325_120141,D,J,False,MANUAL,2,92,392,fixed_delta,0.04926863410845236,0.011780794413821632,,,,,0.448098555382609,1613,1987,0,,WHITE,,,0,,WHITE,True,CORRECT,6.0281491660007305,6028.1491660007305
1,20260325_120141,D,J,False,MANUAL,2,93,393,fixed_delta,0.04926863410845236,0.011780794413821632,,,,,0.5381058553662128,1937,1663,0,,BLACK,,,0,,BLACK,True,CORRECT,2.595351980000487,2595.351980000487
1,20260325_120141,D,J,False,MANUAL,2,94,394,fixed_delta,0.04926863410845236,0.011780794413821632,,,,,0.42789167294067776,1540,2060,0,,WHITE,,,0,,WHITE,True,CORRECT,3.937417352000921,3937.417352000921
1,20260325_120141,D,J,False,MANUAL,2,95,395,fixed_delta,0.04926863410845236,0.011780794413821632,,,,,0.5500711052515505,1980,1620,0,,BLACK,,,0,,BLACK,True,CORRECT,1.1283319419999316,1128.3319419999316
1,20260325_120141,D,J,False,MANUAL,2,96,396,fixed_delta,0.04926863410845236,0.011780794413821632,,,,,0.5693117786861162,2050,1550,0,,BLACK,,,0,,BLACK,True,CORRECT,2.104713250999339,2104.713250999339
1,20260325_120141,D,J,False,MANUAL,2,97,397,fixed_delta,0.04926863410845236,0.011780794413821632,,,,,0.43551865771632225,1568,2032,0,,WHITE,,,0,,WHITE,True,CORRECT,2.9225146759999916,2922.5146759999916
1,20260325_120141,D,J,False,MANUAL,2,98,398,fixed_delta,0.04926863410845236,0.011780794413821632,,,,,0.5534018430610687,1992,1608,0,,BLACK,,,0,,BLACK,True,CORRECT,5.3655858090005495,5365.5858090005495
1,20260325_120141,D,J,False,MANUAL,2,99,399,fixed_delta,0.04926863410845236,0.011780794413821632,,,,,0.46754777117802787,1683,1917,0,,WHITE,,,0,,WHITE,True,CORRECT,3.281951079999999,3281.951079999999
1,20260325_120141,D,J,False,MANUAL,2,100,400,fixed_delta,0.04926863410845236,0.011780794413821632,,,,,0.5514181574587671,1985,1615,0,,BLACK,,,0,,BLACK,True,CORRECT,5.127398684000582,5127.398684000582
1,20260325_120141,D,J,False,MANUAL,2,101,401,fixed_delta,0.04926863410845236,0.011780794413821632,,,,,0.4595028070035657,1654,1946,0,,WHITE,,,0,,WHITE,True,CORRECT,4.347246363999147,4347.246363999147
1,20260325_120141,D,J,False,MANUAL,2,102,402,fixed_delta,0.04926863410845236,0.011780794413821632,,,,,0.534338618734498,1924,1676,0,,BLACK,,,0,,BLACK,True,CORRECT,4.066033838000294,4066.033838000294
1,20260325_120141,D,J,False,MANUAL,2,103,403,fixed_delta,0.04926863410845236,0.011780794413821632,,,,,0.5611332424204956,2020,1580,0,,BLACK,,,0,,BLACK,True,CORRECT,8.256063544999051,8256.063544999051
1,20260325_120141,D,J,False,MANUAL,2,104,404,fixed_delta,0.04926863410845236,0.011780794413821632,,,,,0.5410643487305342,1948,1652,0,,BLACK,,,0,,BLACK,True,CORRECT,2.0400672819996544,2040.0672819996544
1,20260325_120141,D,J,False,MANUAL,2,105,405,fixed_delta,0.04926863410845236,0.011780794413821632,,,,,0.45030856292953025,1621,1979,0,,WHITE,,,0,,WHITE,True,CORRECT,3.9540305999998964,3954.0305999998964
1,20260325_120141,D,J,False,MANUAL,2,106,406,fixed_delta,0.04926863410845236,0.011780794413821632,,,,,0.556764046978695,2004,1596,0,,BLACK,,,0,,BLACK,True,CORRECT,2.1668127450011525,2166.8127450011525
1,20260325_120141,D,J,False,MANUAL,2,107,407,fixed_delta,0.04926863410845236,0.011780794413821632,,,,,0.542315053728031,1952,1648,0,,BLACK,,,0,,BLACK,True,CORRECT,7.21756591600024,7217.56591600024
1,20260325_120141,D,J,False,MANUAL,2,108,408,fixed_delta,0.04926863410845236,0.011780794413821632,,,,,0.5437441853620713,1957,1643,0,,BLACK,,,0,,BLACK,True,CORRECT,5.067041612999674,5067.041612999674
1,20260325_120141,D,J,False,MANUAL,2,109,409,fixed_delta,0.04926863410845236,0.011780794413821632,,,,,0.5492297779602515,1977,1623,0,,BLACK,,,0,,BLACK,True,CORRECT,2.533040055001038,2533.040055001038
1,20260325_120141,D,J,False,MANUAL,2,110,410,fixed_delta,0.04926863410845236,0.011780794413821632,,,,,0.4206813155100619,1514,2086,0,,WHITE,,,0,,WHITE,True,CORRECT,1.9953105749991664,1995.3105749991664
1,20260325_120141,D,J,False,MANUAL,2,111,411,fixed_delta,0.04926863410845236,0.011780794413821632,,,,,0.5519712012980815,1987,1613,0,,BLACK,,,0,,BLACK,True,CORRECT,2.424832946000606,2424.832946000606
1,20260325_120141,D,J,False,MANUAL,2,112,412,fixed_delta,0.04926863410845236,0.011780794413821632,,,,,0.46273645042844946,1666,1934,0,,WHITE,,,0,,BLACK,False,INCORRECT,2.2627727239996602,2262.7727239996602
1,20260325_120141,D,J,False,MANUAL,2,113,413,fixed_delta,0.04926863410845236,0.011780794413821632,,,,,0.5417101574544189,1950,1650,0,,BLACK,,,0,,BLACK,True,CORRECT,6.513556122999944,6513.556122999944
1,20260325_120141,D,J,False,MANUAL,2,114,414,fixed_delta,0.04926863410845236,0.011780794413821632,,,,,0.4388443633590797,1580,2020,0,,WHITE,,,0,,WHITE,True,CORRECT,3.2592292899989843,3259.2292899989843
1,20260325_120141,D,J,False,MANUAL,2,115,415,fixed_delta,0.04926863410845236,0.011780794413821632,,,,,0.44982669137137604,1619,1981,0,,WHITE,,,0,,WHITE,True,CORRECT,3.334520288000931,3334.520288000931
1,20260325_120141,D,J,False,MANUAL,2,116,416,fixed_delta,0.04926863410845236,0.011780794413821632,,,,,0.5370035522961595,1933,1667,0,,BLACK,,,0,,BLACK,True,CORRECT,4.350013986000704,4350.013986000704
1,20260325_120141,D,J,False,MANUAL,2,117,417,fixed_delta,0.04926863410845236,0.011780794413821632,,,,,0.45259424372315304,1629,1971,0,,WHITE,,,0,,WHITE,True,CORRECT,3.61329871199996,3613.29871199996
1,20260325_120141,D,J,False,MANUAL,2,118,418,fixed_delta,0.04926863410845236,0.011780794413821632,,,,,0.5510434417687256,1984,1616,0,,BLACK,,,0,,BLACK,True,CORRECT,1.7285295900001074,1728.5295900001074
1,20260325_120141,D,J,False,MANUAL,2,119,419,fixed_delta,0.04926863410845236,0.011780794413821632,,,,,0.5496027524170347,1979,1621,0,,BLACK,,,0,,BLACK,True,CORRECT,1.2099454140006856,1209.9454140006856
1,20260325_120141,D,J,False,MANUAL,2,120,420,fixed_delta,0.04926863410845236,0.011780794413821632,,,,,0.43786278525539746,1576,2024,0,,WHITE,,,0,,WHITE,True,CORRECT,4.108547239999098,4108.547239999098
1,20260325_120141,D,J,False,MANUAL,2,121,421,fixed_delta,0.04926863410845236,0.011780794413821632,,,,,0.5384685719417649,1938,1662,0,,BLACK,,,0,,BLACK,True,CORRECT,1.6710191649999615,1671.0191649999615
1,20260325_120141,D,J,False,MANUAL,2,122,422,fixed_delta,0.04926863410845236,0.011780794413821632,,,,,0.5374988546467273,1935,1665,0,,BLACK,,,0,,TIMEOUT,,TOO SLOW,,
1,20260325_120141,D,J,False,MANUAL,2,123,423,fixed_delta,0.04926863410845236,0.011780794413821632,,,,,0.43342395607830203,1560,2040,0,,WHITE,,,0,,WHITE,True,CORRECT,3.2847132940005395,3284.7132940005395
1,20260325_120141,D,J,False,MANUAL,2,124,424,fixed_delta,0.04926863410845236,0.011780794413821632,,,,,0.5688958332271888,2048,1552,0,,BLACK,,,0,,BLACK,True,CORRECT,1.1295305139992706,1129.5305139992706
1,20260325_120141,D,J,False,MANUAL,2,125,425,fixed_delta,0.04926863410845236,0.011780794413821632,,,,,0.5502034017275466,1981,1619,0,,BLACK,,,0,,BLACK,True,CORRECT,2.2573516579996067,2257.3516579996067
1,20260325_120141,D,J,False,MANUAL,2,126,426,fixed_delta,0.04926863410845236,0.011780794413821632,,,,,0.5475666938408201,1971,1629,0,,BLACK,,,0,,BLACK,True,CORRECT,3.942262419999679,3942.262419999679
1,20260325_120141,D,J,False,MANUAL,2,127,427,fixed_delta,0.04926863410845236,0.011780794413821632,,,,,0.4365411400682202,1572,2028,0,,WHITE,,,0,,WHITE,True,CORRECT,3.091166592999798,3091.166592999798
1,20260325_120141,D,J,False,MANUAL,2,128,428,fixed_delta,0.04926863410845236,0.011780794413821632,,,,,0.4516103122555312,1626,1974,0,,WHITE,,,0,,WHITE,True,CORRECT,3.9044408459994884,3904.4408459994884
1,20260325_120141,D,J,False,MANUAL,2,129,429,fixed_delta,0.04926863410845236,0.011780794413821632,,,,,0.5443779340818724,1960,1640,0,,BLACK,,,0,,WHITE,False,INCORRECT,3.047366280999995,3047.366280999995
1,20260325_120141,D,J,False,MANUAL,2,130,430,fixed_delta,0.04926863410845236,0.011780794413821632,,,,,0.5408614860570632,1947,1653,0,,BLACK,,,0,,BLACK,True,CORRECT,1.596526815001198,1596.526815001198
1,20260325_120141,D,J,False,MANUAL,2,131,431,fixed_delta,0.04926863410845236,0.011780794413821632,,,,,0.5670470811488586,2041,1559,0,,BLACK,,,0,,BLACK,True,CORRECT,0.7570423240013042,757.0423240013042
1,20260325_120141,D,J,False,MANUAL,2,132,432,fixed_delta,0.04926863410845236,0.011780794413821632,,,,,0.5566658866455503,2004,1596,0,,BLACK,,,0,,BLACK,True,CORRECT,0.9152517319998879,915.2517319998879
1,20260325_120141,D,J,False,MANUAL,2,133,433,fixed_delta,0.04926863410845236,0.011780794413821632,,,,,0.4508633572124481,1623,1977,0,,WHITE,,,0,,WHITE,True,CORRECT,3.232363428000099,3232.363428000099
1,20260325_120141,D,J,False,MANUAL,2,134,434,fixed_delta,0.04926863410845236,0.011780794413821632,,,,,0.4530688500418339,1631,1969,0,,WHITE,,,0,,WHITE,True,CORRECT,1.619595345999187,1619.595345999187
1,20260325_120141,D,J,False,MANUAL,2,135,435,fixed_delta,0.04926863410845236,0.011780794413821632,,,,,0.4481837523750311,1613,1987,0,,WHITE,,,0,,WHITE,True,CORRECT,2.2001693450001767,2200.1693450001767
1,20260325_120141,D,J,False,MANUAL,2,136,436,fixed_delta,0.04926863410845236,0.011780794413821632,,,,,0.5455399994219466,1964,1636,0,,BLACK,,,0,,BLACK,True,CORRECT,1.7213853320008639,1721.3853320008639
1,20260325_120141,D,J,False,MANUAL,2,137,437,fixed_delta,0.04926863410845236,0.011780794413821632,,,,,0.46793410712479866,1685,1915,0,,WHITE,,,0,,WHITE,True,CORRECT,5.106049138001254,5106.049138001254
1,20260325_120141,D,J,False,MANUAL,2,138,438,fixed_delta,0.04926863410845236,0.011780794413821632,,,,,0.43638736894869,1571,2029,0,,WHITE,,,0,,WHITE,True,CORRECT,5.989927367998462,5989.927367998462
1,20260325_120141,D,J,False,MANUAL,2,139,439,fixed_delta,0.04926863410845236,0.011780794413821632,,,,,0.5599744356891534,2016,1584,0,,BLACK,,,0,,BLACK,True,CORRECT,1.162888615999691,1162.888615999691
1,20260325_120141,D,J,False,MANUAL,2,140,440,fixed_delta,0.04926863410845236,0.011780794413821632,,,,,0.55515271743849,1999,1601,0,,BLACK,,,0,,BLACK,True,CORRECT,3.600803094999719,3600.803094999719
1,20260325_120141,D,J,False,MANUAL,2,141,441,fixed_delta,0.04926863410845236,0.011780794413821632,,,,,0.4534936191362864,1633,1967,0,,WHITE,,,0,,WHITE,True,CORRECT,2.260761684001409,2260.761684001409
1,20260325_120141,D,J,False,MANUAL,2,142,442,fixed_delta,0.04926863410845236,0.011780794413821632,,,,,0.5528224830822492,1990,1610,0,,BLACK,,,0,,BLACK,True,CORRECT,3.5526751229990623,3552.6751229990623
1,20260325_120141,D,J,False,MANUAL,2,143,443,fixed_delta,0.04926863410845236,0.011780794413821632,,,,,0.5393965314509167,1942,1658,0,,BLACK,,,0,,BLACK,True,CORRECT,5.307534238001608,5307.534238001608
1,20260325_120141,D,J,False,MANUAL,2,144,444,fixed_delta,0.04926863410845236,0.011780794413821632,,,,,0.5444042270965102,1960,1640,0,,BLACK,,,0,,BLACK,True,CORRECT,0.9123380810015078,912.3380810015078
1,20260325_120141,D,J,False,MANUAL,2,145,445,fixed_delta,0.04926863410845236,0.011780794413821632,,,,,0.542212910095109,1952,1648,0,,BLACK,,,0,,BLACK,True,CORRECT,1.4326232139992499,1432.6232139992499
1,20260325_120141,D,J,False,MANUAL,2,146,446,fixed_delta,0.04926863410845236,0.011780794413821632,,,,,0.4691546815995479,1689,1911,0,,WHITE,,,0,,WHITE,True,CORRECT,5.816902120001032,5816.902120001032
1,20260325_120141,D,J,False,MANUAL,2,147,447,fixed_delta,0.04926863410845236,0.011780794413821632,,,,,0.46040303026003826,1657,1943,0,,WHITE,,,0,,WHITE,True,CORRECT,1.4363769769988721,1436.3769769988721
1,20260325_120141,D,J,False,MANUAL,2,148,448,fixed_delta,0.04926863410845236,0.011780794413821632,,,,,0.45735353827232256,1646,1954,0,,WHITE,,,0,,WHITE,True,CORRECT,3.5499805150011525,3549.9805150011525
1,20260325_120141,D,J,False,MANUAL,2,149,449,fixed_delta,0.04926863410845236,0.011780794413821632,,,,,0.5577929656751007,2008,1592,0,,BLACK,,,0,,BLACK,True,CORRECT,1.156812526000067,1156.812526000067
1,20260325_120141,D,J,False,MANUAL,2,150,450,fixed_delta,0.04926863410845236,0.011780794413821632,,,,,0.44323030237577604,1596,2004,0,,WHITE,,,0,,WHITE,True,CORRECT,4.629802288000064,4629.802288000064
1,20260325_120141,D,J,False,MANUAL,2,151,451,fixed_delta,0.04926863410845236,0.011780794413821632,,,,,0.5523638606761078,1989,1611,0,,BLACK,,,0,,BLACK,True,CORRECT,2.5095562759997847,2509.5562759997847
1,20260325_120141,D,J,False,MANUAL,2,152,452,fixed_delta,0.04926863410845236,0.011780794413821632,,,,,0.43258732502999414,1557,2043,0,,WHITE,,,0,,WHITE,True,CORRECT,3.2977954270008922,3297.7954270008922
1,20260325_120141,D,J,False,MANUAL,2,153,453,fixed_delta,0.04926863410845236,0.011780794413821632,,,,,0.547238688139327,1970,1630,0,,BLACK,,,0,,BLACK,True,CORRECT,6.384255167999072,6384.255167999072
1,20260325_120141,D,J,False,MANUAL,2,154,454,fixed_delta,0.04926863410845236,0.011780794413821632,,,,,0.45541635049430723,1639,1961,0,,WHITE,,,0,,WHITE,True,CORRECT,1.606522527999914,1606.522527999914
1,20260325_120141,D,J,False,MANUAL,2,155,455,fixed_delta,0.04926863410845236,0.011780794413821632,,,,,0.5447457690991657,1961,1639,0,,BLACK,,,0,,BLACK,True,CORRECT,3.4677706109996507,3467.7706109996507
1,20260325_120141,D,J,False,MANUAL,2,156,456,fixed_delta,0.04926863410845236,0.011780794413821632,,,,,0.4637671283326979,1670,1930,0,,WHITE,,,0,,WHITE,True,CORRECT,3.3609612860000198,3360.9612860000198
1,20260325_120141,D,J,False,MANUAL,2,157,457,fixed_delta,0.04926863410845236,0.011780794413821632,,,,,0.5310901813233634,1912,1688,0,,BLACK,,,0,,BLACK,True,CORRECT,2.498297991000072,2498.297991000072
1,20260325_120141,D,J,False,MANUAL,2,158,458,fixed_delta,0.04926863410845236,0.011780794413821632,,,,,0.44871053450071213,1615,1985,0,,WHITE,,,0,,BLACK,False,INCORRECT,2.170828217000235,2170.828217000235
1,20260325_120141,D,J,False,MANUAL,2,159,459,fixed_delta,0.04926863410845236,0.011780794413821632,,,,,0.5512672406609551,1985,1615,0,,BLACK,,,0,,BLACK,True,CORRECT,4.581902072000958,4581.902072000958
1,20260325_120141,D,J,False,MANUAL,2,160,460,fixed_delta,0.04926863410845236,0.011780794413821632,,,,,0.4374663909958424,1575,2025,0,,WHITE,,,0,,WHITE,True,CORRECT,3.872773484999925,3872.773484999925
1,20260325_120141,D,J,False,MANUAL,2,161,461,fixed_delta,0.04926863410845236,0.011780794413821632,,,,,0.5633016650745817,2028,1572,0,,BLACK,,,0,,BLACK,True,CORRECT,1.142823276000854,1142.823276000854
1,20260325_120141,D,J,False,MANUAL,2,162,462,fixed_delta,0.04926863410845236,0.011780794413821632,,,,,0.45243114274310126,1629,1971,0,,WHITE,,,0,,WHITE,True,CORRECT,2.2024877660005586,2202.4877660005586
1,20260325_120141,D,J,False,MANUAL,2,163,463,fixed_delta,0.04926863410845236,0.011780794413821632,,,,,0.46080095992407194,1659,1941,0,,WHITE,,,0,,WHITE,True,CORRECT,5.807874218999132,5807.874218999132
1,20260325_120141,D,J,False,MANUAL,2,164,464,fixed_delta,0.04926863410845236,0.011780794413821632,,,,,0.5623331140097277,2024,1576,0,,BLACK,,,0,,BLACK,True,CORRECT,2.4931395349995,2493.1395349995
1,20260325_120141,D,J,False,MANUAL,2,165,465,fixed_delta,0.04926863410845236,0.011780794413821632,,,,,0.5633895447665477,2028,1572,0,,BLACK,,,0,,BLACK,True,CORRECT,4.13018493600066,4130.18493600066
1,20260325_120141,D,J,False,MANUAL,2,166,466,fixed_delta,0.04926863410845236,0.011780794413821632,,,,,0.544012059416513,1958,1642,0,,BLACK,,,0,,WHITE,False,INCORRECT,4.343717351999658,4343.717351999658
1,20260325_120141,D,J,False,MANUAL,2,167,467,fixed_delta,0.04926863410845236,0.011780794413821632,,,,,0.41679618111273364,1500,2100,0,,WHITE,,,0,,WHITE,True,CORRECT,0.8234745850004401,823.4745850004401
1,20260325_120141,D,J,False,MANUAL,2,168,468,fixed_delta,0.04926863410845236,0.011780794413821632,,,,,0.4550207854447612,1638,1962,0,,WHITE,,,0,,WHITE,True,CORRECT,1.6829450919994997,1682.9450919994997
1,20260325_120141,D,J,False,MANUAL,2,169,469,fixed_delta,0.04926863410845236,0.011780794413821632,,,,,0.5286639081759035,1903,1697,0,,BLACK,,,0,,BLACK,True,CORRECT,6.071059186999264,6071.059186999264
1,20260325_120141,D,J,False,MANUAL,2,170,470,fixed_delta,0.04926863410845236,0.011780794413821632,,,,,0.45336415415602555,1632,1968,0,,WHITE,,,0,,WHITE,True,CORRECT,4.15562356800001,4155.62356800001
1,20260325_120141,D,J,False,MANUAL,2,171,471,fixed_delta,0.04926863410845236,0.011780794413821632,,,,,0.4446640225754376,1601,1999,0,,WHITE,,,0,,WHITE,True,CORRECT,2.6862084889999096,2686.2084889999096
1,20260325_120141,D,J,False,MANUAL,2,172,472,fixed_delta,0.04926863410845236,0.011780794413821632,,,,,0.453177221102199,1631,1969,0,,WHITE,,,0,,WHITE,True,CORRECT,3.256317442999716,3256.317442999716
1,20260325_120141,D,J,False,MANUAL,2,173,473,fixed_delta,0.04926863410845236,0.011780794413821632,,,,,0.44843091102966276,1614,1986,0,,WHITE,,,0,,WHITE,True,CORRECT,2.407828788000188,2407.828788000188
1,20260325_120141,D,J,False,MANUAL,2,174,474,fixed_delta,0.04926863410845236,0.011780794413821632,,,,,0.4599517415560298,1656,1944,0,,WHITE,,,0,,WHITE,True,CORRECT,5.156276488000003,5156.276488000003
1,20260325_120141,D,J,False,MANUAL,2,175,475,fixed_delta,0.04926863410845236,0.011780794413821632,,,,,0.4464130638863791,1607,1993,0,,WHITE,,,0,,WHITE,True,CORRECT,6.007567919999929,6007.567919999929
1,20260325_120141,D,J,False,MANUAL,2,176,476,fixed_delta,0.04926863410845236,0.011780794413821632,,,,,0.4585930673485278,1651,1949,0,,WHITE,,,0,,WHITE,True,CORRECT,3.9036899729999277,3903.6899729999277
1,20260325_120141,D,J,False,MANUAL,2,177,477,fixed_delta,0.04926863410845236,0.011780794413821632,,,,,0.45892493522728833,1652,1948,0,,WHITE,,,0,,BLACK,False,INCORRECT,1.4884224670004187,1488.4224670004187
1,20260325_120141,D,J,False,MANUAL,2,178,478,fixed_delta,0.04926863410845236,0.011780794413821632,,,,,0.454708905135145,1637,1963,0,,WHITE,,,0,,BLACK,False,INCORRECT,2.970405275998928,2970.405275998928
1,20260325_120141,D,J,False,MANUAL,2,179,479,fixed_delta,0.04926863410845236,0.011780794413821632,,,,,0.5387235564414498,1939,1661,0,,BLACK,,,0,,BLACK,True,CORRECT,0.829466544000752,829.466544000752
1,20260325_120141,D,J,False,MANUAL,2,180,480,fixed_delta,0.04926863410845236,0.011780794413821632,,,,,0.4549163842704893,1638,1962,0,,WHITE,,,0,,WHITE,True,CORRECT,2.466630028999134,2466.630028999134
1,20260325_120141,D,J,False,MANUAL,2,181,481,fixed_delta,0.04926863410845236,0.011780794413821632,,,,,0.4227238559385574,1522,2078,0,,WHITE,,,0,,WHITE,True,CORRECT,2.10872421699969,2108.72421699969
1,20260325_120141,D,J,False,MANUAL,2,182,482,fixed_delta,0.04926863410845236,0.011780794413821632,,,,,0.5530742440095434,1991,1609,0,,BLACK,,,0,,BLACK,True,CORRECT,3.9438678279984742,3943.8678279984742
1,20260325_120141,D,J,False,MANUAL,2,183,483,fixed_delta,0.04926863410845236,0.011780794413821632,,,,,0.5516646859905382,1986,1614,0,,BLACK,,,0,,BLACK,True,CORRECT,3.543212743999902,3543.212743999902
1,20260325_120141,D,J,False,MANUAL,2,184,484,fixed_delta,0.04926863410845236,0.011780794413821632,,,,,0.4468697562162949,1609,1991,0,,WHITE,,,0,,WHITE,True,CORRECT,3.774369487000513,3774.369487000513
1,20260325_120141,D,J,False,MANUAL,2,185,485,fixed_delta,0.04926863410845236,0.011780794413821632,,,,,0.5418431930256711,1951,1649,0,,BLACK,,,0,,WHITE,False,INCORRECT,6.990852812999947,6990.852812999947
1,20260325_120141,D,J,False,MANUAL,2,186,486,fixed_delta,0.04926863410845236,0.011780794413821632,,,,,0.5559201642379947,2001,1599,0,,BLACK,,,0,,BLACK,True,CORRECT,4.798011314000178,4798.011314000178
1,20260325_120141,D,J,False,MANUAL,2,187,487,fixed_delta,0.04926863410845236,0.011780794413821632,,,,,0.5553543436327979,1999,1601,0,,BLACK,,,0,,BLACK,True,CORRECT,1.7941391660006047,1794.1391660006047
1,20260325_120141,D,J,False,MANUAL,2,188,488,fixed_delta,0.04926863410845236,0.011780794413821632,,,,,0.5662665071932691,2039,1561,0,,BLACK,,,0,,BLACK,True,CORRECT,1.8506048599992937,1850.6048599992937
1,20260325_120141,D,J,False,MANUAL,2,189,489,fixed_delta,0.04926863410845236,0.011780794413821632,,,,,0.540866843586906,1947,1653,0,,BLACK,,,0,,BLACK,True,CORRECT,2.126788129999113,2126.788129999113
1,20260325_120141,D,J,False,MANUAL,2,190,490,fixed_delta,0.04926863410845236,0.011780794413821632,,,,,0.43643885669486826,1571,2029,0,,WHITE,,,0,,WHITE,True,CORRECT,1.2395957249991625,1239.5957249991625
1,20260325_120141,D,J,False,MANUAL,2,191,491,fixed_delta,0.04926863410845236,0.011780794413821632,,,,,0.5650181270362721,2034,1566,0,,BLACK,,,0,,BLACK,True,CORRECT,5.348502025999551,5348.502025999551
1,20260325_120141,D,J,False,MANUAL,2,192,492,fixed_delta,0.04926863410845236,0.011780794413821632,,,,,0.5338795790768587,1922,1678,0,,BLACK,,,0,,BLACK,True,CORRECT,5.817595902999528,5817.595902999528
1,20260325_120141,D,J,False,MANUAL,2,193,493,fixed_delta,0.04926863410845236,0.011780794413821632,,,,,0.46359512196869646,1669,1931,0,,WHITE,,,0,,WHITE,True,CORRECT,4.525099852999119,4525.099852999119
1,20260325_120141,D,J,False,MANUAL,2,194,494,fixed_delta,0.04926863410845236,0.011780794413821632,,,,,0.46590669679981006,1677,1923,0,,WHITE,,,0,,WHITE,True,CORRECT,3.410426644999461,3410.426644999461
1,20260325_120141,D,J,False,MANUAL,2,195,495,fixed_delta,0.04926863410845236,0.011780794413821632,,,,,0.5634155777603245,2028,1572,0,,BLACK,,,0,,BLACK,True,CORRECT,6.192039246001514,6192.039246001514
1,20260325_120141,D,J,False,MANUAL,2,196,496,fixed_delta,0.04926863410845236,0.011780794413821632,,,,,0.5629761114667321,2027,1573,0,,BLACK,,,0,,BLACK,True,CORRECT,5.929551667000851,5929.551667000851
1,20260325_120141,D,J,False,MANUAL,2,197,497,fixed_delta,0.04926863410845236,0.011780794413821632,,,,,0.5492358374483044,1977,1623,0,,BLACK,,,0,,BLACK,True,CORRECT,3.5854650379988016,3585.4650379988016
1,20260325_120141,D,J,False,MANUAL,2,198,498,fixed_delta,0.04926863410845236,0.011780794413821632,,,,,0.4463012150362098,1607,1993,0,,WHITE,,,0,,WHITE,True,CORRECT,3.318575283001337,3318.575283001337
1,20260325_120141,D,J,False,MANUAL,2,199,499,fixed_delta,0.04926863410845236,0.011780794413821632,,,,,0.549786458769747,1979,1621,0,,BLACK,,,0,,WHITE,False,INCORRECT,5.584041113999774,5584.041113999774
1,20260325_120141,D,J,False,MANUAL,2,200,500,fixed_delta,0.04926863410845236,0.011780794413821632,,,,,0.46984733781651516,1691,1909,0,,WHITE,,,0,,WHITE,True,CORRECT,7.511981663999904,7511.981663999904
1,20260325_120141,D,J,False,MANUAL,2,201,501,fixed_delta,0.04926863410845236,0.011780794413821632,,,,,0.5429909417537067,1955,1645,0,,BLACK,,,0,,BLACK,True,CORRECT,2.5575033639997855,2557.5033639997855
1,20260325_120141,D,J,False,MANUAL,2,202,502,fixed_delta,0.04926863410845236,0.011780794413821632,,,,,0.4526132386391522,1629,1971,0,,WHITE,,,0,,WHITE,True,CORRECT,4.731648762000987,4731.648762000987
1,20260325_120141,D,J,False,MANUAL,2,203,503,fixed_delta,0.04926863410845236,0.011780794413821632,,,,,0.452914241758009,1630,1970,0,,WHITE,,,0,,WHITE,True,CORRECT,6.044782245000533,6044.782245000533
1,20260325_120141,D,J,False,MANUAL,2,204,504,fixed_delta,0.04926863410845236,0.011780794413821632,,,,,0.46240560683988075,1665,1935,0,,WHITE,,,0,,WHITE,True,CORRECT,7.05778054700022,7057.78054700022
1,20260325_120141,D,J,False,MANUAL,2,205,505,fixed_delta,0.04926863410845236,0.011780794413821632,,,,,0.4397690556331696,1583,2017,0,,WHITE,,,0,,WHITE,True,CORRECT,2.7830614630001946,2783.0614630001946
1,20260325_120141,D,J,False,MANUAL,2,206,506,fixed_delta,0.04926863410845236,0.011780794413821632,,,,,0.4521034377200897,1628,1972,0,,WHITE,,,0,,WHITE,True,CORRECT,3.6545249020000483,3654.5249020000483
1,20260325_120141,D,J,False,MANUAL,2,207,507,fixed_delta,0.04926863410845236,0.011780794413821632,,,,,0.4599998664204574,1656,1944,0,,WHITE,,,0,,WHITE,True,CORRECT,4.776019364999229,4776.019364999229
1,20260325_120141,D,J,False,MANUAL,2,208,508,fixed_delta,0.04926863410845236,0.011780794413821632,,,,,0.5402074351945755,1945,1655,0,,BLACK,,,0,,BLACK,True,CORRECT,8.536286627000663,8536.286627000663
1,20260325_120141,D,J,False,MANUAL,2,209,509,fixed_delta,0.04926863410845236,0.011780794413821632,,,,,0.5409315700917583,1947,1653,0,,BLACK,,,0,,BLACK,True,CORRECT,3.4348587050008064,3434.8587050008064
1,20260325_120141,D,J,False,MANUAL,2,210,510,fixed_delta,0.04926863410845236,0.011780794413821632,,,,,0.5301827080774788,1909,1691,0,,BLACK,,,0,,BLACK,True,CORRECT,1.5551609060003102,1555.1609060003102
1,20260325_120141,D,J,False,MANUAL,2,211,511,fixed_delta,0.04926863410845236,0.011780794413821632,,,,,0.5406309405134802,1946,1654,0,,BLACK,,,0,,BLACK,True,CORRECT,6.622873165999408,6622.873165999408
1,20260325_120141,D,J,False,MANUAL,2,212,512,fixed_delta,0.04926863410845236,0.011780794413821632,,,,,0.5406254179456144,1946,1654,0,,BLACK,,,0,,WHITE,False,INCORRECT,7.490413677000106,7490.413677000106
1,20260325_120141,D,J,False,MANUAL,2,213,513,fixed_delta,0.04926863410845236,0.011780794413821632,,,,,0.4444404568140685,1600,2000,0,,WHITE,,,0,,WHITE,True,CORRECT,6.0194427679998626,6019.442767999863
1,20260325_120141,D,J,False,MANUAL,2,214,514,fixed_delta,0.04926863410845236,0.011780794413821632,,,,,0.4619174306072708,1663,1937,0,,WHITE,,,0,,WHITE,True,CORRECT,4.666055110999878,4666.055110999878
1,20260325_120141,D,J,False,MANUAL,2,215,515,fixed_delta,0.04926863410845236,0.011780794413821632,,,,,0.562491544712943,2025,1575,0,,BLACK,,,0,,BLACK,True,CORRECT,9.544337700999677,9544.337700999677
1,20260325_120141,D,J,False,MANUAL,2,216,516,fixed_delta,0.04926863410845236,0.011780794413821632,,,,,0.44889546870906577,1616,1984,0,,WHITE,,,0,,WHITE,True,CORRECT,4.725806135998937,4725.806135998937
1,20260325_120141,D,J,False,MANUAL,2,217,517,fixed_delta,0.04926863410845236,0.011780794413821632,,,,,0.54212049406484,1952,1648,0,,BLACK,,,0,,BLACK,True,CORRECT,4.328336929000216,4328.336929000216
1,20260325_120141,D,J,False,MANUAL,2,218,518,fixed_delta,0.04926863410845236,0.011780794413821632,,,,,0.4504711901554684,1622,1978,0,,WHITE,,,0,,WHITE,True,CORRECT,1.4155027739998332,1415.5027739998332
1,20260325_120141,D,J,False,MANUAL,2,219,519,fixed_delta,0.04926863410845236,0.011780794413821632,,,,,0.537820868588054,1936,1664,0,,BLACK,,,0,,BLACK,True,CORRECT,2.618491121000261,2618.491121000261
1,20260325_120141,D,J,False,MANUAL,2,220,520,fixed_delta,0.04926863410845236,0.011780794413821632,,,,,0.4614493868400782,1661,1939,0,,WHITE,,,0,,WHITE,True,CORRECT,2.889008443000421,2889.008443000421
1,20260325_120141,D,J,False,MANUAL,2,221,521,fixed_delta,0.04926863410845236,0.011780794413821632,,,,,0.5494217287911798,1978,1622,0,,BLACK,,,0,,BLACK,True,CORRECT,2.9017026700003044,2901.7026700003044
1,20260325_120141,D,J,False,MANUAL,2,222,522,fixed_delta,0.04926863410845236,0.011780794413821632,,,,,0.479142379150118,1725,1875,0,,WHITE,,,0,,WHITE,True,CORRECT,3.9692021970004134,3969.2021970004134
1,20260325_120141,D,J,False,MANUAL,2,223,523,fixed_delta,0.04926863410845236,0.011780794413821632,,,,,0.5440012396900955,1958,1642,0,,BLACK,,,0,,WHITE,False,INCORRECT,2.9236005719994864,2923.6005719994864
1,20260325_120141,D,J,False,MANUAL,2,224,524,fixed_delta,0.04926863410845236,0.011780794413821632,,,,,0.5594005852168815,2014,1586,0,,BLACK,,,0,,WHITE,False,INCORRECT,7.735427164001521,7735.427164001521
1,20260325_120141,D,J,False,MANUAL,2,225,525,fixed_delta,0.04926863410845236,0.011780794413821632,,,,,0.4618139729904251,1663,1937,0,,WHITE,,,0,,WHITE,True,CORRECT,4.21368745899963,4213.68745899963
1,20260325_120141,D,J,False,MANUAL,2,226,526,fixed_delta,0.04926863410845236,0.011780794413821632,,,,,0.44168081069068044,1590,2010,0,,WHITE,,,0,,WHITE,True,CORRECT,5.132254869000462,5132.254869000462
1,20260325_120141,D,J,False,MANUAL,2,227,527,fixed_delta,0.04926863410845236,0.011780794413821632,,,,,0.475378975958154,1711,1889,0,,WHITE,,,0,,WHITE,True,CORRECT,4.640753191999465,4640.753191999465
1,20260325_120141,D,J,False,MANUAL,2,228,528,fixed_delta,0.04926863410845236,0.011780794413821632,,,,,0.450113158519319,1620,1980,0,,WHITE,,,0,,WHITE,True,CORRECT,4.36123140699965,4361.23140699965
1,20260325_120141,D,J,False,MANUAL,2,229,529,fixed_delta,0.04926863410845236,0.011780794413821632,,,,,0.4726861196467295,1702,1898,0,,WHITE,,,0,,WHITE,True,CORRECT,5.029473033999238,5029.473033999238
1,20260325_120141,D,J,False,MANUAL,2,230,530,fixed_delta,0.04926863410845236,0.011780794413821632,,,,,0.42646942871595206,1535,2065,0,,WHITE,,,0,,WHITE,True,CORRECT,4.492135667000184,4492.135667000184
1,20260325_120141,D,J,False,MANUAL,2,231,531,fixed_delta,0.04926863410845236,0.011780794413821632,,,,,0.4278937546710956,1540,2060,0,,WHITE,,,0,,WHITE,True,CORRECT,2.5651439989997016,2565.1439989997016
1,20260325_120141,D,J,False,MANUAL,2,232,532,fixed_delta,0.04926863410845236,0.011780794413821632,,,,,0.4552151841292535,1639,1961,0,,WHITE,,,0,,WHITE,True,CORRECT,5.1096006850002595,5109.60068500026
1,20260325_120141,D,J,False,MANUAL,2,233,533,fixed_delta,0.04926863410845236,0.011780794413821632,,,,,0.451473565897163,1625,1975,0,,WHITE,,,0,,WHITE,True,CORRECT,2.742036587000257,2742.036587000257
1,20260325_120141,D,J,False,MANUAL,2,234,534,fixed_delta,0.04926863410845236,0.011780794413821632,,,,,0.4484681640463266,1614,1986,0,,WHITE,,,0,,WHITE,True,CORRECT,2.129549744000542,2129.549744000542
1,20260325_120141,D,J,False,MANUAL,2,235,535,fixed_delta,0.04926863410845236,0.011780794413821632,,,,,0.5433928916183589,1956,1644,0,,BLACK,,,0,,WHITE,False,INCORRECT,9.368293036999603,9368.293036999603
1,20260325_120141,D,J,False,MANUAL,2,236,536,fixed_delta,0.04926863410845236,0.011780794413821632,,,,,0.5242245907486077,1887,1713,0,,BLACK,,,0,,BLACK,True,CORRECT,1.303824643000553,1303.824643000553
1,20260325_120141,D,J,False,MANUAL,2,237,537,fixed_delta,0.04926863410845236,0.011780794413821632,,,,,0.5350849813501156,1926,1674,0,,BLACK,,,0,,WHITE,False,INCORRECT,7.643011820000538,7643.011820000538
1,20260325_120141,D,J,False,MANUAL,2,238,538,fixed_delta,0.04926863410845236,0.011780794413821632,,,,,0.5341665315066473,1923,1677,0,,BLACK,,,0,,BLACK,True,CORRECT,3.09397357799935,3093.97357799935
1,20260325_120141,D,J,False,MANUAL,2,239,539,fixed_delta,0.04926863410845236,0.011780794413821632,,,,,0.45775065033592943,1648,1952,0,,WHITE,,,0,,WHITE,True,CORRECT,1.0877748950006207,1087.7748950006207
1,20260325_120141,D,J,False,MANUAL,2,240,540,fixed_delta,0.04926863410845236,0.011780794413821632,,,,,0.44596512345747313,1605,1995,0,,WHITE,,,0,,WHITE,True,CORRECT,4.22490908600048,4224.90908600048
1,20260325_120141,D,J,False,MANUAL,2,241,541,fixed_delta,0.04926863410845236,0.011780794413821632,,,,,0.4611804676558178,1660,1940,0,,WHITE,,,0,,WHITE,True,CORRECT,3.8296900929999538,3829.690092999954
1,20260325_120141,D,J,False,MANUAL,2,242,542,fixed_delta,0.04926863410845236,0.011780794413821632,,,,,0.5418931550407647,1951,1649,0,,BLACK,,,0,,WHITE,False,INCORRECT,7.715462781001406,7715.462781001406
1,20260325_120141,D,J,False,MANUAL,2,243,543,fixed_delta,0.04926863410845236,0.011780794413821632,,,,,0.4419575181914449,1591,2009,0,,WHITE,,,0,,WHITE,True,CORRECT,6.602874529999099,6602.874529999099
1,20260325_120141,D,J,False,MANUAL,2,244,544,fixed_delta,0.04926863410845236,0.011780794413821632,,,,,0.466427638076362,1679,1921,0,,WHITE,,,0,,WHITE,True,CORRECT,7.011842396999782,7011.842396999782
1,20260325_120141,D,J,False,MANUAL,2,245,545,fixed_delta,0.04926863410845236,0.011780794413821632,,,,,0.5588693848746511,2012,1588,0,,BLACK,,,0,,BLACK,True,CORRECT,1.5512944669990247,1551.2944669990247
1,20260325_120141,D,J,False,MANUAL,2,246,546,fixed_delta,0.04926863410845236,0.011780794413821632,,,,,0.45846248780608534,1650,1950,0,,WHITE,,,0,,BLACK,False,INCORRECT,1.1746769279998261,1174.6769279998261
1,20260325_120141,D,J,False,MANUAL,2,247,547,fixed_delta,0.04926863410845236,0.011780794413821632,,,,,0.5460282155002429,1966,1634,0,,BLACK,,,0,,BLACK,True,CORRECT,4.721408466999492,4721.408466999492
1,20260325_120141,D,J,False,MANUAL,2,248,548,fixed_delta,0.04926863410845236,0.011780794413821632,,,,,0.45027674661713835,1621,1979,0,,WHITE,,,0,,WHITE,True,CORRECT,4.139356461000716,4139.356461000716
1,20260325_120141,D,J,False,MANUAL,2,249,549,fixed_delta,0.04926863410845236,0.011780794413821632,,,,,0.5484609602604319,1974,1626,0,,BLACK,,,0,,BLACK,True,CORRECT,5.427564512998288,5427.564512998288
1,20260325_120141,D,J,False,MANUAL,2,250,550,fixed_delta,0.04926863410845236,0.011780794413821632,,,,,0.5374703183009183,1935,1665,0,,BLACK,,,0,,BLACK,True,CORRECT,6.325122808999367,6325.122808999367
1,20260325_120141,D,J,False,MANUAL,2,251,551,fixed_delta,0.04926863410845236,0.011780794413821632,,,,,0.52219357781998,1880,1720,0,,BLACK,,,0,,BLACK,True,CORRECT,5.358779276999485,5358.779276999485
1,20260325_120141,D,J,False,MANUAL,2,252,552,fixed_delta,0.04926863410845236,0.011780794413821632,,,,,0.5359980942900459,1930,1670,0,,BLACK,,,0,,BLACK,True,CORRECT,1.454578205000871,1454.578205000871
1,20260325_120141,D,J,False,MANUAL,2,253,553,fixed_delta,0.04926863410845236,0.011780794413821632,,,,,0.5619554459118749,2023,1577,0,,BLACK,,,0,,BLACK,True,CORRECT,3.666278960999989,3666.278960999989
1,20260325_120141,D,J,False,MANUAL,2,254,554,fixed_delta,0.04926863410845236,0.011780794413821632,,,,,0.5417598958751105,1950,1650,0,,BLACK,,,0,,BLACK,True,CORRECT,3.987731237000844,3987.731237000844
1,20260325_120141,D,J,False,MANUAL,2,255,555,fixed_delta,0.04926863410845236,0.011780794413821632,,,,,0.5498413041102524,1979,1621,0,,BLACK,,,0,,BLACK,True,CORRECT,2.6112708439995913,2611.2708439995913
1,20260325_120141,D,J,False,MANUAL,2,256,556,fixed_delta,0.04926863410845236,0.011780794413821632,,,,,0.4545340004588203,1636,1964,0,,WHITE,,,0,,WHITE,True,CORRECT,1.9350586679993285,1935.0586679993285
1,20260325_120141,D,J,False,MANUAL,2,257,557,fixed_delta,0.04926863410845236,0.011780794413821632,,,,,0.42758260637757994,1539,2061,0,,WHITE,,,0,,WHITE,True,CORRECT,2.7385700729992095,2738.5700729992095
1,20260325_120141,D,J,False,MANUAL,2,258,558,fixed_delta,0.04926863410845236,0.011780794413821632,,,,,0.5642909690559968,2031,1569,0,,BLACK,,,0,,BLACK,True,CORRECT,3.2567798649997712,3256.7798649997712
1,20260325_120141,D,J,False,MANUAL,2,259,559,fixed_delta,0.04926863410845236,0.011780794413821632,,,,,0.561215226109691,2020,1580,0,,BLACK,,,0,,BLACK,True,CORRECT,3.4216524789990217,3421.6524789990217
1,20260325_120141,D,J,False,MANUAL,2,260,560,fixed_delta,0.04926863410845236,0.011780794413821632,,,,,0.5446133083266821,1961,1639,0,,BLACK,,,0,,BLACK,True,CORRECT,2.463011177000226,2463.011177000226
1,20260325_120141,D,J,False,MANUAL,2,261,561,fixed_delta,0.04926863410845236,0.011780794413821632,,,,,0.5411958785775978,1948,1652,0,,BLACK,,,0,,BLACK,True,CORRECT,5.257083337999575,5257.083337999575
1,20260325_120141,D,J,False,MANUAL,2,262,562,fixed_delta,0.04926863410845236,0.011780794413821632,,,,,0.5502588489970486,1981,1619,0,,BLACK,,,0,,BLACK,True,CORRECT,5.245241241998883,5245.241241998883
1,20260325_120141,D,J,False,MANUAL,2,263,563,fixed_delta,0.04926863410845236,0.011780794413821632,,,,,0.5579684669420224,2009,1591,0,,BLACK,,,0,,WHITE,False,INCORRECT,7.206157997999981,7206.157997999981
1,20260325_120141,D,J,False,MANUAL,2,264,564,fixed_delta,0.04926863410845236,0.011780794413821632,,,,,0.5686742721662633,2047,1553,0,,BLACK,,,0,,BLACK,True,CORRECT,1.0635513610013732,1063.5513610013732
1,20260325_120141,D,J,False,MANUAL,2,265,565,fixed_delta,0.04926863410845236,0.011780794413821632,,,,,0.5456579740158938,1964,1636,0,,BLACK,,,0,,WHITE,False,INCORRECT,7.477382924998892,7477.382924998892
1,20260325_120141,D,J,False,MANUAL,2,266,566,fixed_delta,0.04926863410845236,0.011780794413821632,,,,,0.45393274955696106,1634,1966,0,,WHITE,,,0,,WHITE,True,CORRECT,3.0047320909998234,3004.7320909998234
1,20260325_120141,D,J,False,MANUAL,2,267,567,fixed_delta,0.04926863410845236,0.011780794413821632,,,,,0.4486258230675867,1615,1985,0,,WHITE,,,0,,WHITE,True,CORRECT,2.3903024130013364,2390.3024130013364
1,20260325_120141,D,J,False,MANUAL,2,268,568,fixed_delta,0.04926863410845236,0.011780794413821632,,,,,0.4629108708448752,1666,1934,0,,WHITE,,,0,,WHITE,True,CORRECT,3.3275506010013487,3327.5506010013487
1,20260325_120141,D,J,False,MANUAL,2,269,569,fixed_delta,0.04926863410845236,0.011780794413821632,,,,,0.44120432469884585,1588,2012,0,,WHITE,,,0,,WHITE,True,CORRECT,1.8099757010004396,1809.9757010004396
1,20260325_120141,D,J,False,MANUAL,2,270,570,fixed_delta,0.04926863410845236,0.011780794413821632,,,,,0.4487094034974518,1615,1985,0,,WHITE,,,0,,WHITE,True,CORRECT,1.5684581749992503,1568.4581749992503
1,20260325_120141,D,J,False,MANUAL,2,271,571,fixed_delta,0.04926863410845236,0.011780794413821632,,,,,0.45668045164635995,1644,1956,0,,WHITE,,,0,,WHITE,True,CORRECT,6.46389275400179,6463.89275400179
1,20260325_120141,D,J,False,MANUAL,2,272,572,fixed_delta,0.04926863410845236,0.011780794413821632,,,,,0.5438579504334335,1958,1642,0,,BLACK,,,0,,BLACK,True,CORRECT,3.1911726919988723,3191.1726919988723
1,20260325_120141,D,J,False,MANUAL,2,273,573,fixed_delta,0.04926863410845236,0.011780794413821632,,,,,0.5596166821360962,2015,1585,0,,BLACK,,,0,,BLACK,True,CORRECT,1.0714200509992224,1071.4200509992224
1,20260325_120141,D,J,False,MANUAL,2,274,574,fixed_delta,0.04926863410845236,0.011780794413821632,,,,,0.5263560621943871,1895,1705,0,,BLACK,,,0,,BLACK,True,CORRECT,6.147783423000874,6147.783423000874
1,20260325_120141,D,J,False,MANUAL,2,275,575,fixed_delta,0.04926863410845236,0.011780794413821632,,,,,0.45627452048631056,1643,1957,0,,WHITE,,,0,,WHITE,True,CORRECT,1.9038269869997748,1903.8269869997748
1,20260325_120141,D,J,False,MANUAL,2,276,576,fixed_delta,0.04926863410845236,0.011780794413821632,,,,,0.5380824607726158,1937,1663,0,,BLACK,,,0,,WHITE,False,INCORRECT,2.4067233610003314,2406.7233610003314
1,20260325_120141,D,J,False,MANUAL,2,277,577,fixed_delta,0.04926863410845236,0.011780794413821632,,,,,0.5693365909331671,2050,1550,0,,BLACK,,,0,,BLACK,True,CORRECT,6.604926433999935,6604.926433999935
1,20260325_120141,D,J,False,MANUAL,2,278,578,fixed_delta,0.04926863410845236,0.011780794413821632,,,,,0.5502181459874808,1981,1619,0,,BLACK,,,0,,BLACK,True,CORRECT,4.31185048000043,4311.85048000043
1,20260325_120141,D,J,False,MANUAL,2,279,579,fixed_delta,0.04926863410845236,0.011780794413821632,,,,,0.45961132971671675,1655,1945,0,,WHITE,,,0,,WHITE,True,CORRECT,4.906304357000408,4906.304357000408
1,20260325_120141,D,J,False,MANUAL,2,280,580,fixed_delta,0.04926863410845236,0.011780794413821632,,,,,0.5533975516943895,1992,1608,0,,BLACK,,,0,,BLACK,True,CORRECT,1.7675284030010516,1767.5284030010516
1,20260325_120141,D,J,False,MANUAL,2,281,581,fixed_delta,0.04926863410845236,0.011780794413821632,,,,,0.4585544552576632,1651,1949,0,,WHITE,,,0,,WHITE,True,CORRECT,1.4332869509999,1433.2869509999
1,20260325_120141,D,J,False,MANUAL,2,282,582,fixed_delta,0.04926863410845236,0.011780794413821632,,,,,0.5465206227270791,1967,1633,0,,BLACK,,,0,,WHITE,False,INCORRECT,3.681732697999905,3681.732697999905
1,20260325_120141,D,J,False,MANUAL,2,283,583,fixed_delta,0.04926863410845236,0.011780794413821632,,,,,0.5642691533598614,2031,1569,0,,BLACK,,,0,,BLACK,True,CORRECT,1.8024648699993122,1802.4648699993122
1,20260325_120141,D,J,False,MANUAL,2,284,584,fixed_delta,0.04926863410845236,0.011780794413821632,,,,,0.4640053238200361,1670,1930,0,,WHITE,,,0,,WHITE,True,CORRECT,0.9667834190004214,966.7834190004214
1,20260325_120141,D,J,False,MANUAL,2,285,585,fixed_delta,0.04926863410845236,0.011780794413821632,,,,,0.4535775173791402,1633,1967,0,,WHITE,,,0,,WHITE,True,CORRECT,2.5740123499999754,2574.0123499999754
1,20260325_120141,D,J,False,MANUAL,2,286,586,fixed_delta,0.04926863410845236,0.011780794413821632,,,,,0.5576167647100468,2007,1593,0,,BLACK,,,0,,BLACK,True,CORRECT,3.64431405400137,3644.31405400137
1,20260325_120141,D,J,False,MANUAL,2,287,587,fixed_delta,0.04926863410845236,0.011780794413821632,,,,,0.5503864356164572,1981,1619,0,,BLACK,,,0,,BLACK,True,CORRECT,5.607135184998697,5607.135184998697
1,20260325_120141,D,J,False,MANUAL,2,288,588,fixed_delta,0.04926863410845236,0.011780794413821632,,,,,0.4576608667192469,1648,1952,0,,WHITE,,,0,,WHITE,True,CORRECT,5.556064116999551,5556.064116999551
1,20260325_120141,D,J,False,MANUAL,2,289,589,fixed_delta,0.04926863410845236,0.011780794413821632,,,,,0.5519545484806555,1987,1613,0,,BLACK,,,0,,BLACK,True,CORRECT,8.391311990000759,8391.311990000759
1,20260325_120141,D,J,False,MANUAL,2,290,590,fixed_delta,0.04926863410845236,0.011780794413821632,,,,,0.4473920312078414,1611,1989,0,,WHITE,,,0,,WHITE,True,CORRECT,4.01067657600106,4010.6765760010603
1,20260325_120141,D,J,False,MANUAL,2,291,591,fixed_delta,0.04926863410845236,0.011780794413821632,,,,,0.5391380550381564,1941,1659,0,,BLACK,,,0,,BLACK,True,CORRECT,6.954062150000027,6954.062150000027
1,20260325_120141,D,J,False,MANUAL,2,292,592,fixed_delta,0.04926863410845236,0.011780794413821632,,,,,0.5408975750806015,1947,1653,0,,BLACK,,,0,,BLACK,True,CORRECT,3.620871139000883,3620.871139000883
1,20260325_120141,D,J,False,MANUAL,2,293,593,fixed_delta,0.04926863410845236,0.011780794413821632,,,,,0.46547373426340527,1676,1924,0,,WHITE,,,0,,WHITE,True,CORRECT,2.858514715000638,2858.514715000638
1,20260325_120141,D,J,False,MANUAL,2,294,594,fixed_delta,0.04926863410845236,0.011780794413821632,,,,,0.4570265880840133,1645,1955,0,,WHITE,,,0,,WHITE,True,CORRECT,4.406426797999302,4406.426797999302
1,20260325_120141,D,J,False,MANUAL,2,295,595,fixed_delta,0.04926863410845236,0.011780794413821632,,,,,0.5464805300121159,1967,1633,0,,BLACK,,,0,,WHITE,False,INCORRECT,4.486175557000024,4486.175557000024
1,20260325_120141,D,J,False,MANUAL,2,296,596,fixed_delta,0.04926863410845236,0.011780794413821632,,,,,0.55324060521905,1992,1608,0,,BLACK,,,0,,BLACK,True,CORRECT,4.843222028999662,4843.222028999662
1,20260325_120141,D,J,False,MANUAL,2,297,597,fixed_delta,0.04926863410845236,0.011780794413821632,,,,,0.44659068222075055,1608,1992,0,,WHITE,,,0,,WHITE,True,CORRECT,4.093466083999374,4093.466083999374
1,20260325_120141,D,J,False,MANUAL,2,298,598,fixed_delta,0.04926863410845236,0.011780794413821632,,,,,0.5482954651864218,1974,1626,0,,BLACK,,,0,,WHITE,False,INCORRECT,5.7011733620001905,5701.1733620001905
1,20260325_120141,D,J,False,MANUAL,2,299,599,fixed_delta,0.04926863410845236,0.011780794413821632,,,,,0.4642661692170688,1671,1929,0,,WHITE,,,0,,WHITE,True,CORRECT,6.884537459000057,6884.537459000057
1,20260325_120141,D,J,False,MANUAL,2,300,600,fixed_delta,0.04926863410845236,0.011780794413821632,,,,,0.5522393618996406,1988,1612,0,,BLACK,,,0,,BLACK,True,CORRECT,8.353554115999941,8353.554115999941
1,20260325_120141,D,J,False,MANUAL,2,301,601,fixed_delta,0.04926863410845236,0.011780794413821632,,,,,0.43791491725304643,1576,2024,0,,WHITE,,,0,,WHITE,True,CORRECT,6.407277125999826,6407.277125999826
1,20260325_120141,D,J,False,MANUAL,2,302,602,fixed_delta,0.04926863410845236,0.011780794413821632,,,,,0.4548494400331821,1637,1963,0,,WHITE,,,0,,WHITE,True,CORRECT,4.2399577899996075,4239.9577899996075
1,20260325_120141,D,J,False,MANUAL,2,303,603,fixed_delta,0.04926863410845236,0.011780794413821632,,,,,0.45615891667032105,1642,1958,0,,WHITE,,,0,,WHITE,True,CORRECT,5.30987399300102,5309.87399300102
1,20260325_120141,D,J,False,MANUAL,2,304,604,fixed_delta,0.04926863410845236,0.011780794413821632,,,,,0.5388764654204685,1940,1660,0,,BLACK,,,0,,BLACK,True,CORRECT,3.9421497430012096,3942.1497430012096
1,20260325_120141,D,J,False,MANUAL,2,305,605,fixed_delta,0.04926863410845236,0.011780794413821632,,,,,0.5466132462187271,1968,1632,0,,BLACK,,,0,,BLACK,True,CORRECT,5.570257986000797,5570.257986000797
1,20260325_120141,D,J,False,MANUAL,2,306,606,fixed_delta,0.04926863410845236,0.011780794413821632,,,,,0.4642572920563579,1671,1929,0,,WHITE,,,0,,WHITE,True,CORRECT,4.392011181998896,4392.011181998896
1,20260325_120141,D,J,False,MANUAL,2,307,607,fixed_delta,0.04926863410845236,0.011780794413821632,,,,,0.557464751359525,2007,1593,0,,BLACK,,,0,,BLACK,True,CORRECT,3.66587422900011,3665.87422900011
1,20260325_120141,D,J,False,MANUAL,2,308,608,fixed_delta,0.04926863410845236,0.011780794413821632,,,,,0.5631880729938942,2027,1573,0,,BLACK,,,0,,BLACK,True,CORRECT,3.9339448290011205,3933.9448290011205
1,20260325_120141,D,J,False,MANUAL,2,309,609,fixed_delta,0.04926863410845236,0.011780794413821632,,,,,0.5690766650792162,2049,1551,0,,BLACK,,,0,,BLACK,True,CORRECT,2.850473555001372,2850.473555001372
1,20260325_120141,D,J,False,MANUAL,2,310,610,fixed_delta,0.04926863410845236,0.011780794413821632,,,,,0.45509491035479827,1638,1962,0,,WHITE,,,0,,WHITE,True,CORRECT,3.894682805001139,3894.682805001139
1,20260325_120141,D,J,False,MANUAL,2,311,611,fixed_delta,0.04926863410845236,0.011780794413821632,,,,,0.4609263376940841,1659,1941,0,,WHITE,,,0,,WHITE,True,CORRECT,5.627760899998975,5627.760899998975
1,20260325_120141,D,J,False,MANUAL,2,312,612,fixed_delta,0.04926863410845236,0.011780794413821632,,,,,0.4384542847516453,1578,2022,0,,WHITE,,,0,,WHITE,True,CORRECT,3.25844536600016,3258.44536600016
1,20260325_120141,D,J,False,MANUAL,2,313,613,fixed_delta,0.04926863410845236,0.011780794413821632,,,,,0.461419774855578,1661,1939,0,,WHITE,,,0,,WHITE,True,CORRECT,4.503931790999559,4503.931790999559
1,20260325_120141,D,J,False,MANUAL,2,314,614,fixed_delta,0.04926863410845236,0.011780794413821632,,,,,0.5552262576026015,1999,1601,0,,BLACK,,,0,,BLACK,True,CORRECT,5.865821526000218,5865.821526000218
1,20260325_120141,D,J,False,MANUAL,2,315,615,fixed_delta,0.04926863410845236,0.011780794413821632,,,,,0.555031719788239,1998,1602,0,,BLACK,,,0,,BLACK,True,CORRECT,5.071284239000306,5071.284239000306
1,20260325_120141,D,J,False,MANUAL,2,316,616,fixed_delta,0.04926863410845236,0.011780794413821632,,,,,0.5240572317392913,1887,1713,0,,BLACK,,,0,,WHITE,False,INCORRECT,9.67436729399924,9674.36729399924
1,20260325_120141,D,J,False,MANUAL,2,317,617,fixed_delta,0.04926863410845236,0.011780794413821632,,,,,0.42932489597790713,1546,2054,0,,WHITE,,,0,,WHITE,True,CORRECT,2.7996708059999946,2799.6708059999946
1,20260325_120141,D,J,False,MANUAL,2,318,618,fixed_delta,0.04926863410845236,0.011780794413821632,,,,,0.46068037746062157,1658,1942,0,,WHITE,,,0,,WHITE,True,CORRECT,3.624311512001441,3624.311512001441
1,20260325_120141,D,J,False,MANUAL,2,319,619,fixed_delta,0.04926863410845236,0.011780794413821632,,,,,0.5246580436963028,1889,1711,0,,BLACK,,,0,,WHITE,False,INCORRECT,4.621362406000117,4621.362406000117
1,20260325_120141,D,J,False,MANUAL,2,320,620,fixed_delta,0.04926863410845236,0.011780794413821632,,,,,0.5374523910435328,1935,1665,0,,BLACK,,,0,,BLACK,True,CORRECT,5.463272585000595,5463.272585000595
1,20260325_120141,D,J,False,MANUAL,2,321,621,fixed_delta,0.04926863410845236,0.011780794413821632,,,,,0.4428589446012873,1594,2006,0,,WHITE,,,0,,WHITE,True,CORRECT,3.9648664249998546,3964.8664249998546
1,20260325_120141,D,J,False,MANUAL,2,322,622,fixed_delta,0.04926863410845236,0.011780794413821632,,,,,0.4359827292802711,1570,2030,0,,WHITE,,,0,,WHITE,True,CORRECT,3.3039400239995302,3303.9400239995302
1,20260325_120141,D,J,False,MANUAL,2,323,623,fixed_delta,0.04926863410845236,0.011780794413821632,,,,,0.5419245433010029,1951,1649,0,,BLACK,,,0,,BLACK,True,CORRECT,1.7099596859989106,1709.9596859989106
1,20260325_120141,D,J,False,MANUAL,2,324,624,fixed_delta,0.04926863410845236,0.011780794413821632,,,,,0.444264355457534,1599,2001,0,,WHITE,,,0,,WHITE,True,CORRECT,4.482709343999886,4482.709343999886
1,20260325_120141,D,J,False,MANUAL,2,325,625,fixed_delta,0.04926863410845236,0.011780794413821632,,,,,0.5456318523261802,1964,1636,0,,BLACK,,,0,,BLACK,True,CORRECT,2.1265600740007358,2126.5600740007358
1,20260325_120141,D,J,False,MANUAL,2,326,626,fixed_delta,0.04926863410845236,0.011780794413821632,,,,,0.5470884858052073,1970,1630,0,,BLACK,,,0,,BLACK,True,CORRECT,4.4886856789999,4488.6856789999
1,20260325_120141,D,J,False,MANUAL,2,327,627,fixed_delta,0.04926863410845236,0.011780794413821632,,,,,0.43728750922957876,1574,2026,0,,WHITE,,,0,,WHITE,True,CORRECT,2.7600037489992246,2760.0037489992246
1,20260325_120141,D,J,False,MANUAL,2,328,628,fixed_delta,0.04926863410845236,0.011780794413821632,,,,,0.5460914299817106,1966,1634,0,,BLACK,,,0,,WHITE,False,INCORRECT,6.091534967999905,6091.534967999905
1,20260325_120141,D,J,False,MANUAL,2,329,629,fixed_delta,0.04926863410845236,0.011780794413821632,,,,,0.5587726400873335,2012,1588,0,,BLACK,,,0,,BLACK,True,CORRECT,1.162191225999777,1162.191225999777
1,20260325_120141,D,J,False,MANUAL,2,330,630,fixed_delta,0.04926863410845236,0.011780794413821632,,,,,0.5513121396991522,1985,1615,0,,BLACK,,,0,,BLACK,True,CORRECT,6.39208449599937,6392.08449599937
1,20260325_120141,D,J,False,MANUAL,2,331,631,fixed_delta,0.04926863410845236,0.011780794413821632,,,,,0.5336993023832225,1921,1679,0,,BLACK,,,0,,BLACK,True,CORRECT,8.137142002000473,8137.142002000473
1,20260325_120141,D,J,False,MANUAL,2,332,632,fixed_delta,0.04926863410845236,0.011780794413821632,,,,,0.44548257813859626,1604,1996,0,,WHITE,,,0,,WHITE,True,CORRECT,1.9471832049985096,1947.1832049985096
1,20260325_120141,D,J,False,MANUAL,2,333,633,fixed_delta,0.04926863410845236,0.011780794413821632,,,,,0.45563652071297095,1640,1960,0,,WHITE,,,0,,WHITE,True,CORRECT,4.099657856000704,4099.657856000704
1,20260325_120141,D,J,False,MANUAL,2,334,634,fixed_delta,0.04926863410845236,0.011780794413821632,,,,,0.5705130031412915,2054,1546,0,,BLACK,,,0,,WHITE,False,INCORRECT,7.597119039999598,7597.119039999598
1,20260325_120141,D,J,False,MANUAL,2,335,635,fixed_delta,0.04926863410845236,0.011780794413821632,,,,,0.5353545734846719,1927,1673,0,,BLACK,,,0,,BLACK,True,CORRECT,1.2255109259986057,1225.5109259986057
1,20260325_120141,D,J,False,MANUAL,2,336,636,fixed_delta,0.04926863410845236,0.011780794413821632,,,,,0.4557085814396746,1641,1959,0,,WHITE,,,0,,WHITE,True,CORRECT,7.090354424999532,7090.354424999532
1,20260325_120141,D,J,False,MANUAL,2,337,637,fixed_delta,0.04926863410845236,0.011780794413821632,,,,,0.44881686533873405,1616,1984,0,,WHITE,,,0,,WHITE,True,CORRECT,8.29475978499977,8294.75978499977
1,20260325_120141,D,J,False,MANUAL,2,338,638,fixed_delta,0.04926863410845236,0.011780794413821632,,,,,0.554392191347333,1996,1604,0,,BLACK,,,0,,WHITE,False,INCORRECT,6.879512109999268,6879.512109999268
1,20260325_120141,D,J,False,MANUAL,2,339,639,fixed_delta,0.04926863410845236,0.011780794413821632,,,,,0.43913237115090836,1581,2019,0,,WHITE,,,0,,WHITE,True,CORRECT,3.489367743999537,3489.367743999537
1,20260325_120141,D,J,False,MANUAL,2,340,640,fixed_delta,0.04926863410845236,0.011780794413821632,,,,,0.5460090598964372,1966,1634,0,,BLACK,,,0,,BLACK,True,CORRECT,4.197962097001437,4197.962097001437
1,20260325_120141,D,J,False,MANUAL,2,341,641,fixed_delta,0.04926863410845236,0.011780794413821632,,,,,0.45839026991048487,1650,1950,0,,WHITE,,,0,,WHITE,True,CORRECT,7.54380376699919,7543.80376699919
1,20260325_120141,D,J,False,MANUAL,2,342,642,fixed_delta,0.04926863410845236,0.011780794413821632,,,,,0.4538256459611379,1634,1966,0,,WHITE,,,0,,WHITE,True,CORRECT,4.132689046999076,4132.689046999076
1,20260325_120141,D,J,False,MANUAL,2,343,643,fixed_delta,0.04926863410845236,0.011780794413821632,,,,,0.4434223502655008,1596,2004,0,,WHITE,,,0,,WHITE,True,CORRECT,3.3870029599984264,3387.0029599984264
1,20260325_120141,D,J,False,MANUAL,2,344,644,fixed_delta,0.04926863410845236,0.011780794413821632,,,,,0.4485740303785744,1615,1985,0,,WHITE,,,0,,WHITE,True,CORRECT,3.8911754260007,3891.1754260007
1,20260325_120141,D,J,False,MANUAL,2,345,645,fixed_delta,0.04926863410845236,0.011780794413821632,,,,,0.44293230904802516,1595,2005,0,,WHITE,,,0,,WHITE,True,CORRECT,2.499117972000022,2499.117972000022
1,20260325_120141,D,J,False,MANUAL,2,346,646,fixed_delta,0.04926863410845236,0.011780794413821632,,,,,0.5355952987610407,1928,1672,0,,BLACK,,,0,,BLACK,True,CORRECT,4.87506816899986,4875.06816899986
1,20260325_120141,D,J,False,MANUAL,2,347,647,fixed_delta,0.04926863410845236,0.011780794413821632,,,,,0.4566108734149905,1644,1956,0,,WHITE,,,0,,WHITE,True,CORRECT,2.122214686998632,2122.214686998632
1,20260325_120141,D,J,False,MANUAL,2,348,648,fixed_delta,0.04926863410845236,0.011780794413821632,,,,,0.46435513359868164,1672,1928,0,,WHITE,,,0,,WHITE,True,CORRECT,2.9013258810009575,2901.3258810009575
1,20260325_120141,D,J,False,MANUAL,2,349,649,fixed_delta,0.04926863410845236,0.011780794413821632,,,,,0.42077390957887567,1515,2085,0,,WHITE,,,0,,WHITE,True,CORRECT,1.586242952998873,1586.242952998873
1,20260325_120141,D,J,False,MANUAL,2,350,650,fixed_delta,0.04926863410845236,0.011780794413821632,,,,,0.4536994346836419,1633,1967,0,,WHITE,,,0,,WHITE,True,CORRECT,2.561830123000618,2561.830123000618
1,20260325_120141,D,J,False,MANUAL,2,351,651,fixed_delta,0.04926863410845236,0.011780794413821632,,,,,0.546502400765354,1967,1633,0,,BLACK,,,0,,BLACK,True,CORRECT,1.7261531779986399,1726.1531779986399
1,20260325_120141,D,J,False,MANUAL,2,352,652,fixed_delta,0.04926863410845236,0.011780794413821632,,,,,0.5380522925284134,1937,1663,0,,BLACK,,,0,,BLACK,True,CORRECT,7.373611343999073,7373.611343999073
1,20260325_120141,D,J,False,MANUAL,2,353,653,fixed_delta,0.04926863410845236,0.011780794413821632,,,,,0.45050533234331597,1622,1978,0,,WHITE,,,0,,WHITE,True,CORRECT,1.778644264999457,1778.644264999457
1,20260325_120141,D,J,False,MANUAL,2,354,654,fixed_delta,0.04926863410845236,0.011780794413821632,,,,,0.5490879684239692,1977,1623,0,,BLACK,,,0,,BLACK,True,CORRECT,4.295356818000073,4295.356818000073
1,20260325_120141,D,J,False,MANUAL,2,355,655,fixed_delta,0.04926863410845236,0.011780794413821632,,,,,0.43703793609889013,1573,2027,0,,WHITE,,,0,,WHITE,True,CORRECT,3.1340555810002115,3134.0555810002115
1,20260325_120141,D,J,False,MANUAL,2,356,656,fixed_delta,0.04926863410845236,0.011780794413821632,,,,,0.5594457677285708,2014,1586,0,,BLACK,,,0,,BLACK,True,CORRECT,4.632092465000824,4632.092465000824
1,20260325_120141,D,J,False,MANUAL,2,357,657,fixed_delta,0.04926863410845236,0.011780794413821632,,,,,0.4580094742540042,1649,1951,0,,WHITE,,,0,,WHITE,True,CORRECT,0.9894994999995106,989.4994999995106
1,20260325_120141,D,J,False,MANUAL,2,358,658,fixed_delta,0.04926863410845236,0.011780794413821632,,,,,0.45501136666362174,1638,1962,0,,WHITE,,,0,,WHITE,True,CORRECT,2.5224223710010847,2522.4223710010847
1,20260325_120141,D,J,False,MANUAL,2,359,659,fixed_delta,0.04926863410845236,0.011780794413821632,,,,,0.4540235897083551,1634,1966,0,,WHITE,,,0,,WHITE,True,CORRECT,4.612590504999389,4612.590504999389
1,20260325_120141,D,J,False,MANUAL,2,360,660,fixed_delta,0.04926863410845236,0.011780794413821632,,,,,0.4599268677670027,1656,1944,0,,WHITE,,,0,,WHITE,True,CORRECT,3.817437855999742,3817.437855999742
1,20260325_120141,D,J,False,MANUAL,2,361,661,fixed_delta,0.04926863410845236,0.011780794413821632,,,,,0.567413101865227,2043,1557,0,,BLACK,,,0,,BLACK,True,CORRECT,1.8296573420011555,1829.6573420011555
1,20260325_120141,D,J,False,MANUAL,2,362,662,fixed_delta,0.04926863410845236,0.011780794413821632,,,,,0.5698723369660493,2052,1548,0,,BLACK,,,0,,BLACK,True,CORRECT,5.3974917420000565,5397.491742000057
1,20260325_120141,D,J,False,MANUAL,2,363,663,fixed_delta,0.04926863410845236,0.011780794413821632,,,,,0.44425298403389774,1599,2001,0,,WHITE,,,0,,WHITE,True,CORRECT,1.0929405630013207,1092.9405630013207
1,20260325_120141,D,J,False,MANUAL,2,364,664,fixed_delta,0.04926863410845236,0.011780794413821632,,,,,0.5559417692369462,2001,1599,0,,BLACK,,,0,,BLACK,True,CORRECT,2.9322114210008294,2932.2114210008294
1,20260325_120141,D,J,False,MANUAL,2,365,665,fixed_delta,0.04926863410845236,0.011780794413821632,,,,,0.5513680032337782,1985,1615,0,,BLACK,,,0,,BLACK,True,CORRECT,3.4434665509998013,3443.4665509998013
1,20260325_120141,D,J,False,MANUAL,2,366,666,fixed_delta,0.04926863410845236,0.011780794413821632,,,,,0.45466229287131893,1637,1963,0,,WHITE,,,0,,WHITE,True,CORRECT,2.7268238259985083,2726.8238259985083
1,20260325_120141,D,J,False,MANUAL,2,367,667,fixed_delta,0.04926863410845236,0.011780794413821632,,,,,0.5532394401995039,1992,1608,0,,BLACK,,,0,,WHITE,False,INCORRECT,7.316509256001154,7316.509256001154
1,20260325_120141,D,J,False,MANUAL,2,368,668,fixed_delta,0.04926863410845236,0.011780794413821632,,,,,0.5530134467375369,1991,1609,0,,BLACK,,,0,,BLACK,True,CORRECT,2.103543224000532,2103.543224000532
1,20260325_120141,D,J,False,MANUAL,2,369,669,fixed_delta,0.04926863410845236,0.011780794413821632,,,,,0.5385438744526013,1939,1661,0,,BLACK,,,0,,WHITE,False,INCORRECT,7.584594578998804,7584.594578998804
1,20260325_120141,D,J,False,MANUAL,2,370,670,fixed_delta,0.04926863410845236,0.011780794413821632,,,,,0.5460418585562252,1966,1634,0,,BLACK,,,0,,WHITE,False,INCORRECT,1.9426340999998502,1942.6340999998502
1,20260325_120141,D,J,False,MANUAL,2,371,671,fixed_delta,0.04926863410845236,0.011780794413821632,,,,,0.5375237597842148,1935,1665,0,,BLACK,,,0,,BLACK,True,CORRECT,5.860885417001555,5860.885417001555
1,20260325_120141,D,J,False,MANUAL,2,372,672,fixed_delta,0.04926863410845236,0.011780794413821632,,,,,0.5456418538855938,1964,1636,0,,BLACK,,,0,,WHITE,False,INCORRECT,6.796901681000236,6796.901681000236
1,20260325_120141,D,J,False,MANUAL,2,373,673,fixed_delta,0.04926863410845236,0.011780794413821632,,,,,0.5409244194645519,1947,1653,0,,BLACK,,,0,,WHITE,False,INCORRECT,6.726294098998551,6726.294098998551
1,20260325_120141,D,J,False,MANUAL,2,374,674,fixed_delta,0.04926863410845236,0.011780794413821632,,,,,0.5284553438898096,1902,1698,0,,BLACK,,,0,,WHITE,False,INCORRECT,4.28132369999912,4281.32369999912
1,20260325_120141,D,J,False,MANUAL,2,375,675,fixed_delta,0.04926863410845236,0.011780794413821632,,,,,0.5417944704890173,1950,1650,0,,BLACK,,,0,,WHITE,False,INCORRECT,7.093176731999847,7093.176731999847
1,20260325_120141,D,J,False,MANUAL,2,376,676,fixed_delta,0.04926863410845236,0.011780794413821632,,,,,0.4289292466440068,1544,2056,0,,WHITE,,,0,,WHITE,True,CORRECT,0.9071504779985844,907.1504779985844
1,20260325_120141,D,J,False,MANUAL,2,377,677,fixed_delta,0.04926863410845236,0.011780794413821632,,,,,0.5376299109806619,1935,1665,0,,BLACK,,,0,,WHITE,False,INCORRECT,5.835740943000928,5835.740943000928
1,20260325_120141,D,J,False,MANUAL,2,378,678,fixed_delta,0.04926863410845236,0.011780794413821632,,,,,0.5468169643205835,1969,1631,0,,BLACK,,,0,,TIMEOUT,,TOO SLOW,,
1,20260325_120141,D,J,False,MANUAL,2,379,679,fixed_delta,0.04926863410845236,0.011780794413821632,,,,,0.4443128101955066,1600,2000,0,,WHITE,,,0,,WHITE,True,CORRECT,1.3297605529987777,1329.7605529987777
1,20260325_120141,D,J,False,MANUAL,2,380,680,fixed_delta,0.04926863410845236,0.011780794413821632,,,,,0.4547923928974723,1637,1963,0,,WHITE,,,0,,WHITE,True,CORRECT,3.9011768479995226,3901.1768479995226
1,20260325_120141,D,J,False,MANUAL,2,381,681,fixed_delta,0.04926863410845236,0.011780794413821632,,,,,0.46258306578256203,1665,1935,0,,WHITE,,,0,,WHITE,True,CORRECT,4.379419114000484,4379.419114000484
1,20260325_120141,D,J,False,MANUAL,2,382,682,fixed_delta,0.04926863410845236,0.011780794413821632,,,,,0.5440807862659068,1959,1641,0,,BLACK,,,0,,BLACK,True,CORRECT,1.4522432579997258,1452.2432579997258
1,20260325_120141,D,J,False,MANUAL,2,383,683,fixed_delta,0.04926863410845236,0.011780794413821632,,,,,0.5178469986146444,1864,1736,0,,BLACK,,,0,,BLACK,True,CORRECT,4.555056343000615,4555.056343000615
1,20260325_120141,D,J,False,MANUAL,2,384,684,fixed_delta,0.04926863410845236,0.011780794413821632,,,,,0.4613386540745586,1661,1939,0,,WHITE,,,0,,WHITE,True,CORRECT,6.113382391999039,6113.382391999039
1,20260325_120141,D,J,False,MANUAL,2,385,685,fixed_delta,0.04926863410845236,0.011780794413821632,,,,,0.4654977819925165,1676,1924,0,,WHITE,,,0,,BLACK,False,INCORRECT,1.2649057559992798,1264.9057559992798
1,20260325_120141,D,J,False,MANUAL,2,386,686,fixed_delta,0.04926863410845236,0.011780794413821632,,,,,0.5464367828655706,1967,1633,0,,BLACK,,,0,,BLACK,True,CORRECT,2.229443768001147,2229.443768001147
1,20260325_120141,D,J,False,MANUAL,2,387,687,fixed_delta,0.04926863410845236,0.011780794413821632,,,,,0.460973483873411,1660,1940,0,,WHITE,,,0,,WHITE,True,CORRECT,8.333899516999736,8333.899516999736
1,20260325_120141,D,J,False,MANUAL,2,388,688,fixed_delta,0.04926863410845236,0.011780794413821632,,,,,0.4601368711542193,1656,1944,0,,WHITE,,,0,,WHITE,True,CORRECT,4.595244413001637,4595.244413001637
1,20260325_120141,D,J,False,MANUAL,2,389,689,fixed_delta,0.04926863410845236,0.011780794413821632,,,,,0.4742010791008321,1707,1893,0,,WHITE,,,0,,WHITE,True,CORRECT,4.125977162999334,4125.977162999334
1,20260325_120141,D,J,False,MANUAL,2,390,690,fixed_delta,0.04926863410845236,0.011780794413821632,,,,,0.5576831115986588,2008,1592,0,,BLACK,,,0,,BLACK,True,CORRECT,5.219842571999834,5219.842571999834
1,20260325_120141,D,J,False,MANUAL,2,391,691,fixed_delta,0.04926863410845236,0.011780794413821632,,,,,0.5150882897313992,1854,1746,0,,BLACK,,,0,,BLACK,True,CORRECT,4.963694594000117,4963.694594000117
1,20260325_120141,D,J,False,MANUAL,2,392,692,fixed_delta,0.04926863410845236,0.011780794413821632,,,,,0.45414882435341547,1635,1965,0,,WHITE,,,0,,WHITE,True,CORRECT,2.1223459920001915,2122.3459920001915
1,20260325_120141,D,J,False,MANUAL,2,393,693,fixed_delta,0.04926863410845236,0.011780794413821632,,,,,0.451469290203271,1625,1975,0,,WHITE,,,0,,WHITE,True,CORRECT,6.776519344999542,6776.519344999542
1,20260325_120141,D,J,False,MANUAL,2,394,694,fixed_delta,0.04926863410845236,0.011780794413821632,,,,,0.5417869084733908,1950,1650,0,,BLACK,,,0,,WHITE,False,INCORRECT,5.389508272999592,5389.508272999592
1,20260325_120141,D,J,False,MANUAL,2,395,695,fixed_delta,0.04926863410845236,0.011780794413821632,,,,,0.5537574103187799,1994,1606,0,,BLACK,,,0,,BLACK,True,CORRECT,1.0370169159996294,1037.0169159996294
1,20260325_120141,D,J,False,MANUAL,2,396,696,fixed_delta,0.04926863410845236,0.011780794413821632,,,,,0.4660167122727321,1678,1922,0,,WHITE,,,0,,WHITE,True,CORRECT,4.277291400998365,4277.291400998365
1,20260325_120141,D,J,False,MANUAL,2,397,697,fixed_delta,0.04926863410845236,0.011780794413821632,,,,,0.5670677168207617,2041,1559,0,,BLACK,,,0,,BLACK,True,CORRECT,2.3000735850000638,2300.0735850000638
1,20260325_120141,D,J,False,MANUAL,2,398,698,fixed_delta,0.04926863410845236,0.011780794413821632,,,,,0.46403943013126203,1671,1929,0,,WHITE,,,0,,WHITE,True,CORRECT,5.251899340999444,5251.899340999444
1,20260325_120141,D,J,False,MANUAL,2,399,699,fixed_delta,0.04926863410845236,0.011780794413821632,,,,,0.4559367117244678,1641,1959,0,,WHITE,,,0,,WHITE,True,CORRECT,3.075944817999698,3075.944817999698
1,20260325_120141,D,J,False,MANUAL,2,400,700,fixed_delta,0.04926863410845236,0.011780794413821632,,,,,0.43521783709390505,1567,2033,0,,WHITE,,,0,,WHITE,True,CORRECT,4.009801910000533,4009.801910000533
1,20260325_120141,D,J,False,MANUAL,2,401,701,fixed_delta,0.04926863410845236,0.011780794413821632,,,,,0.4438509952336268,1598,2002,0,,WHITE,,,0,,WHITE,True,CORRECT,2.6718247230000998,2671.8247230000998
1,20260325_120141,D,J,False,MANUAL,2,402,702,fixed_delta,0.04926863410845236,0.011780794413821632,,,,,0.5529663634274566,1991,1609,0,,BLACK,,,0,,BLACK,True,CORRECT,3.3506032080003934,3350.6032080003934
1,20260325_120141,D,J,False,MANUAL,2,403,703,fixed_delta,0.04926863410845236,0.011780794413821632,,,,,0.4565610887538286,1644,1956,0,,WHITE,,,0,,WHITE,True,CORRECT,7.786073969000427,7786.073969000427
1,20260325_120141,D,J,False,MANUAL,2,404,704,fixed_delta,0.04926863410845236,0.011780794413821632,,,,,0.5363592519448043,1931,1669,0,,BLACK,,,0,,BLACK,True,CORRECT,2.7217681290003384,2721.7681290003384
1,20260325_120141,D,J,False,MANUAL,2,405,705,fixed_delta,0.04926863410845236,0.011780794413821632,,,,,0.5247181087361071,1889,1711,0,,BLACK,,,0,,BLACK,True,CORRECT,2.2716855449998548,2271.6855449998548
1,20260325_120141,D,J,False,MANUAL,2,406,706,fixed_delta,0.04926863410845236,0.011780794413821632,,,,,0.4714811641150781,1697,1903,0,,WHITE,,,0,,WHITE,True,CORRECT,2.3445896140001423,2344.5896140001423
1,20260325_120141,D,J,False,MANUAL,2,407,707,fixed_delta,0.04926863410845236,0.011780794413821632,,,,,0.4451475498118609,1603,1997,0,,WHITE,,,0,,WHITE,True,CORRECT,2.9541994640003395,2954.1994640003395
1,20260325_120141,D,J,False,MANUAL,2,408,708,fixed_delta,0.04926863410845236,0.011780794413821632,,,,,0.4589197198970623,1652,1948,0,,WHITE,,,0,,WHITE,True,CORRECT,2.888997926000229,2888.997926000229
1,20260325_120141,D,J,False,MANUAL,2,409,709,fixed_delta,0.04926863410845236,0.011780794413821632,,,,,0.44191406337224187,1591,2009,0,,WHITE,,,0,,WHITE,True,CORRECT,2.6356971959994553,2635.6971959994553
1,20260325_120141,D,J,False,MANUAL,2,410,710,fixed_delta,0.04926863410845236,0.011780794413821632,,,,,0.5329419729819163,1919,1681,0,,BLACK,,,0,,WHITE,False,INCORRECT,4.708058616999551,4708.058616999551
1,20260325_120141,D,J,False,MANUAL,2,411,711,fixed_delta,0.04926863410845236,0.011780794413821632,,,,,0.5427117680234734,1954,1646,0,,BLACK,,,0,,BLACK,True,CORRECT,1.6915956039993034,1691.5956039993034
1,20260325_120141,D,J,False,MANUAL,2,412,712,fixed_delta,0.04926863410845236,0.011780794413821632,,,,,0.5454484519644738,1964,1636,0,,BLACK,,,0,,BLACK,True,CORRECT,5.209195142000681,5209.195142000681
1,20260325_120141,D,J,False,MANUAL,2,413,713,fixed_delta,0.04926863410845236,0.011780794413821632,,,,,0.42839030482104967,1542,2058,0,,WHITE,,,0,,WHITE,True,CORRECT,1.1793594419996225,1179.3594419996225
1,20260325_120141,D,J,False,MANUAL,2,414,714,fixed_delta,0.04926863410845236,0.011780794413821632,,,,,0.5302195837241608,1909,1691,0,,BLACK,,,0,,BLACK,True,CORRECT,3.763978358001623,3763.978358001623
1,20260325_120141,D,J,False,MANUAL,2,415,715,fixed_delta,0.04926863410845236,0.011780794413821632,,,,,0.43191148737191165,1555,2045,0,,WHITE,,,0,,WHITE,True,CORRECT,3.678631855000276,3678.631855000276
1,20260325_120141,D,J,False,MANUAL,2,416,716,fixed_delta,0.04926863410845236,0.011780794413821632,,,,,0.4513409654595852,1625,1975,0,,WHITE,,,0,,WHITE,True,CORRECT,4.508037404000788,4508.037404000788
1,20260325_120141,D,J,False,MANUAL,2,417,717,fixed_delta,0.04926863410845236,0.011780794413821632,,,,,0.4374734830885292,1575,2025,0,,WHITE,,,0,,WHITE,True,CORRECT,3.602343900998676,3602.343900998676
1,20260325_120141,D,J,False,MANUAL,2,418,718,fixed_delta,0.04926863410845236,0.011780794413821632,,,,,0.4355328461120537,1568,2032,0,,WHITE,,,0,,WHITE,True,CORRECT,1.6412838209998881,1641.2838209998881
1,20260325_120141,D,J,False,MANUAL,2,419,719,fixed_delta,0.04926863410845236,0.011780794413821632,,,,,0.4631048589730473,1667,1933,0,,WHITE,,,0,,WHITE,True,CORRECT,6.7240492930013716,6724.049293001372
1,20260325_120141,D,J,False,MANUAL,2,420,720,fixed_delta,0.04926863410845236,0.011780794413821632,,,,,0.5615829949633004,2022,1578,0,,BLACK,,,0,,BLACK,True,CORRECT,2.3723154189992783,2372.3154189992783
1,20260325_120141,D,J,False,MANUAL,2,421,721,fixed_delta,0.04926863410845236,0.011780794413821632,,,,,0.5468776758629029,1969,1631,0,,BLACK,,,0,,BLACK,True,CORRECT,4.004367621999336,4004.367621999336
1,20260325_120141,D,J,False,MANUAL,2,422,722,fixed_delta,0.04926863410845236,0.011780794413821632,,,,,0.4399678352715695,1584,2016,0,,WHITE,,,0,,WHITE,True,CORRECT,3.5659486550011934,3565.9486550011934
1,20260325_120141,D,J,False,MANUAL,2,423,723,fixed_delta,0.04926863410845236,0.011780794413821632,,,,,0.4263756552664681,1535,2065,0,,WHITE,,,0,,WHITE,True,CORRECT,1.7730456200006302,1773.0456200006302
1,20260325_120141,D,J,False,MANUAL,2,424,724,fixed_delta,0.04926863410845236,0.011780794413821632,,,,,0.44648089166331795,1607,1993,0,,WHITE,,,0,,WHITE,True,CORRECT,2.47393083300085,2473.93083300085
1,20260325_120141,D,J,False,MANUAL,2,425,725,fixed_delta,0.04926863410845236,0.011780794413821632,,,,,0.456904144681181,1645,1955,0,,WHITE,,,0,,WHITE,True,CORRECT,4.491940361000161,4491.940361000161
1,20260325_120141,D,J,False,MANUAL,2,426,726,fixed_delta,0.04926863410845236,0.011780794413821632,,,,,0.4539444035226977,1634,1966,0,,WHITE,,,0,,WHITE,True,CORRECT,7.733705173999624,7733.705173999624
1,20260325_120141,D,J,False,MANUAL,2,427,727,fixed_delta,0.04926863410845236,0.011780794413821632,,,,,0.44045546574635186,1586,2014,0,,WHITE,,,0,,WHITE,True,CORRECT,0.8951211900002818,895.1211900002818
1,20260325_120141,D,J,False,MANUAL,2,428,728,fixed_delta,0.04926863410845236,0.011780794413821632,,,,,0.5424082722377924,1953,1647,0,,BLACK,,,0,,BLACK,True,CORRECT,1.7289553560003696,1728.9553560003696
1,20260325_120141,D,J,False,MANUAL,2,429,729,fixed_delta,0.04926863410845236,0.011780794413821632,,,,,0.5458002727254421,1965,1635,0,,BLACK,,,0,,BLACK,True,CORRECT,0.8858736460006185,885.8736460006185
1,20260325_120141,D,J,False,MANUAL,2,430,730,fixed_delta,0.04926863410845236,0.011780794413821632,,,,,0.43606140539800964,1570,2030,0,,WHITE,,,0,,WHITE,True,CORRECT,2.632468351999705,2632.468351999705
1,20260325_120141,D,J,False,MANUAL,2,431,731,fixed_delta,0.04926863410845236,0.011780794413821632,,,,,0.44207140897499486,1591,2009,0,,WHITE,,,0,,WHITE,True,CORRECT,3.9554148629995325,3955.4148629995325
1,20260325_120141,D,J,False,MANUAL,2,432,732,fixed_delta,0.04926863410845236,0.011780794413821632,,,,,0.5447687806307583,1961,1639,0,,BLACK,,,0,,BLACK,True,CORRECT,4.151023984000858,4151.023984000858
1,20260325_120141,D,J,False,MANUAL,2,433,733,fixed_delta,0.04926863410845236,0.011780794413821632,,,,,0.5411636072904396,1948,1652,0,,BLACK,,,0,,BLACK,True,CORRECT,2.5570241159985017,2557.0241159985017
1,20260325_120141,D,J,False,MANUAL,2,434,734,fixed_delta,0.04926863410845236,0.011780794413821632,,,,,0.5493225115373417,1978,1622,0,,BLACK,,,0,,BLACK,True,CORRECT,2.459930164999605,2459.930164999605
1,20260325_120141,D,J,False,MANUAL,2,435,735,fixed_delta,0.04926863410845236,0.011780794413821632,,,,,0.4236218233651442,1525,2075,0,,WHITE,,,0,,WHITE,True,CORRECT,1.6087375870010874,1608.7375870010874
1,20260325_120141,D,J,False,MANUAL,2,436,736,fixed_delta,0.04926863410845236,0.011780794413821632,,,,,0.4762464426379314,1714,1886,0,,WHITE,,,0,,BLACK,False,INCORRECT,3.78936200499993,3789.36200499993
1,20260325_120141,D,J,False,MANUAL,2,437,737,fixed_delta,0.04926863410845236,0.011780794413821632,,,,,0.5457870304276458,1965,1635,0,,BLACK,,,0,,WHITE,False,INCORRECT,3.7773261050006113,3777.3261050006113
1,20260325_120141,D,J,False,MANUAL,2,438,738,fixed_delta,0.04926863410845236,0.011780794413821632,,,,,0.4622275672780906,1664,1936,0,,WHITE,,,0,,WHITE,True,CORRECT,5.183899532999931,5183.899532999931
1,20260325_120141,D,J,False,MANUAL,2,439,739,fixed_delta,0.04926863410845236,0.011780794413821632,,,,,0.43058876855383466,1550,2050,0,,WHITE,,,0,,WHITE,True,CORRECT,1.3357492059985816,1335.7492059985816
1,20260325_120141,D,J,False,MANUAL,2,440,740,fixed_delta,0.04926863410845236,0.011780794413821632,,,,,0.5661615009648528,2038,1562,0,,BLACK,,,0,,BLACK,True,CORRECT,1.4361879819989554,1436.1879819989554
1,20260325_120141,D,J,False,MANUAL,2,441,741,fixed_delta,0.04926863410845236,0.011780794413821632,,,,,0.5472552200208796,1970,1630,0,,BLACK,,,0,,BLACK,True,CORRECT,3.8331548050009587,3833.1548050009587
1,20260325_120141,D,J,False,MANUAL,2,442,742,fixed_delta,0.04926863410845236,0.011780794413821632,,,,,0.5379581878400819,1937,1663,0,,BLACK,,,0,,BLACK,True,CORRECT,5.139999164999608,5139.999164999608
1,20260325_120141,D,J,False,MANUAL,2,443,743,fixed_delta,0.04926863410845236,0.011780794413821632,,,,,0.43222596321737156,1556,2044,0,,WHITE,,,0,,WHITE,True,CORRECT,2.4899725880004553,2489.9725880004553
1,20260325_120141,D,J,False,MANUAL,2,444,744,fixed_delta,0.04926863410845236,0.011780794413821632,,,,,0.4588873335677614,1652,1948,0,,WHITE,,,0,,WHITE,True,CORRECT,4.603846547001012,4603.846547001012
1,20260325_120141,D,J,False,MANUAL,2,445,745,fixed_delta,0.04926863410845236,0.011780794413821632,,,,,0.5425841136963299,1953,1647,0,,BLACK,,,0,,BLACK,True,CORRECT,3.0718328950006253,3071.8328950006253
1,20260325_120141,D,J,False,MANUAL,2,446,746,fixed_delta,0.04926863410845236,0.011780794413821632,,,,,0.5409425005029459,1947,1653,0,,BLACK,,,0,,BLACK,True,CORRECT,1.9856150320010784,1985.6150320010784
1,20260325_120141,D,J,False,MANUAL,2,447,747,fixed_delta,0.04926863410845236,0.011780794413821632,,,,,0.4687765193164368,1688,1912,0,,WHITE,,,0,,WHITE,True,CORRECT,3.842705222001314,3842.705222001314
1,20260325_120141,D,J,False,MANUAL,2,448,748,fixed_delta,0.04926863410845236,0.011780794413821632,,,,,0.5363123093033451,1931,1669,0,,BLACK,,,0,,BLACK,True,CORRECT,5.422435501999644,5422.435501999644
1,20260325_120141,D,J,False,MANUAL,2,449,749,fixed_delta,0.04926863410845236,0.011780794413821632,,,,,0.5491435631001059,1977,1623,0,,BLACK,,,0,,BLACK,True,CORRECT,3.743995647000702,3743.995647000702
1,20260325_120141,D,J,False,MANUAL,2,450,750,fixed_delta,0.04926863410845236,0.011780794413821632,,,,,0.43338273147051964,1560,2040,0,,WHITE,,,0,,WHITE,True,CORRECT,1.6236306489990966,1623.6306489990966
1,20260325_120141,D,J,False,MANUAL,2,451,751,fixed_delta,0.04926863410845236,0.011780794413821632,,,,,0.5497623574969849,1979,1621,0,,BLACK,,,0,,BLACK,True,CORRECT,4.6573850700006005,4657.3850700006005
1,20260325_120141,D,J,False,MANUAL,2,452,752,fixed_delta,0.04926863410845236,0.011780794413821632,,,,,0.5425399992299509,1953,1647,0,,BLACK,,,0,,BLACK,True,CORRECT,3.6483226149994152,3648.3226149994152
1,20260325_120141,D,J,False,MANUAL,2,453,753,fixed_delta,0.04926863410845236,0.011780794413821632,,,,,0.5438517416554353,1958,1642,0,,BLACK,,,0,,BLACK,True,CORRECT,6.34686506899925,6346.86506899925
1,20260325_120141,D,J,False,MANUAL,2,454,754,fixed_delta,0.04926863410845236,0.011780794413821632,,,,,0.4622065994166217,1664,1936,0,,WHITE,,,0,,WHITE,True,CORRECT,1.8311699040004896,1831.1699040004896
1,20260325_120141,D,J,False,MANUAL,2,455,755,fixed_delta,0.04926863410845236,0.011780794413821632,,,,,0.535604893220297,1928,1672,0,,BLACK,,,0,,BLACK,True,CORRECT,4.891655275998346,4891.655275998346
1,20260325_120141,D,J,False,MANUAL,2,456,756,fixed_delta,0.04926863410845236,0.011780794413821632,,,,,0.4405489218373622,1586,2014,0,,WHITE,,,0,,WHITE,True,CORRECT,3.0902531659994565,3090.2531659994565
1,20260325_120141,D,J,False,MANUAL,2,457,757,fixed_delta,0.04926863410845236,0.011780794413821632,,,,,0.4506006308585466,1622,1978,0,,WHITE,,,0,,WHITE,True,CORRECT,1.703849943000023,1703.849943000023
1,20260325_120141,D,J,False,MANUAL,2,458,758,fixed_delta,0.04926863410845236,0.011780794413821632,,,,,0.5539995716121431,1994,1606,0,,BLACK,,,0,,BLACK,True,CORRECT,2.924928345999433,2924.928345999433
1,20260325_120141,D,J,False,MANUAL,2,459,759,fixed_delta,0.04926863410845236,0.011780794413821632,,,,,0.5652224132369386,2035,1565,0,,BLACK,,,0,,BLACK,True,CORRECT,6.690547866999623,6690.547866999623
1,20260325_120141,D,J,False,MANUAL,2,460,760,fixed_delta,0.04926863410845236,0.011780794413821632,,,,,0.44405886569510583,1599,2001,0,,WHITE,,,0,,WHITE,True,CORRECT,2.319976370999939,2319.976370999939
1,20260325_120141,D,J,False,MANUAL,2,461,761,fixed_delta,0.04926863410845236,0.011780794413821632,,,,,0.4566473972557021,1644,1956,0,,WHITE,,,0,,BLACK,False,INCORRECT,2.9506004429986206,2950.6004429986206
1,20260325_120141,D,J,False,MANUAL,2,462,762,fixed_delta,0.04926863410845236,0.011780794413821632,,,,,0.5337104602097141,1921,1679,0,,BLACK,,,0,,BLACK,True,CORRECT,5.789048313999956,5789.048313999956
1,20260325_120141,D,J,False,MANUAL,2,463,763,fixed_delta,0.04926863410845236,0.011780794413821632,,,,,0.44760828425850674,1611,1989,0,,WHITE,,,0,,WHITE,True,CORRECT,1.0801850410007319,1080.1850410007319
1,20260325_120141,D,J,False,MANUAL,2,464,764,fixed_delta,0.04926863410845236,0.011780794413821632,,,,,0.43764993731848223,1576,2024,0,,WHITE,,,0,,WHITE,True,CORRECT,6.618628435999199,6618.628435999199
1,20260325_120141,D,J,False,MANUAL,2,465,765,fixed_delta,0.04926863410845236,0.011780794413821632,,,,,0.4544854104475208,1636,1964,0,,WHITE,,,0,,WHITE,True,CORRECT,5.570903695001107,5570.903695001107
1,20260325_120141,D,J,False,MANUAL,2,466,766,fixed_delta,0.04926863410845236,0.011780794413821632,,,,,0.4426537881925923,1594,2006,0,,WHITE,,,0,,WHITE,True,CORRECT,3.047171578000416,3047.171578000416
1,20260325_120141,D,J,False,MANUAL,2,467,767,fixed_delta,0.04926863410845236,0.011780794413821632,,,,,0.5368008628094836,1932,1668,0,,BLACK,,,0,,BLACK,True,CORRECT,3.7359187319998455,3735.9187319998455
1,20260325_120141,D,J,False,MANUAL,2,468,768,fixed_delta,0.04926863410845236,0.011780794413821632,,,,,0.5691669769667608,2049,1551,0,,BLACK,,,0,,BLACK,True,CORRECT,4.2754212799991365,4275.4212799991365
1,20260325_120141,D,J,False,MANUAL,2,469,769,fixed_delta,0.04926863410845236,0.011780794413821632,,,,,0.559258572008704,2013,1587,0,,BLACK,,,0,,BLACK,True,CORRECT,6.51802500300073,6518.02500300073
1,20260325_120141,D,J,False,MANUAL,2,470,770,fixed_delta,0.04926863410845236,0.011780794413821632,,,,,0.4638030322027693,1670,1930,0,,WHITE,,,0,,WHITE,True,CORRECT,3.783829762998721,3783.829762998721
1,20260325_120141,D,J,False,MANUAL,2,471,771,fixed_delta,0.04926863410845236,0.011780794413821632,,,,,0.44664394455624135,1608,1992,0,,WHITE,,,0,,WHITE,True,CORRECT,3.449080218000745,3449.080218000745
1,20260325_120141,D,J,False,MANUAL,2,472,772,fixed_delta,0.04926863410845236,0.011780794413821632,,,,,0.5534710404617917,1992,1608,0,,BLACK,,,0,,WHITE,False,INCORRECT,3.7276558260000456,3727.6558260000456
1,20260325_120141,D,J,False,MANUAL,2,473,773,fixed_delta,0.04926863410845236,0.011780794413821632,,,,,0.5655621216487533,2036,1564,0,,BLACK,,,0,,BLACK,True,CORRECT,1.1211507249990973,1121.1507249990973
1,20260325_120141,D,J,False,MANUAL,2,474,774,fixed_delta,0.04926863410845236,0.011780794413821632,,,,,0.5654337506489553,2036,1564,0,,BLACK,,,0,,BLACK,True,CORRECT,1.571847469000204,1571.847469000204
1,20260325_120141,D,J,False,MANUAL,2,475,775,fixed_delta,0.04926863410845236,0.011780794413821632,,,,,0.5512651210385671,1985,1615,0,,BLACK,,,0,,WHITE,False,INCORRECT,5.4883999319990835,5488.3999319990835
1,20260325_120141,D,J,False,MANUAL,2,476,776,fixed_delta,0.04926863410845236,0.011780794413821632,,,,,0.4513930744690166,1625,1975,0,,WHITE,,,0,,WHITE,True,CORRECT,4.564969425000527,4564.969425000527
1,20260325_120141,D,J,False,MANUAL,2,477,777,fixed_delta,0.04926863410845236,0.011780794413821632,,,,,0.5422229770490459,1952,1648,0,,BLACK,,,0,,BLACK,True,CORRECT,4.789216577000843,4789.216577000843
1,20260325_120141,D,J,False,MANUAL,2,478,778,fixed_delta,0.04926863410845236,0.011780794413821632,,,,,0.5511260271746935,1984,1616,0,,BLACK,,,0,,WHITE,False,INCORRECT,5.622097352999845,5622.097352999845
1,20260325_120141,D,J,False,MANUAL,2,479,779,fixed_delta,0.04926863410845236,0.011780794413821632,,,,,0.566255541196103,2039,1561,0,,BLACK,,,0,,BLACK,True,CORRECT,3.8843926319987077,3884.3926319987077
1,20260325_120141,D,J,False,MANUAL,2,480,780,fixed_delta,0.04926863410845236,0.011780794413821632,,,,,0.4291811930284374,1545,2055,0,,WHITE,,,0,,WHITE,True,CORRECT,0.99930591500015,999.30591500015
1,20260325_120141,D,J,False,MANUAL,2,481,781,fixed_delta,0.04926863410845236,0.011780794413821632,,,,,0.448247579968593,1614,1986,0,,WHITE,,,0,,WHITE,True,CORRECT,3.1106267880004452,3110.6267880004452
1,20260325_120141,D,J,False,MANUAL,2,482,782,fixed_delta,0.04926863410845236,0.011780794413821632,,,,,0.44642320879508723,1607,1993,0,,WHITE,,,0,,WHITE,True,CORRECT,1.5536582589993486,1553.6582589993486
1,20260325_120141,D,J,False,MANUAL,2,483,783,fixed_delta,0.04926863410845236,0.011780794413821632,,,,,0.46795869992557815,1685,1915,0,,WHITE,,,0,,WHITE,True,CORRECT,3.473733725000784,3473.733725000784
1,20260325_120141,D,J,False,MANUAL,2,484,784,fixed_delta,0.04926863410845236,0.011780794413821632,,,,,0.5415321470683863,1950,1650,0,,BLACK,,,0,,BLACK,True,CORRECT,2.982075504000022,2982.075504000022
1,20260325_120141,D,J,False,MANUAL,2,485,785,fixed_delta,0.04926863410845236,0.011780794413821632,,,,,0.562403268900456,2025,1575,0,,BLACK,,,0,,BLACK,True,CORRECT,2.3608651350004948,2360.865135000495
1,20260325_120141,D,J,False,MANUAL,2,486,786,fixed_delta,0.04926863410845236,0.011780794413821632,,,,,0.455045310828442,1638,1962,0,,WHITE,,,0,,WHITE,True,CORRECT,1.613987086000634,1613.987086000634
1,20260325_120141,D,J,False,MANUAL,2,487,787,fixed_delta,0.04926863410845236,0.011780794413821632,,,,,0.4514316179383135,1625,1975,0,,WHITE,,,0,,WHITE,True,CORRECT,2.863178298001003,2863.178298001003
1,20260325_120141,D,J,False,MANUAL,2,488,788,fixed_delta,0.04926863410845236,0.011780794413821632,,,,,0.5441249601158988,1959,1641,0,,BLACK,,,0,,BLACK,True,CORRECT,3.3922930219996488,3392.2930219996488
1,20260325_120141,D,J,False,MANUAL,2,489,789,fixed_delta,0.04926863410845236,0.011780794413821632,,,,,0.45211696769975135,1628,1972,0,,WHITE,,,0,,WHITE,True,CORRECT,2.784702928000115,2784.702928000115
1,20260325_120141,D,J,False,MANUAL,2,490,790,fixed_delta,0.04926863410845236,0.011780794413821632,,,,,0.5375763109156765,1935,1665,0,,BLACK,,,0,,WHITE,False,INCORRECT,7.743151028000284,7743.151028000284
1,20260325_120141,D,J,False,MANUAL,2,491,791,fixed_delta,0.04926863410845236,0.011780794413821632,,,,,0.4564516062639017,1643,1957,0,,WHITE,,,0,,WHITE,True,CORRECT,2.625045859000238,2625.045859000238
1,20260325_120141,D,J,False,MANUAL,2,492,792,fixed_delta,0.04926863410845236,0.011780794413821632,,,,,0.5435864403350157,1957,1643,0,,BLACK,,,0,,BLACK,True,CORRECT,3.3825193570010015,3382.5193570010015
1,20260325_120141,D,J,False,MANUAL,2,493,793,fixed_delta,0.04926863410845236,0.011780794413821632,,,,,0.5458697399761487,1965,1635,0,,BLACK,,,0,,BLACK,True,CORRECT,4.839306613001099,4839.306613001099
1,20260325_120141,D,J,False,MANUAL,2,494,794,fixed_delta,0.04926863410845236,0.011780794413821632,,,,,0.559272389840044,2013,1587,0,,BLACK,,,0,,BLACK,True,CORRECT,3.8989927359998546,3898.9927359998546
