participant_id,run_timestamp,key_black,key_white,keymap_flip,block,block_idx,trial,global_trial,difficulty_mode,delta_fixed_mean,delta_fixed_sd,delta_stair_realised,delta_stair_mean,delta_step_down_used,delta_step_up_used,vblack_prop,n_vblack,n_vwhite,auto_on,aid_accuracy_setting,stimulus,aid_label,aid_correct,aid_onset_ms,aid_onset_ms_rel,response,correct,feedback,rt_s,rt_ms
2,20260325_120617,D,J,False,MANUAL,2,1,301,fixed_delta,0.04010600706829564,0.013286393218712247,,,,,0.4483904814194343,1614,1986,0,,WHITE,,,0,,WHITE,True,CORRECT,1.8756400000002031,1875.6400000002031
2,20260325_120617,D,J,False,MANUAL,2,2,302,fixed_delta,0.04010600706829564,0.013286393218712247,,,,,0.535315492342239,1927,1673,0,,BLACK,,,0,,BLACK,True,CORRECT,3.3823804000003292,3382.3804000003292
2,20260325_120617,D,J,False,MANUAL,2,3,303,fixed_delta,0.04010600706829564,0.013286393218712247,,,,,0.47041449638929134,1693,1907,0,,WHITE,,,0,,WHITE,True,CORRECT,0.9221328000003268,922.1328000003268
2,20260325_120617,D,J,False,MANUAL,2,4,304,fixed_delta,0.04010600706829564,0.013286393218712247,,,,,0.5213255344202525,1877,1723,0,,BLACK,,,0,,BLACK,True,CORRECT,1.6711108999988937,1671.1108999988937
2,20260325_120617,D,J,False,MANUAL,2,5,305,fixed_delta,0.04010600706829564,0.013286393218712247,,,,,0.5371260337729682,1934,1666,0,,BLACK,,,0,,WHITE,False,INCORRECT,0.8603485000003275,860.3485000003275
2,20260325_120617,D,J,False,MANUAL,2,6,306,fixed_delta,0.04010600706829564,0.013286393218712247,,,,,0.5253668071173587,1891,1709,0,,BLACK,,,0,,BLACK,True,CORRECT,1.3889591000006476,1388.9591000006476
2,20260325_120617,D,J,False,MANUAL,2,7,307,fixed_delta,0.04010600706829564,0.013286393218712247,,,,,0.5302769646701526,1909,1691,0,,BLACK,,,0,,BLACK,True,CORRECT,0.9147988000004261,914.7988000004261
2,20260325_120617,D,J,False,MANUAL,2,8,308,fixed_delta,0.04010600706829564,0.013286393218712247,,,,,0.4409493132457323,1587,2013,0,,WHITE,,,0,,WHITE,True,CORRECT,0.5798594000007142,579.8594000007142
2,20260325_120617,D,J,False,MANUAL,2,9,309,fixed_delta,0.04010600706829564,0.013286393218712247,,,,,0.4628453795797027,1666,1934,0,,WHITE,,,0,,BLACK,False,INCORRECT,1.2000497999997606,1200.0497999997606
2,20260325_120617,D,J,False,MANUAL,2,10,310,fixed_delta,0.04010600706829564,0.013286393218712247,,,,,0.534815252385079,1925,1675,0,,BLACK,,,0,,BLACK,True,CORRECT,1.1534856999987824,1153.4856999987824
2,20260325_120617,D,J,False,MANUAL,2,11,311,fixed_delta,0.04010600706829564,0.013286393218712247,,,,,0.5181656595959004,1865,1735,0,,BLACK,,,0,,WHITE,False,INCORRECT,1.716131499999392,1716.131499999392
2,20260325_120617,D,J,False,MANUAL,2,12,312,fixed_delta,0.04010600706829564,0.013286393218712247,,,,,0.46249134679886006,1665,1935,0,,WHITE,,,0,,WHITE,True,CORRECT,0.834836500000165,834.836500000165
2,20260325_120617,D,J,False,MANUAL,2,13,313,fixed_delta,0.04010600706829564,0.013286393218712247,,,,,0.5201361415062826,1872,1728,0,,BLACK,,,0,,BLACK,True,CORRECT,1.2743004000003566,1274.3004000003566
2,20260325_120617,D,J,False,MANUAL,2,14,314,fixed_delta,0.04010600706829564,0.013286393218712247,,,,,0.46588176683525295,1677,1923,0,,WHITE,,,0,,WHITE,True,CORRECT,0.7567853999989893,756.7853999989893
2,20260325_120617,D,J,False,MANUAL,2,15,315,fixed_delta,0.04010600706829564,0.013286393218712247,,,,,0.47175869061753756,1698,1902,0,,WHITE,,,0,,WHITE,True,CORRECT,1.7219875000009779,1721.987500000978
2,20260325_120617,D,J,False,MANUAL,2,16,316,fixed_delta,0.04010600706829564,0.013286393218712247,,,,,0.44506177349921444,1602,1998,0,,WHITE,,,0,,WHITE,True,CORRECT,1.6070529999997234,1607.0529999997234
2,20260325_120617,D,J,False,MANUAL,2,17,317,fixed_delta,0.04010600706829564,0.013286393218712247,,,,,0.5556553151002818,2000,1600,0,,BLACK,,,0,,BLACK,True,CORRECT,0.8371831999993447,837.1831999993447
2,20260325_120617,D,J,False,MANUAL,2,18,318,fixed_delta,0.04010600706829564,0.013286393218712247,,,,,0.5494129830531865,1978,1622,0,,BLACK,,,0,,BLACK,True,CORRECT,0.8287712999990617,828.7712999990617
2,20260325_120617,D,J,False,MANUAL,2,19,319,fixed_delta,0.04010600706829564,0.013286393218712247,,,,,0.45380467596544416,1634,1966,0,,WHITE,,,0,,WHITE,True,CORRECT,2.9119494000005943,2911.9494000005943
2,20260325_120617,D,J,False,MANUAL,2,20,320,fixed_delta,0.04010600706829564,0.013286393218712247,,,,,0.5425350902022118,1953,1647,0,,BLACK,,,0,,BLACK,True,CORRECT,1.7849528999995528,1784.9528999995528
2,20260325_120617,D,J,False,MANUAL,2,21,321,fixed_delta,0.04010600706829564,0.013286393218712247,,,,,0.5458856408171394,1965,1635,0,,BLACK,,,0,,BLACK,True,CORRECT,1.1861631000010675,1186.1631000010675
2,20260325_120617,D,J,False,MANUAL,2,22,322,fixed_delta,0.04010600706829564,0.013286393218712247,,,,,0.4539113820808975,1634,1966,0,,WHITE,,,0,,WHITE,True,CORRECT,1.4327428000015061,1432.742800001506
2,20260325_120617,D,J,False,MANUAL,2,23,323,fixed_delta,0.04010600706829564,0.013286393218712247,,,,,0.5265991147491688,1896,1704,0,,BLACK,,,0,,BLACK,True,CORRECT,3.6411637000001065,3641.1637000001065
2,20260325_120617,D,J,False,MANUAL,2,24,324,fixed_delta,0.04010600706829564,0.013286393218712247,,,,,0.5425157336657049,1953,1647,0,,BLACK,,,0,,BLACK,True,CORRECT,2.536005699999805,2536.005699999805
2,20260325_120617,D,J,False,MANUAL,2,25,325,fixed_delta,0.04010600706829564,0.013286393218712247,,,,,0.4740013425865839,1706,1894,0,,WHITE,,,0,,WHITE,True,CORRECT,3.2651054999987537,3265.1054999987537
2,20260325_120617,D,J,False,MANUAL,2,26,326,fixed_delta,0.04010600706829564,0.013286393218712247,,,,,0.44413534139871935,1599,2001,0,,WHITE,,,0,,WHITE,True,CORRECT,1.7920883999995567,1792.0883999995567
2,20260325_120617,D,J,False,MANUAL,2,27,327,fixed_delta,0.04010600706829564,0.013286393218712247,,,,,0.4611188046436076,1660,1940,0,,WHITE,,,0,,WHITE,True,CORRECT,2.9431746999998722,2943.1746999998722
2,20260325_120617,D,J,False,MANUAL,2,28,328,fixed_delta,0.04010600706829564,0.013286393218712247,,,,,0.4702548192888038,1693,1907,0,,WHITE,,,0,,WHITE,True,CORRECT,1.9761710000002495,1976.1710000002495
2,20260325_120617,D,J,False,MANUAL,2,29,329,fixed_delta,0.04010600706829564,0.013286393218712247,,,,,0.4706172435521675,1694,1906,0,,WHITE,,,0,,BLACK,False,INCORRECT,1.8257069999999658,1825.7069999999658
2,20260325_120617,D,J,False,MANUAL,2,30,330,fixed_delta,0.04010600706829564,0.013286393218712247,,,,,0.5374365445787824,1935,1665,0,,BLACK,,,0,,WHITE,False,INCORRECT,2.296128600000884,2296.128600000884
2,20260325_120617,D,J,False,MANUAL,2,31,331,fixed_delta,0.04010600706829564,0.013286393218712247,,,,,0.47224681168700916,1700,1900,0,,WHITE,,,0,,WHITE,True,CORRECT,3.9561412000002747,3956.1412000002747
2,20260325_120617,D,J,False,MANUAL,2,32,332,fixed_delta,0.04010600706829564,0.013286393218712247,,,,,0.48278272404635064,1738,1862,0,,WHITE,,,0,,WHITE,True,CORRECT,1.283063900000343,1283.063900000343
2,20260325_120617,D,J,False,MANUAL,2,33,333,fixed_delta,0.04010600706829564,0.013286393218712247,,,,,0.44924250827047446,1617,1983,0,,WHITE,,,0,,WHITE,True,CORRECT,1.2288981999990938,1228.8981999990938
2,20260325_120617,D,J,False,MANUAL,2,34,334,fixed_delta,0.04010600706829564,0.013286393218712247,,,,,0.5301996793932477,1909,1691,0,,BLACK,,,0,,BLACK,True,CORRECT,0.671249799999714,671.249799999714
2,20260325_120617,D,J,False,MANUAL,2,35,335,fixed_delta,0.04010600706829564,0.013286393218712247,,,,,0.4507306513203368,1623,1977,0,,WHITE,,,0,,WHITE,True,CORRECT,4.706528300001082,4706.528300001082
2,20260325_120617,D,J,False,MANUAL,2,36,336,fixed_delta,0.04010600706829564,0.013286393218712247,,,,,0.4546680214156235,1637,1963,0,,WHITE,,,0,,BLACK,False,INCORRECT,2.343790499999159,2343.790499999159
2,20260325_120617,D,J,False,MANUAL,2,37,337,fixed_delta,0.04010600706829564,0.013286393218712247,,,,,0.45273906986681894,1630,1970,0,,WHITE,,,0,,WHITE,True,CORRECT,2.034923600000184,2034.9236000001838
2,20260325_120617,D,J,False,MANUAL,2,38,338,fixed_delta,0.04010600706829564,0.013286393218712247,,,,,0.539696165023042,1943,1657,0,,BLACK,,,0,,BLACK,True,CORRECT,0.8651561000006041,865.156100000604
2,20260325_120617,D,J,False,MANUAL,2,39,339,fixed_delta,0.04010600706829564,0.013286393218712247,,,,,0.4597392726069424,1655,1945,0,,WHITE,,,0,,WHITE,True,CORRECT,1.2312402999996266,1231.2402999996266
2,20260325_120617,D,J,False,MANUAL,2,40,340,fixed_delta,0.04010600706829564,0.013286393218712247,,,,,0.5334485307262373,1920,1680,0,,BLACK,,,0,,BLACK,True,CORRECT,1.2778687000009086,1277.8687000009086
2,20260325_120617,D,J,False,MANUAL,2,41,341,fixed_delta,0.04010600706829564,0.013286393218712247,,,,,0.4449468241067329,1602,1998,0,,WHITE,,,0,,WHITE,True,CORRECT,1.7280487999996694,1728.0487999996694
2,20260325_120617,D,J,False,MANUAL,2,42,342,fixed_delta,0.04010600706829564,0.013286393218712247,,,,,0.4660606410242279,1678,1922,0,,WHITE,,,0,,WHITE,True,CORRECT,0.8657885000011447,865.7885000011447
2,20260325_120617,D,J,False,MANUAL,2,43,343,fixed_delta,0.04010600706829564,0.013286393218712247,,,,,0.46936211523889093,1690,1910,0,,WHITE,,,0,,BLACK,False,INCORRECT,1.1880142999998498,1188.0142999998498
2,20260325_120617,D,J,False,MANUAL,2,44,344,fixed_delta,0.04010600706829564,0.013286393218712247,,,,,0.45405475067412737,1635,1965,0,,WHITE,,,0,,WHITE,True,CORRECT,1.3943407999995543,1394.3407999995543
2,20260325_120617,D,J,False,MANUAL,2,45,345,fixed_delta,0.04010600706829564,0.013286393218712247,,,,,0.553883871018495,1994,1606,0,,BLACK,,,0,,BLACK,True,CORRECT,0.7944848000006459,794.4848000006459
2,20260325_120617,D,J,False,MANUAL,2,46,346,fixed_delta,0.04010600706829564,0.013286393218712247,,,,,0.547880507807444,1972,1628,0,,BLACK,,,0,,BLACK,True,CORRECT,0.7985122000009142,798.5122000009142
2,20260325_120617,D,J,False,MANUAL,2,47,347,fixed_delta,0.04010600706829564,0.013286393218712247,,,,,0.4680860430853091,1685,1915,0,,WHITE,,,0,,WHITE,True,CORRECT,0.8283116000002337,828.3116000002337
2,20260325_120617,D,J,False,MANUAL,2,48,348,fixed_delta,0.04010600706829564,0.013286393218712247,,,,,0.5438589984161318,1958,1642,0,,BLACK,,,0,,BLACK,True,CORRECT,1.235604899999089,1235.604899999089
2,20260325_120617,D,J,False,MANUAL,2,49,349,fixed_delta,0.04010600706829564,0.013286393218712247,,,,,0.4625582832242312,1665,1935,0,,WHITE,,,0,,WHITE,True,CORRECT,0.7664217000001372,766.4217000001372
2,20260325_120617,D,J,False,MANUAL,2,50,350,fixed_delta,0.04010600706829564,0.013286393218712247,,,,,0.5520512766173847,1987,1613,0,,BLACK,,,0,,BLACK,True,CORRECT,0.8718040000003384,871.8040000003384
2,20260325_120617,D,J,False,MANUAL,2,51,351,fixed_delta,0.04010600706829564,0.013286393218712247,,,,,0.5630256663477168,2027,1573,0,,BLACK,,,0,,BLACK,True,CORRECT,0.9005970999987767,900.5970999987767
2,20260325_120617,D,J,False,MANUAL,2,52,352,fixed_delta,0.04010600706829564,0.013286393218712247,,,,,0.5540704334262718,1995,1605,0,,BLACK,,,0,,BLACK,True,CORRECT,0.9526473000005353,952.6473000005353
2,20260325_120617,D,J,False,MANUAL,2,53,353,fixed_delta,0.04010600706829564,0.013286393218712247,,,,,0.46107385880025303,1660,1940,0,,WHITE,,,0,,WHITE,True,CORRECT,0.7428469999995286,742.8469999995286
2,20260325_120617,D,J,False,MANUAL,2,54,354,fixed_delta,0.04010600706829564,0.013286393218712247,,,,,0.5492305592450788,1977,1623,0,,BLACK,,,0,,BLACK,True,CORRECT,0.9290137999996659,929.0137999996659
2,20260325_120617,D,J,False,MANUAL,2,55,355,fixed_delta,0.04010600706829564,0.013286393218712247,,,,,0.49972222222222223,1799,1801,0,,WHITE,,,0,,BLACK,False,INCORRECT,0.9747829999996611,974.7829999996611
2,20260325_120617,D,J,False,MANUAL,2,56,356,fixed_delta,0.04010600706829564,0.013286393218712247,,,,,0.4466608479342782,1608,1992,0,,WHITE,,,0,,WHITE,True,CORRECT,0.9521789999998873,952.1789999998873
2,20260325_120617,D,J,False,MANUAL,2,57,357,fixed_delta,0.04010600706829564,0.013286393218712247,,,,,0.4419455891815308,1591,2009,0,,WHITE,,,0,,WHITE,True,CORRECT,2.4253987000010966,2425.3987000010966
2,20260325_120617,D,J,False,MANUAL,2,58,358,fixed_delta,0.04010600706829564,0.013286393218712247,,,,,0.4744021414910656,1708,1892,0,,WHITE,,,0,,BLACK,False,INCORRECT,1.1638715999997657,1163.8715999997657
2,20260325_120617,D,J,False,MANUAL,2,59,359,fixed_delta,0.04010600706829564,0.013286393218712247,,,,,0.468012467208653,1685,1915,0,,WHITE,,,0,,WHITE,True,CORRECT,2.3981741000006878,2398.1741000006878
2,20260325_120617,D,J,False,MANUAL,2,60,360,fixed_delta,0.04010600706829564,0.013286393218712247,,,,,0.5565400207926672,2004,1596,0,,BLACK,,,0,,BLACK,True,CORRECT,0.598531900001035,598.531900001035
2,20260325_120617,D,J,False,MANUAL,2,61,361,fixed_delta,0.04010600706829564,0.013286393218712247,,,,,0.4572068216130469,1646,1954,0,,WHITE,,,0,,WHITE,True,CORRECT,2.2371751999999105,2237.1751999999105
2,20260325_120617,D,J,False,MANUAL,2,62,362,fixed_delta,0.04010600706829564,0.013286393218712247,,,,,0.4628067174231699,1666,1934,0,,WHITE,,,0,,WHITE,True,CORRECT,3.008692499999597,3008.692499999597
2,20260325_120617,D,J,False,MANUAL,2,63,363,fixed_delta,0.04010600706829564,0.013286393218712247,,,,,0.4601611402417431,1657,1943,0,,WHITE,,,0,,BLACK,False,INCORRECT,1.0358582000008028,1035.8582000008028
2,20260325_120617,D,J,False,MANUAL,2,64,364,fixed_delta,0.04010600706829564,0.013286393218712247,,,,,0.5369214690505177,1933,1667,0,,BLACK,,,0,,BLACK,True,CORRECT,0.6936977999994269,693.6977999994269
2,20260325_120617,D,J,False,MANUAL,2,65,365,fixed_delta,0.04010600706829564,0.013286393218712247,,,,,0.5466736826027858,1968,1632,0,,BLACK,,,0,,BLACK,True,CORRECT,0.6168362000007619,616.8362000007619
2,20260325_120617,D,J,False,MANUAL,2,66,366,fixed_delta,0.04010600706829564,0.013286393218712247,,,,,0.5665001678842613,2039,1561,0,,BLACK,,,0,,BLACK,True,CORRECT,0.8708753000009892,870.8753000009892
2,20260325_120617,D,J,False,MANUAL,2,67,367,fixed_delta,0.04010600706829564,0.013286393218712247,,,,,0.4378190951321049,1576,2024,0,,WHITE,,,0,,WHITE,True,CORRECT,0.6276906000002782,627.6906000002782
2,20260325_120617,D,J,False,MANUAL,2,68,368,fixed_delta,0.04010600706829564,0.013286393218712247,,,,,0.4597291825449231,1655,1945,0,,WHITE,,,0,,WHITE,True,CORRECT,1.4575666999990062,1457.5666999990062
2,20260325_120617,D,J,False,MANUAL,2,69,369,fixed_delta,0.04010600706829564,0.013286393218712247,,,,,0.4660188126411633,1678,1922,0,,WHITE,,,0,,WHITE,True,CORRECT,0.9362681999991764,936.2681999991764
2,20260325_120617,D,J,False,MANUAL,2,70,370,fixed_delta,0.04010600706829564,0.013286393218712247,,,,,0.4958177617463212,1785,1815,0,,WHITE,,,0,,WHITE,True,CORRECT,0.7648265999996511,764.8265999996511
2,20260325_120617,D,J,False,MANUAL,2,71,371,fixed_delta,0.04010600706829564,0.013286393218712247,,,,,0.4219569706145811,1519,2081,0,,WHITE,,,0,,WHITE,True,CORRECT,0.6940776000010374,694.0776000010374
2,20260325_120617,D,J,False,MANUAL,2,72,372,fixed_delta,0.04010600706829564,0.013286393218712247,,,,,0.5386969759175187,1939,1661,0,,BLACK,,,0,,BLACK,True,CORRECT,0.7388343999991775,738.8343999991775
2,20260325_120617,D,J,False,MANUAL,2,73,373,fixed_delta,0.04010600706829564,0.013286393218712247,,,,,0.4871665409664881,1754,1846,0,,WHITE,,,0,,WHITE,True,CORRECT,1.0522843999988254,1052.2843999988254
2,20260325_120617,D,J,False,MANUAL,2,74,374,fixed_delta,0.04010600706829564,0.013286393218712247,,,,,0.5633578633457053,2028,1572,0,,BLACK,,,0,,BLACK,True,CORRECT,0.5530324999999721,553.0324999999721
2,20260325_120617,D,J,False,MANUAL,2,75,375,fixed_delta,0.04010600706829564,0.013286393218712247,,,,,0.44087682265473294,1587,2013,0,,WHITE,,,0,,WHITE,True,CORRECT,0.5677309999991849,567.7309999991849
2,20260325_120617,D,J,False,MANUAL,2,76,376,fixed_delta,0.04010600706829564,0.013286393218712247,,,,,0.45688050156465176,1645,1955,0,,WHITE,,,0,,BLACK,False,INCORRECT,0.40321440000116127,403.21440000116127
2,20260325_120617,D,J,False,MANUAL,2,77,377,fixed_delta,0.04010600706829564,0.013286393218712247,,,,,0.5235227657610467,1885,1715,0,,BLACK,,,0,,BLACK,True,CORRECT,0.6041924999990442,604.1924999990442
2,20260325_120617,D,J,False,MANUAL,2,78,378,fixed_delta,0.04010600706829564,0.013286393218712247,,,,,0.449229442608459,1617,1983,0,,WHITE,,,0,,WHITE,True,CORRECT,1.3995259000002989,1399.5259000002989
2,20260325_120617,D,J,False,MANUAL,2,79,379,fixed_delta,0.04010600706829564,0.013286393218712247,,,,,0.5343130046752345,1924,1676,0,,BLACK,,,0,,BLACK,True,CORRECT,0.9198906999990868,919.8906999990868
2,20260325_120617,D,J,False,MANUAL,2,80,380,fixed_delta,0.04010600706829564,0.013286393218712247,,,,,0.5507314854135892,1983,1617,0,,BLACK,,,0,,WHITE,False,INCORRECT,1.2342580999993515,1234.2580999993515
2,20260325_120617,D,J,False,MANUAL,2,81,381,fixed_delta,0.04010600706829564,0.013286393218712247,,,,,0.537811370240945,1936,1664,0,,BLACK,,,0,,BLACK,True,CORRECT,4.008987100000013,4008.987100000013
2,20260325_120617,D,J,False,MANUAL,2,82,382,fixed_delta,0.04010600706829564,0.013286393218712247,,,,,0.5358600412831558,1929,1671,0,,BLACK,,,0,,WHITE,False,INCORRECT,2.7166668999998365,2716.6668999998365
2,20260325_120617,D,J,False,MANUAL,2,83,383,fixed_delta,0.04010600706829564,0.013286393218712247,,,,,0.5451001708338968,1962,1638,0,,BLACK,,,0,,BLACK,True,CORRECT,0.582930500000657,582.930500000657
2,20260325_120617,D,J,False,MANUAL,2,84,384,fixed_delta,0.04010600706829564,0.013286393218712247,,,,,0.46795283107015406,1685,1915,0,,WHITE,,,0,,WHITE,True,CORRECT,2.4238108999998076,2423.8108999998076
2,20260325_120617,D,J,False,MANUAL,2,85,385,fixed_delta,0.04010600706829564,0.013286393218712247,,,,,0.5567013218215425,2004,1596,0,,BLACK,,,0,,BLACK,True,CORRECT,1.008954700000686,1008.954700000686
2,20260325_120617,D,J,False,MANUAL,2,86,386,fixed_delta,0.04010600706829564,0.013286393218712247,,,,,0.5293362722392965,1906,1694,0,,BLACK,,,0,,BLACK,True,CORRECT,2.4601952000011806,2460.1952000011806
2,20260325_120617,D,J,False,MANUAL,2,87,387,fixed_delta,0.04010600706829564,0.013286393218712247,,,,,0.5551935452215575,1999,1601,0,,BLACK,,,0,,BLACK,True,CORRECT,1.10499130000062,1104.99130000062
2,20260325_120617,D,J,False,MANUAL,2,88,388,fixed_delta,0.04010600706829564,0.013286393218712247,,,,,0.5509789966615609,1984,1616,0,,BLACK,,,0,,BLACK,True,CORRECT,0.7639278000006016,763.9278000006016
2,20260325_120617,D,J,False,MANUAL,2,89,389,fixed_delta,0.04010600706829564,0.013286393218712247,,,,,0.4686752526950453,1687,1913,0,,WHITE,,,0,,WHITE,True,CORRECT,0.4385180000008404,438.5180000008404
2,20260325_120617,D,J,False,MANUAL,2,90,390,fixed_delta,0.04010600706829564,0.013286393218712247,,,,,0.45860607290432465,1651,1949,0,,WHITE,,,0,,WHITE,True,CORRECT,0.5821295000005193,582.1295000005193
2,20260325_120617,D,J,False,MANUAL,2,91,391,fixed_delta,0.04010600706829564,0.013286393218712247,,,,,0.4634860076363095,1669,1931,0,,WHITE,,,0,,WHITE,True,CORRECT,0.6434292000012647,643.4292000012647
2,20260325_120617,D,J,False,MANUAL,2,92,392,fixed_delta,0.04010600706829564,0.013286393218712247,,,,,0.4402892880551024,1585,2015,0,,WHITE,,,0,,WHITE,True,CORRECT,0.6713620000009541,671.3620000009541
2,20260325_120617,D,J,False,MANUAL,2,93,393,fixed_delta,0.04010600706829564,0.013286393218712247,,,,,0.54353899258758,1957,1643,0,,BLACK,,,0,,BLACK,True,CORRECT,0.6499053999996249,649.9053999996249
2,20260325_120617,D,J,False,MANUAL,2,94,394,fixed_delta,0.04010600706829564,0.013286393218712247,,,,,0.5441515827984367,1959,1641,0,,BLACK,,,0,,BLACK,True,CORRECT,1.6437810999996145,1643.7810999996145
2,20260325_120617,D,J,False,MANUAL,2,95,395,fixed_delta,0.04010600706829564,0.013286393218712247,,,,,0.5430963531419183,1955,1645,0,,BLACK,,,0,,BLACK,True,CORRECT,0.64054810000016,640.54810000016
2,20260325_120617,D,J,False,MANUAL,2,96,396,fixed_delta,0.04010600706829564,0.013286393218712247,,,,,0.5377267869924136,1936,1664,0,,BLACK,,,0,,BLACK,True,CORRECT,0.9090543999991496,909.0543999991496
2,20260325_120617,D,J,False,MANUAL,2,97,397,fixed_delta,0.04010600706829564,0.013286393218712247,,,,,0.44241031862983654,1593,2007,0,,WHITE,,,0,,WHITE,True,CORRECT,0.6218621000007261,621.8621000007261
2,20260325_120617,D,J,False,MANUAL,2,98,398,fixed_delta,0.04010600706829564,0.013286393218712247,,,,,0.5365907304679074,1932,1668,0,,BLACK,,,0,,BLACK,True,CORRECT,0.7723540999995748,772.3540999995748
2,20260325_120617,D,J,False,MANUAL,2,99,399,fixed_delta,0.04010600706829564,0.013286393218712247,,,,,0.4513920749717856,1625,1975,0,,WHITE,,,0,,WHITE,True,CORRECT,0.6579756000010093,657.9756000010093
2,20260325_120617,D,J,False,MANUAL,2,100,400,fixed_delta,0.04010600706829564,0.013286393218712247,,,,,0.47062133068992684,1694,1906,0,,WHITE,,,0,,WHITE,True,CORRECT,0.7574421999997867,757.4421999997867
2,20260325_120617,D,J,False,MANUAL,2,101,401,fixed_delta,0.04010600706829564,0.013286393218712247,,,,,0.475847468379474,1713,1887,0,,WHITE,,,0,,BLACK,False,INCORRECT,0.6401430999994773,640.1430999994773
2,20260325_120617,D,J,False,MANUAL,2,102,402,fixed_delta,0.04010600706829564,0.013286393218712247,,,,,0.524883980183554,1890,1710,0,,BLACK,,,0,,BLACK,True,CORRECT,0.7731894999997166,773.1894999997166
2,20260325_120617,D,J,False,MANUAL,2,103,403,fixed_delta,0.04010600706829564,0.013286393218712247,,,,,0.5331466549937874,1919,1681,0,,BLACK,,,0,,BLACK,True,CORRECT,1.1637491000001319,1163.7491000001319
2,20260325_120617,D,J,False,MANUAL,2,104,404,fixed_delta,0.04010600706829564,0.013286393218712247,,,,,0.46990343422195013,1692,1908,0,,WHITE,,,0,,WHITE,True,CORRECT,0.8230898000001616,823.0898000001616
2,20260325_120617,D,J,False,MANUAL,2,105,405,fixed_delta,0.04010600706829564,0.013286393218712247,,,,,0.5273820609198479,1899,1701,0,,BLACK,,,0,,BLACK,True,CORRECT,0.9078387999998085,907.8387999998085
2,20260325_120617,D,J,False,MANUAL,2,106,406,fixed_delta,0.04010600706829564,0.013286393218712247,,,,,0.4434313429128016,1596,2004,0,,WHITE,,,0,,WHITE,True,CORRECT,0.868507099999988,868.507099999988
2,20260325_120617,D,J,False,MANUAL,2,107,407,fixed_delta,0.04010600706829564,0.013286393218712247,,,,,0.5653589727794738,2035,1565,0,,BLACK,,,0,,BLACK,True,CORRECT,1.6912110000012035,1691.2110000012035
2,20260325_120617,D,J,False,MANUAL,2,108,408,fixed_delta,0.04010600706829564,0.013286393218712247,,,,,0.4321372252906618,1556,2044,0,,WHITE,,,0,,WHITE,True,CORRECT,1.6215864999994665,1621.5864999994665
2,20260325_120617,D,J,False,MANUAL,2,109,409,fixed_delta,0.04010600706829564,0.013286393218712247,,,,,0.5472265839230119,1970,1630,0,,BLACK,,,0,,BLACK,True,CORRECT,2.1851365999991685,2185.1365999991685
2,20260325_120617,D,J,False,MANUAL,2,110,410,fixed_delta,0.04010600706829564,0.013286393218712247,,,,,0.4560534630524034,1642,1958,0,,WHITE,,,0,,WHITE,True,CORRECT,2.3394281000000774,2339.4281000000774
2,20260325_120617,D,J,False,MANUAL,2,111,411,fixed_delta,0.04010600706829564,0.013286393218712247,,,,,0.5349584218114573,1926,1674,0,,BLACK,,,0,,BLACK,True,CORRECT,0.7423397999991721,742.3397999991721
2,20260325_120617,D,J,False,MANUAL,2,112,412,fixed_delta,0.04010600706829564,0.013286393218712247,,,,,0.4602165685886627,1657,1943,0,,WHITE,,,0,,WHITE,True,CORRECT,0.8637777999992977,863.7777999992977
2,20260325_120617,D,J,False,MANUAL,2,113,413,fixed_delta,0.04010600706829564,0.013286393218712247,,,,,0.4654527966890473,1676,1924,0,,WHITE,,,0,,WHITE,True,CORRECT,0.8082683000011457,808.2683000011457
2,20260325_120617,D,J,False,MANUAL,2,114,414,fixed_delta,0.04010600706829564,0.013286393218712247,,,,,0.5367709932532297,1932,1668,0,,BLACK,,,0,,BLACK,True,CORRECT,0.7358898000002227,735.8898000002227
2,20260325_120617,D,J,False,MANUAL,2,115,415,fixed_delta,0.04010600706829564,0.013286393218712247,,,,,0.5353058009565853,1927,1673,0,,BLACK,,,0,,BLACK,True,CORRECT,1.1366264000007504,1136.6264000007504
2,20260325_120617,D,J,False,MANUAL,2,116,416,fixed_delta,0.04010600706829564,0.013286393218712247,,,,,0.5523467649613873,1988,1612,0,,BLACK,,,0,,BLACK,True,CORRECT,1.7335751999999047,1733.5751999999047
2,20260325_120617,D,J,False,MANUAL,2,117,417,fixed_delta,0.04010600706829564,0.013286393218712247,,,,,0.5145934722238389,1853,1747,0,,BLACK,,,0,,BLACK,True,CORRECT,1.825389700001324,1825.389700001324
2,20260325_120617,D,J,False,MANUAL,2,118,418,fixed_delta,0.04010600706829564,0.013286393218712247,,,,,0.4648146659174993,1673,1927,0,,WHITE,,,0,,WHITE,True,CORRECT,2.1214830999997503,2121.4830999997503
2,20260325_120617,D,J,False,MANUAL,2,119,419,fixed_delta,0.04010600706829564,0.013286393218712247,,,,,0.44531000558647316,1603,1997,0,,WHITE,,,0,,WHITE,True,CORRECT,2.2471395999982633,2247.1395999982633
2,20260325_120617,D,J,False,MANUAL,2,120,420,fixed_delta,0.04010600706829564,0.013286393218712247,,,,,0.4439489198443619,1598,2002,0,,WHITE,,,0,,WHITE,True,CORRECT,2.6434506999994483,2643.4506999994483
2,20260325_120617,D,J,False,MANUAL,2,121,421,fixed_delta,0.04010600706829564,0.013286393218712247,,,,,0.5575772848697965,2007,1593,0,,BLACK,,,0,,BLACK,True,CORRECT,0.8064082999990205,806.4082999990205
2,20260325_120617,D,J,False,MANUAL,2,122,422,fixed_delta,0.04010600706829564,0.013286393218712247,,,,,0.5264981129504825,1895,1705,0,,BLACK,,,0,,BLACK,True,CORRECT,0.5114373999986128,511.4373999986128
2,20260325_120617,D,J,False,MANUAL,2,123,423,fixed_delta,0.04010600706829564,0.013286393218712247,,,,,0.5336267177227094,1921,1679,0,,BLACK,,,0,,BLACK,True,CORRECT,0.5262975999994524,526.2975999994524
2,20260325_120617,D,J,False,MANUAL,2,124,424,fixed_delta,0.04010600706829564,0.013286393218712247,,,,,0.47997470653749486,1728,1872,0,,WHITE,,,0,,BLACK,False,INCORRECT,2.877793900001052,2877.793900001052
2,20260325_120617,D,J,False,MANUAL,2,125,425,fixed_delta,0.04010600706829564,0.013286393218712247,,,,,0.4641847697505844,1671,1929,0,,WHITE,,,0,,WHITE,True,CORRECT,1.3307740000000194,1330.7740000000194
2,20260325_120617,D,J,False,MANUAL,2,126,426,fixed_delta,0.04010600706829564,0.013286393218712247,,,,,0.44695170923274236,1609,1991,0,,WHITE,,,0,,WHITE,True,CORRECT,1.2012245999994775,1201.2245999994775
2,20260325_120617,D,J,False,MANUAL,2,127,427,fixed_delta,0.04010600706829564,0.013286393218712247,,,,,0.43434482462308155,1564,2036,0,,WHITE,,,0,,WHITE,True,CORRECT,1.0411942999999155,1041.1942999999155
2,20260325_120617,D,J,False,MANUAL,2,128,428,fixed_delta,0.04010600706829564,0.013286393218712247,,,,,0.5607602254672194,2019,1581,0,,BLACK,,,0,,BLACK,True,CORRECT,0.5158053999984986,515.8053999984986
2,20260325_120617,D,J,False,MANUAL,2,129,429,fixed_delta,0.04010600706829564,0.013286393218712247,,,,,0.5002777777777778,1801,1799,0,,BLACK,,,0,,BLACK,True,CORRECT,0.6406136999994487,640.6136999994487
2,20260325_120617,D,J,False,MANUAL,2,130,430,fixed_delta,0.04010600706829564,0.013286393218712247,,,,,0.44650026149041755,1607,1993,0,,WHITE,,,0,,WHITE,True,CORRECT,0.7036600999999791,703.6600999999791
2,20260325_120617,D,J,False,MANUAL,2,131,431,fixed_delta,0.04010600706829564,0.013286393218712247,,,,,0.45816070857825975,1649,1951,0,,WHITE,,,0,,WHITE,True,CORRECT,1.1658375000006345,1165.8375000006345
2,20260325_120617,D,J,False,MANUAL,2,132,432,fixed_delta,0.04010600706829564,0.013286393218712247,,,,,0.5390929148435953,1941,1659,0,,BLACK,,,0,,WHITE,False,INCORRECT,1.7593976999996812,1759.3976999996812
2,20260325_120617,D,J,False,MANUAL,2,133,433,fixed_delta,0.04010600706829564,0.013286393218712247,,,,,0.5367983384009503,1932,1668,0,,BLACK,,,0,,BLACK,True,CORRECT,0.8082653000001301,808.2653000001301
2,20260325_120617,D,J,False,MANUAL,2,134,434,fixed_delta,0.04010600706829564,0.013286393218712247,,,,,0.5409252271160427,1947,1653,0,,BLACK,,,0,,BLACK,True,CORRECT,1.179488699999638,1179.488699999638
2,20260325_120617,D,J,False,MANUAL,2,135,435,fixed_delta,0.04010600706829564,0.013286393218712247,,,,,0.46609971083906326,1678,1922,0,,WHITE,,,0,,WHITE,True,CORRECT,0.9252956000000268,925.2956000000268
2,20260325_120617,D,J,False,MANUAL,2,136,436,fixed_delta,0.04010600706829564,0.013286393218712247,,,,,0.5427431884411964,1954,1646,0,,BLACK,,,0,,BLACK,True,CORRECT,1.2461645000003045,1246.1645000003045
2,20260325_120617,D,J,False,MANUAL,2,137,437,fixed_delta,0.04010600706829564,0.013286393218712247,,,,,0.5434284928666991,1956,1644,0,,BLACK,,,0,,BLACK,True,CORRECT,1.511521399999765,1511.521399999765
2,20260325_120617,D,J,False,MANUAL,2,138,438,fixed_delta,0.04010600706829564,0.013286393218712247,,,,,0.4534395039369301,1632,1968,0,,WHITE,,,0,,BLACK,False,INCORRECT,2.5573176000016247,2557.3176000016247
2,20260325_120617,D,J,False,MANUAL,2,139,439,fixed_delta,0.04010600706829564,0.013286393218712247,,,,,0.5467554239309024,1968,1632,0,,BLACK,,,0,,BLACK,True,CORRECT,1.3823706000002858,1382.3706000002858
2,20260325_120617,D,J,False,MANUAL,2,140,440,fixed_delta,0.04010600706829564,0.013286393218712247,,,,,0.5473117506673908,1970,1630,0,,BLACK,,,0,,BLACK,True,CORRECT,0.9827018000014505,982.7018000014505
2,20260325_120617,D,J,False,MANUAL,2,141,441,fixed_delta,0.04010600706829564,0.013286393218712247,,,,,0.567602690052155,2043,1557,0,,BLACK,,,0,,BLACK,True,CORRECT,0.8947927000008349,894.7927000008349
2,20260325_120617,D,J,False,MANUAL,2,142,442,fixed_delta,0.04010600706829564,0.013286393218712247,,,,,0.5344570218899377,1924,1676,0,,BLACK,,,0,,WHITE,False,INCORRECT,1.1970608000010543,1197.0608000010543
2,20260325_120617,D,J,False,MANUAL,2,143,443,fixed_delta,0.04010600706829564,0.013286393218712247,,,,,0.5492130227109348,1977,1623,0,,BLACK,,,0,,WHITE,False,INCORRECT,0.8130013999998482,813.0013999998482
2,20260325_120617,D,J,False,MANUAL,2,144,444,fixed_delta,0.04010600706829564,0.013286393218712247,,,,,0.47423832290582124,1707,1893,0,,WHITE,,,0,,WHITE,True,CORRECT,4.070576500000243,4070.576500000243
2,20260325_120617,D,J,False,MANUAL,2,145,445,fixed_delta,0.04010600706829564,0.013286393218712247,,,,,0.4785952387301099,1723,1877,0,,WHITE,,,0,,BLACK,False,INCORRECT,2.0615295999996306,2061.5295999996306
2,20260325_120617,D,J,False,MANUAL,2,146,446,fixed_delta,0.04010600706829564,0.013286393218712247,,,,,0.47328401059041425,1704,1896,0,,WHITE,,,0,,WHITE,True,CORRECT,3.269417199999225,3269.417199999225
2,20260325_120617,D,J,False,MANUAL,2,147,447,fixed_delta,0.04010600706829564,0.013286393218712247,,,,,0.4715470835213059,1698,1902,0,,WHITE,,,0,,BLACK,False,INCORRECT,1.162991499999407,1162.991499999407
2,20260325_120617,D,J,False,MANUAL,2,148,448,fixed_delta,0.04010600706829564,0.013286393218712247,,,,,0.46844158058986773,1686,1914,0,,WHITE,,,0,,WHITE,True,CORRECT,2.1988860000001296,2198.8860000001296
2,20260325_120617,D,J,False,MANUAL,2,149,449,fixed_delta,0.04010600706829564,0.013286393218712247,,,,,0.46821177096961847,1686,1914,0,,WHITE,,,0,,WHITE,True,CORRECT,0.8462632000009762,846.2632000009762
2,20260325_120617,D,J,False,MANUAL,2,150,450,fixed_delta,0.04010600706829564,0.013286393218712247,,,,,0.5245660419742597,1888,1712,0,,BLACK,,,0,,BLACK,True,CORRECT,0.743680100000347,743.680100000347
2,20260325_120617,D,J,False,MANUAL,2,151,451,fixed_delta,0.04010600706829564,0.013286393218712247,,,,,0.4631159638843553,1667,1933,0,,WHITE,,,0,,WHITE,True,CORRECT,1.7839999000007083,1783.9999000007083
2,20260325_120617,D,J,False,MANUAL,2,152,452,fixed_delta,0.04010600706829564,0.013286393218712247,,,,,0.5448032546325521,1961,1639,0,,BLACK,,,0,,BLACK,True,CORRECT,0.7595403000013903,759.5403000013903
2,20260325_120617,D,J,False,MANUAL,2,153,453,fixed_delta,0.04010600706829564,0.013286393218712247,,,,,0.5366177275760309,1932,1668,0,,BLACK,,,0,,BLACK,True,CORRECT,1.4888633999999001,1488.8633999999001
2,20260325_120617,D,J,False,MANUAL,2,154,454,fixed_delta,0.04010600706829564,0.013286393218712247,,,,,0.4721454964535896,1700,1900,0,,WHITE,,,0,,WHITE,True,CORRECT,0.7633802999989712,763.3802999989712
2,20260325_120617,D,J,False,MANUAL,2,155,455,fixed_delta,0.04010600706829564,0.013286393218712247,,,,,0.44968325251411534,1619,1981,0,,WHITE,,,0,,WHITE,True,CORRECT,2.021755600000688,2021.755600000688
2,20260325_120617,D,J,False,MANUAL,2,156,456,fixed_delta,0.04010600706829564,0.013286393218712247,,,,,0.45416480133922316,1635,1965,0,,WHITE,,,0,,BLACK,False,INCORRECT,0.7757548000008683,775.7548000008683
2,20260325_120617,D,J,False,MANUAL,2,157,457,fixed_delta,0.04010600706829564,0.013286393218712247,,,,,0.45571531148747796,1641,1959,0,,WHITE,,,0,,WHITE,True,CORRECT,4.073908300000767,4073.9083000007668
2,20260325_120617,D,J,False,MANUAL,2,158,458,fixed_delta,0.04010600706829564,0.013286393218712247,,,,,0.4725006816437404,1701,1899,0,,WHITE,,,0,,WHITE,True,CORRECT,3.336277800000971,3336.277800000971
2,20260325_120617,D,J,False,MANUAL,2,159,459,fixed_delta,0.04010600706829564,0.013286393218712247,,,,,0.44739138959839153,1611,1989,0,,WHITE,,,0,,WHITE,True,CORRECT,1.0212900999995327,1021.2900999995327
2,20260325_120617,D,J,False,MANUAL,2,160,460,fixed_delta,0.04010600706829564,0.013286393218712247,,,,,0.45494033837159603,1638,1962,0,,WHITE,,,0,,WHITE,True,CORRECT,2.2541980000005424,2254.1980000005424
2,20260325_120617,D,J,False,MANUAL,2,161,461,fixed_delta,0.04010600706829564,0.013286393218712247,,,,,0.45806073378568973,1649,1951,0,,WHITE,,,0,,WHITE,True,CORRECT,2.8293931000007433,2829.3931000007433
2,20260325_120617,D,J,False,MANUAL,2,162,462,fixed_delta,0.04010600706829564,0.013286393218712247,,,,,0.47643227869512034,1715,1885,0,,WHITE,,,0,,WHITE,True,CORRECT,0.8644087000011496,864.4087000011496
2,20260325_120617,D,J,False,MANUAL,2,163,463,fixed_delta,0.04010600706829564,0.013286393218712247,,,,,0.4621616048032576,1664,1936,0,,WHITE,,,0,,WHITE,True,CORRECT,0.669425099998989,669.425099998989
2,20260325_120617,D,J,False,MANUAL,2,164,464,fixed_delta,0.04010600706829564,0.013286393218712247,,,,,0.46877002828277314,1688,1912,0,,WHITE,,,0,,WHITE,True,CORRECT,0.7358153000004677,735.8153000004677
2,20260325_120617,D,J,False,MANUAL,2,165,465,fixed_delta,0.04010600706829564,0.013286393218712247,,,,,0.549996194851871,1980,1620,0,,BLACK,,,0,,BLACK,True,CORRECT,1.517727799999193,1517.727799999193
2,20260325_120617,D,J,False,MANUAL,2,166,466,fixed_delta,0.04010600706829564,0.013286393218712247,,,,,0.5307914876865713,1911,1689,0,,BLACK,,,0,,BLACK,True,CORRECT,1.6219978000008268,1621.9978000008268
2,20260325_120617,D,J,False,MANUAL,2,167,467,fixed_delta,0.04010600706829564,0.013286393218712247,,,,,0.5317199885281293,1914,1686,0,,BLACK,,,0,,WHITE,False,INCORRECT,1.5932494999997289,1593.2494999997289
2,20260325_120617,D,J,False,MANUAL,2,168,468,fixed_delta,0.04010600706829564,0.013286393218712247,,,,,0.4771711778979223,1718,1882,0,,WHITE,,,0,,BLACK,False,INCORRECT,1.330067599999893,1330.067599999893
2,20260325_120617,D,J,False,MANUAL,2,169,469,fixed_delta,0.04010600706829564,0.013286393218712247,,,,,0.5475948652562314,1971,1629,0,,BLACK,,,0,,BLACK,True,CORRECT,1.1975461000001815,1197.5461000001815
2,20260325_120617,D,J,False,MANUAL,2,170,470,fixed_delta,0.04010600706829564,0.013286393218712247,,,,,0.47191008121202876,1699,1901,0,,WHITE,,,0,,WHITE,True,CORRECT,0.6876514999985375,687.6514999985375
2,20260325_120617,D,J,False,MANUAL,2,171,471,fixed_delta,0.04010600706829564,0.013286393218712247,,,,,0.5300109861548168,1908,1692,0,,BLACK,,,0,,WHITE,False,INCORRECT,0.6309610999996949,630.9610999996949
2,20260325_120617,D,J,False,MANUAL,2,172,472,fixed_delta,0.04010600706829564,0.013286393218712247,,,,,0.549961055735013,1980,1620,0,,BLACK,,,0,,BLACK,True,CORRECT,1.2362326000002213,1236.2326000002213
2,20260325_120617,D,J,False,MANUAL,2,173,473,fixed_delta,0.04010600706829564,0.013286393218712247,,,,,0.4482830890791558,1614,1986,0,,WHITE,,,0,,WHITE,True,CORRECT,0.8132068000013533,813.2068000013533
2,20260325_120617,D,J,False,MANUAL,2,174,474,fixed_delta,0.04010600706829564,0.013286393218712247,,,,,0.468147234894409,1685,1915,0,,WHITE,,,0,,WHITE,True,CORRECT,0.6531125999990763,653.1125999990763
2,20260325_120617,D,J,False,MANUAL,2,175,475,fixed_delta,0.04010600706829564,0.013286393218712247,,,,,0.4726765467877571,1702,1898,0,,WHITE,,,0,,WHITE,True,CORRECT,3.031679499999882,3031.679499999882
2,20260325_120617,D,J,False,MANUAL,2,176,476,fixed_delta,0.04010600706829564,0.013286393218712247,,,,,0.45495632209979975,1638,1962,0,,WHITE,,,0,,WHITE,True,CORRECT,2.559621899999911,2559.621899999911
2,20260325_120617,D,J,False,MANUAL,2,177,477,fixed_delta,0.04010600706829564,0.013286393218712247,,,,,0.4543662885883679,1636,1964,0,,WHITE,,,0,,WHITE,True,CORRECT,1.7830168999989837,1783.0168999989837
2,20260325_120617,D,J,False,MANUAL,2,178,478,fixed_delta,0.04010600706829564,0.013286393218712247,,,,,0.46359484392743266,1669,1931,0,,WHITE,,,0,,WHITE,True,CORRECT,1.3354383000005328,1335.4383000005328
2,20260325_120617,D,J,False,MANUAL,2,179,479,fixed_delta,0.04010600706829564,0.013286393218712247,,,,,0.5294387579806045,1906,1694,0,,BLACK,,,0,,BLACK,True,CORRECT,0.9067369000003964,906.7369000003964
2,20260325_120617,D,J,False,MANUAL,2,180,480,fixed_delta,0.04010600706829564,0.013286393218712247,,,,,0.5529447352108533,1991,1609,0,,BLACK,,,0,,BLACK,True,CORRECT,1.2863052000011521,1286.3052000011521
2,20260325_120617,D,J,False,MANUAL,2,181,481,fixed_delta,0.04010600706829564,0.013286393218712247,,,,,0.5626170198035014,2025,1575,0,,BLACK,,,0,,BLACK,True,CORRECT,0.6810721000001649,681.0721000001649
2,20260325_120617,D,J,False,MANUAL,2,182,482,fixed_delta,0.04010600706829564,0.013286393218712247,,,,,0.5475923709844115,1971,1629,0,,BLACK,,,0,,BLACK,True,CORRECT,0.48268839999946067,482.68839999946067
2,20260325_120617,D,J,False,MANUAL,2,183,483,fixed_delta,0.04010600706829564,0.013286393218712247,,,,,0.5408949307856373,1947,1653,0,,BLACK,,,0,,BLACK,True,CORRECT,1.226655499998742,1226.655499998742
2,20260325_120617,D,J,False,MANUAL,2,184,484,fixed_delta,0.04010600706829564,0.013286393218712247,,,,,0.5220732088486255,1879,1721,0,,BLACK,,,0,,WHITE,False,INCORRECT,0.7723888000000443,772.3888000000443
2,20260325_120617,D,J,False,MANUAL,2,185,485,fixed_delta,0.04010600706829564,0.013286393218712247,,,,,0.5713095867892592,2057,1543,0,,BLACK,,,0,,BLACK,True,CORRECT,0.6748506000003545,674.8506000003545
2,20260325_120617,D,J,False,MANUAL,2,186,486,fixed_delta,0.04010600706829564,0.013286393218712247,,,,,0.47361168120888714,1705,1895,0,,WHITE,,,0,,WHITE,True,CORRECT,0.7582266000008531,758.2266000008531
2,20260325_120617,D,J,False,MANUAL,2,187,487,fixed_delta,0.04010600706829564,0.013286393218712247,,,,,0.47132014150579576,1697,1903,0,,WHITE,,,0,,BLACK,False,INCORRECT,1.240069899999071,1240.069899999071
2,20260325_120617,D,J,False,MANUAL,2,188,488,fixed_delta,0.04010600706829564,0.013286393218712247,,,,,0.5470319552174026,1969,1631,0,,BLACK,,,0,,BLACK,True,CORRECT,2.898353299999144,2898.353299999144
2,20260325_120617,D,J,False,MANUAL,2,189,489,fixed_delta,0.04010600706829564,0.013286393218712247,,,,,0.46807373963737653,1685,1915,0,,WHITE,,,0,,BLACK,False,INCORRECT,4.1625720000010915,4162.5720000010915
2,20260325_120617,D,J,False,MANUAL,2,190,490,fixed_delta,0.04010600706829564,0.013286393218712247,,,,,0.46907387754631236,1689,1911,0,,WHITE,,,0,,WHITE,True,CORRECT,4.083567199999379,4083.567199999379
2,20260325_120617,D,J,False,MANUAL,2,191,491,fixed_delta,0.04010600706829564,0.013286393218712247,,,,,0.464110478535007,1671,1929,0,,WHITE,,,0,,WHITE,True,CORRECT,0.9398858000004111,939.8858000004111
2,20260325_120617,D,J,False,MANUAL,2,192,492,fixed_delta,0.04010600706829564,0.013286393218712247,,,,,0.46043408427265,1658,1942,0,,WHITE,,,0,,WHITE,True,CORRECT,0.6374307999994926,637.4307999994926
2,20260325_120617,D,J,False,MANUAL,2,193,493,fixed_delta,0.04010600706829564,0.013286393218712247,,,,,0.44921725960156095,1617,1983,0,,WHITE,,,0,,WHITE,True,CORRECT,1.483314999999493,1483.314999999493
2,20260325_120617,D,J,False,MANUAL,2,194,494,fixed_delta,0.04010600706829564,0.013286393218712247,,,,,0.46606800671036697,1678,1922,0,,WHITE,,,0,,BLACK,False,INCORRECT,0.7896299000003637,789.6299000003637
2,20260325_120617,D,J,False,MANUAL,2,195,495,fixed_delta,0.04010600706829564,0.013286393218712247,,,,,0.5401532415751573,1945,1655,0,,BLACK,,,0,,BLACK,True,CORRECT,0.6969951999999466,696.9951999999466
2,20260325_120617,D,J,False,MANUAL,2,196,496,fixed_delta,0.04010600706829564,0.013286393218712247,,,,,0.4605254007643556,1658,1942,0,,WHITE,,,0,,WHITE,True,CORRECT,0.8330148000004556,833.0148000004556
2,20260325_120617,D,J,False,MANUAL,2,197,497,fixed_delta,0.04010600706829564,0.013286393218712247,,,,,0.47224579917451354,1700,1900,0,,WHITE,,,0,,WHITE,True,CORRECT,1.6731271999997261,1673.1271999997261
2,20260325_120617,D,J,False,MANUAL,2,198,498,fixed_delta,0.04010600706829564,0.013286393218712247,,,,,0.4600677623216734,1656,1944,0,,WHITE,,,0,,WHITE,True,CORRECT,0.8637412999996741,863.7412999996741
2,20260325_120617,D,J,False,MANUAL,2,199,499,fixed_delta,0.04010600706829564,0.013286393218712247,,,,,0.4638167864604799,1670,1930,0,,WHITE,,,0,,WHITE,True,CORRECT,0.7182833000006212,718.2833000006212
2,20260325_120617,D,J,False,MANUAL,2,200,500,fixed_delta,0.04010600706829564,0.013286393218712247,,,,,0.44703704387634846,1609,1991,0,,WHITE,,,0,,WHITE,True,CORRECT,0.8051028000008955,805.1028000008955
2,20260325_120617,D,J,False,MANUAL,2,201,501,fixed_delta,0.04010600706829564,0.013286393218712247,,,,,0.5430293602421062,1955,1645,0,,BLACK,,,0,,BLACK,True,CORRECT,0.8689985999990313,868.9985999990313
2,20260325_120617,D,J,False,MANUAL,2,202,502,fixed_delta,0.04010600706829564,0.013286393218712247,,,,,0.44759898003444193,1611,1989,0,,WHITE,,,0,,BLACK,False,INCORRECT,0.6554090999998152,655.4090999998152
2,20260325_120617,D,J,False,MANUAL,2,203,503,fixed_delta,0.04010600706829564,0.013286393218712247,,,,,0.5491834664044875,1977,1623,0,,BLACK,,,0,,WHITE,False,INCORRECT,2.199087099999815,2199.087099999815
2,20260325_120617,D,J,False,MANUAL,2,204,504,fixed_delta,0.04010600706829564,0.013286393218712247,,,,,0.5513040682898367,1985,1615,0,,BLACK,,,0,,BLACK,True,CORRECT,0.8995978999992076,899.5978999992076
2,20260325_120617,D,J,False,MANUAL,2,205,505,fixed_delta,0.04010600706829564,0.013286393218712247,,,,,0.5305858565835894,1910,1690,0,,BLACK,,,0,,BLACK,True,CORRECT,0.6584617000007711,658.4617000007711
2,20260325_120617,D,J,False,MANUAL,2,206,506,fixed_delta,0.04010600706829564,0.013286393218712247,,,,,0.5742903263425762,2067,1533,0,,BLACK,,,0,,BLACK,True,CORRECT,0.4958974000001035,495.8974000001035
2,20260325_120617,D,J,False,MANUAL,2,207,507,fixed_delta,0.04010600706829564,0.013286393218712247,,,,,0.4506587288049301,1622,1978,0,,WHITE,,,0,,WHITE,True,CORRECT,1.0452833999988798,1045.2833999988798
2,20260325_120617,D,J,False,MANUAL,2,208,508,fixed_delta,0.04010600706829564,0.013286393218712247,,,,,0.4425466790752349,1593,2007,0,,WHITE,,,0,,WHITE,True,CORRECT,0.9616345999984333,961.6345999984333
2,20260325_120617,D,J,False,MANUAL,2,209,509,fixed_delta,0.04010600706829564,0.013286393218712247,,,,,0.5603611563692731,2017,1583,0,,BLACK,,,0,,WHITE,False,INCORRECT,1.2709152000006725,1270.9152000006725
2,20260325_120617,D,J,False,MANUAL,2,210,510,fixed_delta,0.04010600706829564,0.013286393218712247,,,,,0.5549129747846009,1998,1602,0,,BLACK,,,0,,BLACK,True,CORRECT,0.5845079999999143,584.5079999999143
2,20260325_120617,D,J,False,MANUAL,2,211,511,fixed_delta,0.04010600706829564,0.013286393218712247,,,,,0.5528526863930464,1990,1610,0,,BLACK,,,0,,BLACK,True,CORRECT,0.9254738999989058,925.4738999989058
2,20260325_120617,D,J,False,MANUAL,2,212,512,fixed_delta,0.04010600706829564,0.013286393218712247,,,,,0.4523066153788547,1628,1972,0,,WHITE,,,0,,WHITE,True,CORRECT,0.4569283999990148,456.9283999990148
2,20260325_120617,D,J,False,MANUAL,2,213,513,fixed_delta,0.04010600706829564,0.013286393218712247,,,,,0.5505244319225333,1982,1618,0,,BLACK,,,0,,BLACK,True,CORRECT,0.5977754000014102,597.7754000014102
2,20260325_120617,D,J,False,MANUAL,2,214,514,fixed_delta,0.04010600706829564,0.013286393218712247,,,,,0.46648433575929954,1679,1921,0,,WHITE,,,0,,WHITE,True,CORRECT,0.8273047000002407,827.3047000002407
2,20260325_120617,D,J,False,MANUAL,2,215,515,fixed_delta,0.04010600706829564,0.013286393218712247,,,,,0.46496233573891477,1674,1926,0,,WHITE,,,0,,WHITE,True,CORRECT,0.6833791999997629,683.3791999997629
2,20260325_120617,D,J,False,MANUAL,2,216,516,fixed_delta,0.04010600706829564,0.013286393218712247,,,,,0.5351361639038605,1926,1674,0,,BLACK,,,0,,BLACK,True,CORRECT,0.6404337000003579,640.4337000003579
2,20260325_120617,D,J,False,MANUAL,2,217,517,fixed_delta,0.04010600706829564,0.013286393218712247,,,,,0.5274269043336427,1899,1701,0,,BLACK,,,0,,BLACK,True,CORRECT,0.6281099000007089,628.1099000007089
2,20260325_120617,D,J,False,MANUAL,2,218,518,fixed_delta,0.04010600706829564,0.013286393218712247,,,,,0.4547525919819648,1637,1963,0,,WHITE,,,0,,WHITE,True,CORRECT,0.7052296000001661,705.2296000001661
2,20260325_120617,D,J,False,MANUAL,2,219,519,fixed_delta,0.04010600706829564,0.013286393218712247,,,,,0.51472280938612,1853,1747,0,,BLACK,,,0,,BLACK,True,CORRECT,0.6164387999997416,616.4387999997416
2,20260325_120617,D,J,False,MANUAL,2,220,520,fixed_delta,0.04010600706829564,0.013286393218712247,,,,,0.4755991537525801,1712,1888,0,,WHITE,,,0,,WHITE,True,CORRECT,0.7049511999994138,704.9511999994138
2,20260325_120617,D,J,False,MANUAL,2,221,521,fixed_delta,0.04010600706829564,0.013286393218712247,,,,,0.4701507818067732,1693,1907,0,,WHITE,,,0,,WHITE,True,CORRECT,0.6701243999996223,670.1243999996223
2,20260325_120617,D,J,False,MANUAL,2,222,522,fixed_delta,0.04010600706829564,0.013286393218712247,,,,,0.4606635181657449,1658,1942,0,,WHITE,,,0,,WHITE,True,CORRECT,0.6278273000007175,627.8273000007175
2,20260325_120617,D,J,False,MANUAL,2,223,523,fixed_delta,0.04010600706829564,0.013286393218712247,,,,,0.4743831288842991,1708,1892,0,,WHITE,,,0,,WHITE,True,CORRECT,0.6951340999985405,695.1340999985405
2,20260325_120617,D,J,False,MANUAL,2,224,524,fixed_delta,0.04010600706829564,0.013286393218712247,,,,,0.46591522375412353,1677,1923,0,,WHITE,,,0,,BLACK,False,INCORRECT,0.8164438000003429,816.4438000003429
2,20260325_120617,D,J,False,MANUAL,2,225,525,fixed_delta,0.04010600706829564,0.013286393218712247,,,,,0.550772636210861,1983,1617,0,,BLACK,,,0,,BLACK,True,CORRECT,1.1625301000003674,1162.5301000003674
2,20260325_120617,D,J,False,MANUAL,2,226,526,fixed_delta,0.04010600706829564,0.013286393218712247,,,,,0.5034201344861947,1812,1788,0,,BLACK,,,0,,WHITE,False,INCORRECT,0.6882265000003827,688.2265000003827
2,20260325_120617,D,J,False,MANUAL,2,227,527,fixed_delta,0.04010600706829564,0.013286393218712247,,,,,0.4568686669590314,1645,1955,0,,WHITE,,,0,,WHITE,True,CORRECT,0.8998527999992803,899.8527999992803
2,20260325_120617,D,J,False,MANUAL,2,228,528,fixed_delta,0.04010600706829564,0.013286393218712247,,,,,0.5565819131471705,2004,1596,0,,BLACK,,,0,,BLACK,True,CORRECT,0.5320041000013589,532.0041000013589
2,20260325_120617,D,J,False,MANUAL,2,229,529,fixed_delta,0.04010600706829564,0.013286393218712247,,,,,0.5314385788694284,1913,1687,0,,BLACK,,,0,,BLACK,True,CORRECT,0.7882951999999932,788.2951999999932
2,20260325_120617,D,J,False,MANUAL,2,230,530,fixed_delta,0.04010600706829564,0.013286393218712247,,,,,0.539257411206001,1941,1659,0,,BLACK,,,0,,BLACK,True,CORRECT,0.5980550000003859,598.0550000003859
2,20260325_120617,D,J,False,MANUAL,2,231,531,fixed_delta,0.04010600706829564,0.013286393218712247,,,,,0.4303898088111282,1549,2051,0,,WHITE,,,0,,BLACK,False,INCORRECT,1.2956438000001071,1295.6438000001071
2,20260325_120617,D,J,False,MANUAL,2,232,532,fixed_delta,0.04010600706829564,0.013286393218712247,,,,,0.45411650836297784,1635,1965,0,,WHITE,,,0,,WHITE,True,CORRECT,0.6552848000010272,655.2848000010272
2,20260325_120617,D,J,False,MANUAL,2,233,533,fixed_delta,0.04010600706829564,0.013286393218712247,,,,,0.475014600558098,1710,1890,0,,WHITE,,,0,,WHITE,True,CORRECT,0.959408099999564,959.408099999564
2,20260325_120617,D,J,False,MANUAL,2,234,534,fixed_delta,0.04010600706829564,0.013286393218712247,,,,,0.5476666944232401,1972,1628,0,,BLACK,,,0,,BLACK,True,CORRECT,0.6442880999984482,644.2880999984482
2,20260325_120617,D,J,False,MANUAL,2,235,535,fixed_delta,0.04010600706829564,0.013286393218712247,,,,,0.46778864847917573,1684,1916,0,,WHITE,,,0,,BLACK,False,INCORRECT,0.62178429999949,621.78429999949
2,20260325_120617,D,J,False,MANUAL,2,236,536,fixed_delta,0.04010600706829564,0.013286393218712247,,,,,0.4454530653164136,1604,1996,0,,WHITE,,,0,,WHITE,True,CORRECT,0.7074263999984396,707.4263999984396
2,20260325_120617,D,J,False,MANUAL,2,237,537,fixed_delta,0.04010600706829564,0.013286393218712247,,,,,0.5513090207543418,1985,1615,0,,BLACK,,,0,,BLACK,True,CORRECT,1.0853573000003962,1085.3573000003962
2,20260325_120617,D,J,False,MANUAL,2,238,538,fixed_delta,0.04010600706829564,0.013286393218712247,,,,,0.4460330711977751,1606,1994,0,,WHITE,,,0,,WHITE,True,CORRECT,0.6293002000002161,629.3002000002161
2,20260325_120617,D,J,False,MANUAL,2,239,539,fixed_delta,0.04010600706829564,0.013286393218712247,,,,,0.5385943529872628,1939,1661,0,,BLACK,,,0,,WHITE,False,INCORRECT,1.4219653000000108,1421.9653000000108
2,20260325_120617,D,J,False,MANUAL,2,240,540,fixed_delta,0.04010600706829564,0.013286393218712247,,,,,0.47656808910424875,1716,1884,0,,WHITE,,,0,,BLACK,False,INCORRECT,2.3288310000007186,2328.8310000007186
2,20260325_120617,D,J,False,MANUAL,2,241,541,fixed_delta,0.04010600706829564,0.013286393218712247,,,,,0.468957010140679,1688,1912,0,,WHITE,,,0,,WHITE,True,CORRECT,0.6003560000008292,600.3560000008292
2,20260325_120617,D,J,False,MANUAL,2,242,542,fixed_delta,0.04010600706829564,0.013286393218712247,,,,,0.5355561218876418,1928,1672,0,,BLACK,,,0,,BLACK,True,CORRECT,0.6544838999998319,654.4838999998319
2,20260325_120617,D,J,False,MANUAL,2,243,543,fixed_delta,0.04010600706829564,0.013286393218712247,,,,,0.5556962730627812,2001,1599,0,,BLACK,,,0,,BLACK,True,CORRECT,1.4388365999984671,1438.8365999984671
2,20260325_120617,D,J,False,MANUAL,2,244,544,fixed_delta,0.04010600706829564,0.013286393218712247,,,,,0.4850061821394471,1746,1854,0,,WHITE,,,0,,BLACK,False,INCORRECT,3.7184742000008555,3718.4742000008555
2,20260325_120617,D,J,False,MANUAL,2,245,545,fixed_delta,0.04010600706829564,0.013286393218712247,,,,,0.5438971039426027,1958,1642,0,,BLACK,,,0,,WHITE,False,INCORRECT,0.947559000000183,947.559000000183
2,20260325_120617,D,J,False,MANUAL,2,246,546,fixed_delta,0.04010600706829564,0.013286393218712247,,,,,0.5140835999093263,1851,1749,0,,BLACK,,,0,,BLACK,True,CORRECT,4.034188300000096,4034.188300000096
2,20260325_120617,D,J,False,MANUAL,2,247,547,fixed_delta,0.04010600706829564,0.013286393218712247,,,,,0.46168235488648374,1662,1938,0,,WHITE,,,0,,WHITE,True,CORRECT,1.9280946000017138,1928.0946000017138
2,20260325_120617,D,J,False,MANUAL,2,248,548,fixed_delta,0.04010600706829564,0.013286393218712247,,,,,0.5384820953819995,1939,1661,0,,BLACK,,,0,,BLACK,True,CORRECT,0.9767586999987543,976.7586999987543
2,20260325_120617,D,J,False,MANUAL,2,249,549,fixed_delta,0.04010600706829564,0.013286393218712247,,,,,0.440604017065894,1586,2014,0,,WHITE,,,0,,WHITE,True,CORRECT,0.831960400000753,831.960400000753
2,20260325_120617,D,J,False,MANUAL,2,250,550,fixed_delta,0.04010600706829564,0.013286393218712247,,,,,0.450384900172065,1621,1979,0,,WHITE,,,0,,BLACK,False,INCORRECT,2.8839535000006435,2883.9535000006435
2,20260325_120617,D,J,False,MANUAL,2,251,551,fixed_delta,0.04010600706829564,0.013286393218712247,,,,,0.5332149877515655,1920,1680,0,,BLACK,,,0,,WHITE,False,INCORRECT,2.6801973000001453,2680.1973000001453
2,20260325_120617,D,J,False,MANUAL,2,252,552,fixed_delta,0.04010600706829564,0.013286393218712247,,,,,0.4928545380572824,1774,1826,0,,WHITE,,,0,,BLACK,False,INCORRECT,1.2317079999993439,1231.7079999993439
2,20260325_120617,D,J,False,MANUAL,2,253,553,fixed_delta,0.04010600706829564,0.013286393218712247,,,,,0.4528691130668358,1630,1970,0,,WHITE,,,0,,WHITE,True,CORRECT,0.7967148999996425,796.7148999996425
2,20260325_120617,D,J,False,MANUAL,2,254,554,fixed_delta,0.04010600706829564,0.013286393218712247,,,,,0.558468467586026,2010,1590,0,,BLACK,,,0,,BLACK,True,CORRECT,0.7487148999989586,748.7148999989586
2,20260325_120617,D,J,False,MANUAL,2,255,555,fixed_delta,0.04010600706829564,0.013286393218712247,,,,,0.5163219351879264,1859,1741,0,,BLACK,,,0,,WHITE,False,INCORRECT,0.8363881999994192,836.3881999994192
2,20260325_120617,D,J,False,MANUAL,2,256,556,fixed_delta,0.04010600706829564,0.013286393218712247,,,,,0.44391424292870507,1598,2002,0,,WHITE,,,0,,WHITE,True,CORRECT,0.6564617999993061,656.4617999993061
2,20260325_120617,D,J,False,MANUAL,2,257,557,fixed_delta,0.04010600706829564,0.013286393218712247,,,,,0.46282267562290624,1666,1934,0,,WHITE,,,0,,WHITE,True,CORRECT,0.6911156999995001,691.1156999995001
2,20260325_120617,D,J,False,MANUAL,2,258,558,fixed_delta,0.04010600706829564,0.013286393218712247,,,,,0.5330495602922412,1919,1681,0,,BLACK,,,0,,BLACK,True,CORRECT,0.6433123999995587,643.3123999995587
2,20260325_120617,D,J,False,MANUAL,2,259,559,fixed_delta,0.04010600706829564,0.013286393218712247,,,,,0.4720226744199768,1699,1901,0,,WHITE,,,0,,WHITE,True,CORRECT,0.6282408999995823,628.2408999995823
2,20260325_120617,D,J,False,MANUAL,2,260,560,fixed_delta,0.04010600706829564,0.013286393218712247,,,,,0.5208331585161362,1875,1725,0,,BLACK,,,0,,BLACK,True,CORRECT,1.2877833000002283,1287.7833000002283
2,20260325_120617,D,J,False,MANUAL,2,261,561,fixed_delta,0.04010600706829564,0.013286393218712247,,,,,0.5487418932091866,1975,1625,0,,BLACK,,,0,,BLACK,True,CORRECT,0.566893600000185,566.893600000185
2,20260325_120617,D,J,False,MANUAL,2,262,562,fixed_delta,0.04010600706829564,0.013286393218712247,,,,,0.46701932290674497,1681,1919,0,,WHITE,,,0,,WHITE,True,CORRECT,0.6766993000001094,676.6993000001094
2,20260325_120617,D,J,False,MANUAL,2,263,563,fixed_delta,0.04010600706829564,0.013286393218712247,,,,,0.4702574866162895,1693,1907,0,,WHITE,,,0,,WHITE,True,CORRECT,0.6220582999994804,622.0582999994804
2,20260325_120617,D,J,False,MANUAL,2,264,564,fixed_delta,0.04010600706829564,0.013286393218712247,,,,,0.5528199079260494,1990,1610,0,,BLACK,,,0,,BLACK,True,CORRECT,0.551859199998944,551.859199998944
2,20260325_120617,D,J,False,MANUAL,2,265,565,fixed_delta,0.04010600706829564,0.013286393218712247,,,,,0.4775687598010887,1719,1881,0,,WHITE,,,0,,WHITE,True,CORRECT,0.6073325999986992,607.3325999986992
2,20260325_120617,D,J,False,MANUAL,2,266,566,fixed_delta,0.04010600706829564,0.013286393218712247,,,,,0.44234966959008015,1592,2008,0,,WHITE,,,0,,WHITE,True,CORRECT,0.6575726000010036,657.5726000010036
2,20260325_120617,D,J,False,MANUAL,2,267,567,fixed_delta,0.04010600706829564,0.013286393218712247,,,,,0.4591382243325056,1653,1947,0,,WHITE,,,0,,BLACK,False,INCORRECT,0.4969314000009035,496.9314000009035
2,20260325_120617,D,J,False,MANUAL,2,268,568,fixed_delta,0.04010600706829564,0.013286393218712247,,,,,0.45010715065847196,1620,1980,0,,WHITE,,,0,,WHITE,True,CORRECT,0.9094323999997869,909.4323999997869
2,20260325_120617,D,J,False,MANUAL,2,269,569,fixed_delta,0.04010600706829564,0.013286393218712247,,,,,0.46530087101001694,1675,1925,0,,WHITE,,,0,,WHITE,True,CORRECT,0.6793500000003405,679.3500000003405
2,20260325_120617,D,J,False,MANUAL,2,270,570,fixed_delta,0.04010600706829564,0.013286393218712247,,,,,0.5328073961928599,1918,1682,0,,BLACK,,,0,,BLACK,True,CORRECT,0.8304755000008299,830.4755000008299
2,20260325_120617,D,J,False,MANUAL,2,271,571,fixed_delta,0.04010600706829564,0.013286393218712247,,,,,0.47301301294248865,1703,1897,0,,WHITE,,,0,,WHITE,True,CORRECT,0.6522362000014255,652.2362000014255
2,20260325_120617,D,J,False,MANUAL,2,272,572,fixed_delta,0.04010600706829564,0.013286393218712247,,,,,0.5311294691529539,1912,1688,0,,BLACK,,,0,,WHITE,False,INCORRECT,0.8442616000011185,844.2616000011185
2,20260325_120617,D,J,False,MANUAL,2,273,573,fixed_delta,0.04010600706829564,0.013286393218712247,,,,,0.5117594754252238,1842,1758,0,,BLACK,,,0,,BLACK,True,CORRECT,1.262801799999579,1262.801799999579
2,20260325_120617,D,J,False,MANUAL,2,274,574,fixed_delta,0.04010600706829564,0.013286393218712247,,,,,0.4571018381776126,1646,1954,0,,WHITE,,,0,,WHITE,True,CORRECT,2.351560300001438,2351.560300001438
2,20260325_120617,D,J,False,MANUAL,2,275,575,fixed_delta,0.04010600706829564,0.013286393218712247,,,,,0.5465456537308571,1968,1632,0,,BLACK,,,0,,BLACK,True,CORRECT,1.3326725999995688,1332.6725999995688
2,20260325_120617,D,J,False,MANUAL,2,276,576,fixed_delta,0.04010600706829564,0.013286393218712247,,,,,0.5455170275232557,1964,1636,0,,BLACK,,,0,,BLACK,True,CORRECT,0.741168700000344,741.168700000344
2,20260325_120617,D,J,False,MANUAL,2,277,577,fixed_delta,0.04010600706829564,0.013286393218712247,,,,,0.477376554158387,1719,1881,0,,WHITE,,,0,,WHITE,True,CORRECT,0.8326268000000709,832.626800000071
2,20260325_120617,D,J,False,MANUAL,2,278,578,fixed_delta,0.04010600706829564,0.013286393218712247,,,,,0.4582247890194616,1650,1950,0,,WHITE,,,0,,WHITE,True,CORRECT,3.3733700000011595,3373.3700000011595
2,20260325_120617,D,J,False,MANUAL,2,279,579,fixed_delta,0.04010600706829564,0.013286393218712247,,,,,0.5356752596038244,1928,1672,0,,BLACK,,,0,,WHITE,False,INCORRECT,1.70322970000052,1703.22970000052
2,20260325_120617,D,J,False,MANUAL,2,280,580,fixed_delta,0.04010600706829564,0.013286393218712247,,,,,0.46494001846128324,1674,1926,0,,WHITE,,,0,,WHITE,True,CORRECT,2.888326700000107,2888.326700000107
2,20260325_120617,D,J,False,MANUAL,2,281,581,fixed_delta,0.04010600706829564,0.013286393218712247,,,,,0.562160862016489,2024,1576,0,,BLACK,,,0,,BLACK,True,CORRECT,0.6347081000003527,634.7081000003527
2,20260325_120617,D,J,False,MANUAL,2,282,582,fixed_delta,0.04010600706829564,0.013286393218712247,,,,,0.46744414028746833,1683,1917,0,,WHITE,,,0,,WHITE,True,CORRECT,1.053313899999921,1053.313899999921
2,20260325_120617,D,J,False,MANUAL,2,283,583,fixed_delta,0.04010600706829564,0.013286393218712247,,,,,0.45479135163727247,1637,1963,0,,WHITE,,,0,,BLACK,False,INCORRECT,1.4845550999998522,1484.5550999998522
2,20260325_120617,D,J,False,MANUAL,2,284,584,fixed_delta,0.04010600706829564,0.013286393218712247,,,,,0.5285274551485604,1903,1697,0,,BLACK,,,0,,BLACK,True,CORRECT,0.569082599999092,569.082599999092
2,20260325_120617,D,J,False,MANUAL,2,285,585,fixed_delta,0.04010600706829564,0.013286393218712247,,,,,0.5390698253459283,1941,1659,0,,BLACK,,,0,,WHITE,False,INCORRECT,0.608065099999294,608.065099999294
2,20260325_120617,D,J,False,MANUAL,2,286,586,fixed_delta,0.04010600706829564,0.013286393218712247,,,,,0.45941308709394596,1654,1946,0,,WHITE,,,0,,WHITE,True,CORRECT,1.1372931999994762,1137.2931999994762
2,20260325_120617,D,J,False,MANUAL,2,287,587,fixed_delta,0.04010600706829564,0.013286393218712247,,,,,0.4517466946137841,1626,1974,0,,WHITE,,,0,,WHITE,True,CORRECT,0.6673384000005171,667.3384000005171
2,20260325_120617,D,J,False,MANUAL,2,288,588,fixed_delta,0.04010600706829564,0.013286393218712247,,,,,0.49619955906607216,1786,1814,0,,WHITE,,,0,,BLACK,False,INCORRECT,0.693218500000512,693.218500000512
2,20260325_120617,D,J,False,MANUAL,2,289,589,fixed_delta,0.04010600706829564,0.013286393218712247,,,,,0.4764951301171915,1715,1885,0,,WHITE,,,0,,WHITE,True,CORRECT,1.2705327999992733,1270.5327999992733
2,20260325_120617,D,J,False,MANUAL,2,290,590,fixed_delta,0.04010600706829564,0.013286393218712247,,,,,0.4416947136013424,1590,2010,0,,WHITE,,,0,,WHITE,True,CORRECT,0.6275239000005968,627.5239000005968
2,20260325_120617,D,J,False,MANUAL,2,291,591,fixed_delta,0.04010600706829564,0.013286393218712247,,,,,0.47737733601871934,1719,1881,0,,WHITE,,,0,,WHITE,True,CORRECT,0.5825160000003962,582.5160000003962
2,20260325_120617,D,J,False,MANUAL,2,292,592,fixed_delta,0.04010600706829564,0.013286393218712247,,,,,0.4683585992713001,1686,1914,0,,WHITE,,,0,,WHITE,True,CORRECT,1.3214850000003935,1321.4850000003935
2,20260325_120617,D,J,False,MANUAL,2,293,593,fixed_delta,0.04010600706829564,0.013286393218712247,,,,,0.5385792061704078,1939,1661,0,,BLACK,,,0,,BLACK,True,CORRECT,0.6973691000002873,697.3691000002873
2,20260325_120617,D,J,False,MANUAL,2,294,594,fixed_delta,0.04010600706829564,0.013286393218712247,,,,,0.47444626017231806,1708,1892,0,,WHITE,,,0,,WHITE,True,CORRECT,2.6604948000003787,2660.4948000003787
2,20260325_120617,D,J,False,MANUAL,2,295,595,fixed_delta,0.04010600706829564,0.013286393218712247,,,,,0.4574475068037961,1647,1953,0,,WHITE,,,0,,WHITE,True,CORRECT,0.6110960999994859,611.0960999994859
2,20260325_120617,D,J,False,MANUAL,2,296,596,fixed_delta,0.04010600706829564,0.013286393218712247,,,,,0.5296464345699587,1907,1693,0,,BLACK,,,0,,BLACK,True,CORRECT,0.5463386999999784,546.3386999999784
2,20260325_120617,D,J,False,MANUAL,2,297,597,fixed_delta,0.04010600706829564,0.013286393218712247,,,,,0.5219772679968779,1879,1721,0,,BLACK,,,0,,WHITE,False,INCORRECT,1.0324386000011145,1032.4386000011145
2,20260325_120617,D,J,False,MANUAL,2,298,598,fixed_delta,0.04010600706829564,0.013286393218712247,,,,,0.45640178271378407,1643,1957,0,,WHITE,,,0,,WHITE,True,CORRECT,0.9607381999994686,960.7381999994686
2,20260325_120617,D,J,False,MANUAL,2,299,599,fixed_delta,0.04010600706829564,0.013286393218712247,,,,,0.44849147202433814,1615,1985,0,,WHITE,,,0,,WHITE,True,CORRECT,1.8628047999991395,1862.8047999991395
2,20260325_120617,D,J,False,MANUAL,2,300,600,fixed_delta,0.04010600706829564,0.013286393218712247,,,,,0.44237877711019097,1593,2007,0,,WHITE,,,0,,WHITE,True,CORRECT,1.1089624999985972,1108.9624999985972
2,20260325_120617,D,J,False,MANUAL,2,301,601,fixed_delta,0.04010600706829564,0.013286393218712247,,,,,0.5433637825835395,1956,1644,0,,BLACK,,,0,,BLACK,True,CORRECT,0.5402720000001864,540.2720000001864
2,20260325_120617,D,J,False,MANUAL,2,302,602,fixed_delta,0.04010600706829564,0.013286393218712247,,,,,0.447753837512628,1612,1988,0,,WHITE,,,0,,WHITE,True,CORRECT,1.625386300000173,1625.386300000173
2,20260325_120617,D,J,False,MANUAL,2,303,603,fixed_delta,0.04010600706829564,0.013286393218712247,,,,,0.47626447755082885,1715,1885,0,,WHITE,,,0,,BLACK,False,INCORRECT,0.8723238999991736,872.3238999991736
2,20260325_120617,D,J,False,MANUAL,2,304,604,fixed_delta,0.04010600706829564,0.013286393218712247,,,,,0.5457444820282358,1965,1635,0,,BLACK,,,0,,WHITE,False,INCORRECT,1.0915284999991854,1091.5284999991854
2,20260325_120617,D,J,False,MANUAL,2,305,605,fixed_delta,0.04010600706829564,0.013286393218712247,,,,,0.5605598245127752,2018,1582,0,,BLACK,,,0,,BLACK,True,CORRECT,0.6227708000005805,622.7708000005805
2,20260325_120617,D,J,False,MANUAL,2,306,606,fixed_delta,0.04010600706829564,0.013286393218712247,,,,,0.5409222779403937,1947,1653,0,,BLACK,,,0,,BLACK,True,CORRECT,1.5528515000005427,1552.8515000005427
2,20260325_120617,D,J,False,MANUAL,2,307,607,fixed_delta,0.04010600706829564,0.013286393218712247,,,,,0.4590386901421899,1653,1947,0,,WHITE,,,0,,WHITE,True,CORRECT,2.0487304999987828,2048.7304999987828
2,20260325_120617,D,J,False,MANUAL,2,308,608,fixed_delta,0.04010600706829564,0.013286393218712247,,,,,0.5197805221847154,1871,1729,0,,BLACK,,,0,,BLACK,True,CORRECT,0.6537839000011445,653.7839000011445
2,20260325_120617,D,J,False,MANUAL,2,309,609,fixed_delta,0.04010600706829564,0.013286393218712247,,,,,0.5530733059433598,1991,1609,0,,BLACK,,,0,,BLACK,True,CORRECT,0.5436301000008825,543.6301000008825
2,20260325_120617,D,J,False,MANUAL,2,310,610,fixed_delta,0.04010600706829564,0.013286393218712247,,,,,0.45333915332868846,1632,1968,0,,WHITE,,,0,,WHITE,True,CORRECT,0.6852937000003294,685.2937000003294
2,20260325_120617,D,J,False,MANUAL,2,311,611,fixed_delta,0.04010600706829564,0.013286393218712247,,,,,0.5341855503284169,1923,1677,0,,BLACK,,,0,,BLACK,True,CORRECT,0.5286802999999054,528.6802999999054
2,20260325_120617,D,J,False,MANUAL,2,312,612,fixed_delta,0.04010600706829564,0.013286393218712247,,,,,0.4305694210150086,1550,2050,0,,WHITE,,,0,,WHITE,True,CORRECT,0.4544829000005848,454.4829000005848
2,20260325_120617,D,J,False,MANUAL,2,313,613,fixed_delta,0.04010600706829564,0.013286393218712247,,,,,0.45278593222976415,1630,1970,0,,WHITE,,,0,,WHITE,True,CORRECT,0.6324554000002536,632.4554000002536
2,20260325_120617,D,J,False,MANUAL,2,314,614,fixed_delta,0.04010600706829564,0.013286393218712247,,,,,0.5624430326472317,2025,1575,0,,BLACK,,,0,,BLACK,True,CORRECT,0.526580700001432,526.580700001432
2,20260325_120617,D,J,False,MANUAL,2,315,615,fixed_delta,0.04010600706829564,0.013286393218712247,,,,,0.45170987532254087,1626,1974,0,,WHITE,,,0,,WHITE,True,CORRECT,0.5699552000005497,569.9552000005497
2,20260325_120617,D,J,False,MANUAL,2,316,616,fixed_delta,0.04010600706829564,0.013286393218712247,,,,,0.5140291588776259,1851,1749,0,,BLACK,,,0,,BLACK,True,CORRECT,1.3831725000000006,1383.1725000000006
2,20260325_120617,D,J,False,MANUAL,2,317,617,fixed_delta,0.04010600706829564,0.013286393218712247,,,,,0.5648389753572524,2033,1567,0,,BLACK,,,0,,BLACK,True,CORRECT,0.7163968000004388,716.3968000004388
2,20260325_120617,D,J,False,MANUAL,2,318,618,fixed_delta,0.04010600706829564,0.013286393218712247,,,,,0.5428208272097459,1954,1646,0,,BLACK,,,0,,WHITE,False,INCORRECT,0.8777616999996098,877.7616999996098
2,20260325_120617,D,J,False,MANUAL,2,319,619,fixed_delta,0.04010600706829564,0.013286393218712247,,,,,0.5485954127496989,1975,1625,0,,BLACK,,,0,,BLACK,True,CORRECT,0.6812715999985812,681.2715999985812
2,20260325_120617,D,J,False,MANUAL,2,320,620,fixed_delta,0.04010600706829564,0.013286393218712247,,,,,0.5360349047739792,1930,1670,0,,BLACK,,,0,,WHITE,False,INCORRECT,0.902234999999564,902.234999999564
2,20260325_120617,D,J,False,MANUAL,2,321,621,fixed_delta,0.04010600706829564,0.013286393218712247,,,,,0.5391545629470601,1941,1659,0,,BLACK,,,0,,WHITE,False,INCORRECT,0.7569722999996884,756.9722999996884
2,20260325_120617,D,J,False,MANUAL,2,322,622,fixed_delta,0.04010600706829564,0.013286393218712247,,,,,0.4625167747045784,1665,1935,0,,WHITE,,,0,,WHITE,True,CORRECT,2.5533353999999235,2553.3353999999235
2,20260325_120617,D,J,False,MANUAL,2,323,623,fixed_delta,0.04010600706829564,0.013286393218712247,,,,,0.4449916920179698,1602,1998,0,,WHITE,,,0,,BLACK,False,INCORRECT,0.8099121000013838,809.9121000013838
2,20260325_120617,D,J,False,MANUAL,2,324,624,fixed_delta,0.04010600706829564,0.013286393218712247,,,,,0.4446560094847219,1601,1999,0,,WHITE,,,0,,WHITE,True,CORRECT,1.4282695000001695,1428.2695000001695
2,20260325_120617,D,J,False,MANUAL,2,325,625,fixed_delta,0.04010600706829564,0.013286393218712247,,,,,0.46565179378423743,1676,1924,0,,WHITE,,,0,,WHITE,True,CORRECT,1.0544577000000572,1054.4577000000572
2,20260325_120617,D,J,False,MANUAL,2,326,626,fixed_delta,0.04010600706829564,0.013286393218712247,,,,,0.4640573274365332,1671,1929,0,,WHITE,,,0,,WHITE,True,CORRECT,0.9483609000017168,948.3609000017168
2,20260325_120617,D,J,False,MANUAL,2,327,627,fixed_delta,0.04010600706829564,0.013286393218712247,,,,,0.5508196235563683,1983,1617,0,,BLACK,,,0,,BLACK,True,CORRECT,0.5317456000011589,531.7456000011589
2,20260325_120617,D,J,False,MANUAL,2,328,628,fixed_delta,0.04010600706829564,0.013286393218712247,,,,,0.4577676203984539,1648,1952,0,,WHITE,,,0,,WHITE,True,CORRECT,0.628323900000396,628.323900000396
2,20260325_120617,D,J,False,MANUAL,2,329,629,fixed_delta,0.04010600706829564,0.013286393218712247,,,,,0.4730419313274197,1703,1897,0,,WHITE,,,0,,WHITE,True,CORRECT,0.7424831999996968,742.4831999996968
2,20260325_120617,D,J,False,MANUAL,2,330,630,fixed_delta,0.04010600706829564,0.013286393218712247,,,,,0.4581273418456108,1649,1951,0,,WHITE,,,0,,WHITE,True,CORRECT,0.9764675999995234,976.4675999995234
2,20260325_120617,D,J,False,MANUAL,2,331,631,fixed_delta,0.04010600706829564,0.013286393218712247,,,,,0.44536816365416276,1603,1997,0,,WHITE,,,0,,WHITE,True,CORRECT,0.5255591999994067,525.5591999994067
2,20260325_120617,D,J,False,MANUAL,2,332,632,fixed_delta,0.04010600706829564,0.013286393218712247,,,,,0.44406977385787616,1599,2001,0,,WHITE,,,0,,BLACK,False,INCORRECT,0.7675842999997258,767.5842999997258
2,20260325_120617,D,J,False,MANUAL,2,333,633,fixed_delta,0.04010600706829564,0.013286393218712247,,,,,0.45055831101112853,1622,1978,0,,WHITE,,,0,,WHITE,True,CORRECT,0.9882056999995257,988.2056999995257
2,20260325_120617,D,J,False,MANUAL,2,334,634,fixed_delta,0.04010600706829564,0.013286393218712247,,,,,0.5319455998898602,1915,1685,0,,BLACK,,,0,,BLACK,True,CORRECT,0.8334694999994099,833.4694999994099
2,20260325_120617,D,J,False,MANUAL,2,335,635,fixed_delta,0.04010600706829564,0.013286393218712247,,,,,0.5362796946741245,1931,1669,0,,BLACK,,,0,,BLACK,True,CORRECT,0.5225372000004427,522.5372000004427
2,20260325_120617,D,J,False,MANUAL,2,336,636,fixed_delta,0.04010600706829564,0.013286393218712247,,,,,0.5410130275831228,1948,1652,0,,BLACK,,,0,,BLACK,True,CORRECT,0.48456009999972594,484.56009999972594
2,20260325_120617,D,J,False,MANUAL,2,337,637,fixed_delta,0.04010600706829564,0.013286393218712247,,,,,0.5327990876089624,1918,1682,0,,BLACK,,,0,,BLACK,True,CORRECT,0.6008975999993709,600.8975999993709
2,20260325_120617,D,J,False,MANUAL,2,338,638,fixed_delta,0.04010600706829564,0.013286393218712247,,,,,0.543037644611425,1955,1645,0,,BLACK,,,0,,BLACK,True,CORRECT,0.6012099999989005,601.2099999989005
2,20260325_120617,D,J,False,MANUAL,2,339,639,fixed_delta,0.04010600706829564,0.013286393218712247,,,,,0.4793936838011044,1726,1874,0,,WHITE,,,0,,BLACK,False,INCORRECT,0.6550053999999363,655.0053999999363
2,20260325_120617,D,J,False,MANUAL,2,340,640,fixed_delta,0.04010600706829564,0.013286393218712247,,,,,0.533373441227368,1920,1680,0,,BLACK,,,0,,BLACK,True,CORRECT,0.6859922999992705,685.9922999992705
2,20260325_120617,D,J,False,MANUAL,2,341,641,fixed_delta,0.04010600706829564,0.013286393218712247,,,,,0.4603437224713792,1657,1943,0,,WHITE,,,0,,WHITE,True,CORRECT,0.7693608999998105,769.3608999998105
2,20260325_120617,D,J,False,MANUAL,2,342,642,fixed_delta,0.04010600706829564,0.013286393218712247,,,,,0.44769554070140793,1612,1988,0,,WHITE,,,0,,WHITE,True,CORRECT,0.717776600000434,717.776600000434
2,20260325_120617,D,J,False,MANUAL,2,343,643,fixed_delta,0.04010600706829564,0.013286393218712247,,,,,0.45913385750105584,1653,1947,0,,WHITE,,,0,,WHITE,True,CORRECT,0.5265837999995711,526.583799999571
2,20260325_120617,D,J,False,MANUAL,2,344,644,fixed_delta,0.04010600706829564,0.013286393218712247,,,,,0.47992258717925407,1728,1872,0,,WHITE,,,0,,BLACK,False,INCORRECT,0.5289869000007457,528.9869000007457
2,20260325_120617,D,J,False,MANUAL,2,345,645,fixed_delta,0.04010600706829564,0.013286393218712247,,,,,0.44400769553378794,1598,2002,0,,WHITE,,,0,,WHITE,True,CORRECT,0.5825960000001942,582.5960000001942
2,20260325_120617,D,J,False,MANUAL,2,346,646,fixed_delta,0.04010600706829564,0.013286393218712247,,,,,0.45059208537812334,1622,1978,0,,WHITE,,,0,,WHITE,True,CORRECT,0.5661661000012828,566.1661000012828
2,20260325_120617,D,J,False,MANUAL,2,347,647,fixed_delta,0.04010600706829564,0.013286393218712247,,,,,0.5821368696671392,2096,1504,0,,BLACK,,,0,,BLACK,True,CORRECT,0.5979471999999078,597.9471999999078
2,20260325_120617,D,J,False,MANUAL,2,348,648,fixed_delta,0.04010600706829564,0.013286393218712247,,,,,0.4501902221013486,1621,1979,0,,WHITE,,,0,,WHITE,True,CORRECT,2.5011440999987826,2501.1440999987826
2,20260325_120617,D,J,False,MANUAL,2,349,649,fixed_delta,0.04010600706829564,0.013286393218712247,,,,,0.49418766660709246,1779,1821,0,,WHITE,,,0,,WHITE,True,CORRECT,1.470041599999604,1470.041599999604
2,20260325_120617,D,J,False,MANUAL,2,350,650,fixed_delta,0.04010600706829564,0.013286393218712247,,,,,0.5502854577247497,1981,1619,0,,BLACK,,,0,,BLACK,True,CORRECT,0.5155030000005354,515.5030000005354
2,20260325_120617,D,J,False,MANUAL,2,351,651,fixed_delta,0.04010600706829564,0.013286393218712247,,,,,0.5405203409106635,1946,1654,0,,BLACK,,,0,,WHITE,False,INCORRECT,2.3319903000010527,2331.9903000010527
2,20260325_120617,D,J,False,MANUAL,2,352,652,fixed_delta,0.04010600706829564,0.013286393218712247,,,,,0.4636569940039521,1669,1931,0,,WHITE,,,0,,WHITE,True,CORRECT,2.1329086999994615,2132.9086999994615
2,20260325_120617,D,J,False,MANUAL,2,353,653,fixed_delta,0.04010600706829564,0.013286393218712247,,,,,0.5390021964723528,1940,1660,0,,BLACK,,,0,,BLACK,True,CORRECT,0.6694232000008924,669.4232000008924
2,20260325_120617,D,J,False,MANUAL,2,354,654,fixed_delta,0.04010600706829564,0.013286393218712247,,,,,0.45520859635389405,1639,1961,0,,WHITE,,,0,,WHITE,True,CORRECT,0.6008135000010952,600.8135000010952
2,20260325_120617,D,J,False,MANUAL,2,355,655,fixed_delta,0.04010600706829564,0.013286393218712247,,,,,0.5107392858084645,1839,1761,0,,BLACK,,,0,,BLACK,True,CORRECT,1.1196273000005021,1119.6273000005021
2,20260325_120617,D,J,False,MANUAL,2,356,656,fixed_delta,0.04010600706829564,0.013286393218712247,,,,,0.5451166246923547,1962,1638,0,,BLACK,,,0,,BLACK,True,CORRECT,2.4720852000009472,2472.085200000947
2,20260325_120617,D,J,False,MANUAL,2,357,657,fixed_delta,0.04010600706829564,0.013286393218712247,,,,,0.5380559516215098,1937,1663,0,,BLACK,,,0,,BLACK,True,CORRECT,4.074193599999489,4074.1935999994894
2,20260325_120617,D,J,False,MANUAL,2,358,658,fixed_delta,0.04010600706829564,0.013286393218712247,,,,,0.46235560574412826,1664,1936,0,,WHITE,,,0,,WHITE,True,CORRECT,0.7685297999996692,768.5297999996692
2,20260325_120617,D,J,False,MANUAL,2,359,659,fixed_delta,0.04010600706829564,0.013286393218712247,,,,,0.46233194548787115,1664,1936,0,,WHITE,,,0,,WHITE,True,CORRECT,0.7743116999990889,774.3116999990889
2,20260325_120617,D,J,False,MANUAL,2,360,660,fixed_delta,0.04010600706829564,0.013286393218712247,,,,,0.4608998185594788,1659,1941,0,,WHITE,,,0,,WHITE,True,CORRECT,0.6474004000010609,647.4004000010609
2,20260325_120617,D,J,False,MANUAL,2,361,661,fixed_delta,0.04010600706829564,0.013286393218712247,,,,,0.5457172498050953,1965,1635,0,,BLACK,,,0,,WHITE,False,INCORRECT,2.2734479999999166,2273.4479999999166
2,20260325_120617,D,J,False,MANUAL,2,362,662,fixed_delta,0.04010600706829564,0.013286393218712247,,,,,0.5488229979729036,1976,1624,0,,BLACK,,,0,,BLACK,True,CORRECT,0.8084572999996453,808.4572999996453
2,20260325_120617,D,J,False,MANUAL,2,363,663,fixed_delta,0.04010600706829564,0.013286393218712247,,,,,0.5546289224376467,1997,1603,0,,BLACK,,,0,,BLACK,True,CORRECT,0.48262070000055246,482.62070000055246
2,20260325_120617,D,J,False,MANUAL,2,364,664,fixed_delta,0.04010600706829564,0.013286393218712247,,,,,0.4628980815069961,1666,1934,0,,WHITE,,,0,,BLACK,False,INCORRECT,0.8490679999995336,849.0679999995336
2,20260325_120617,D,J,False,MANUAL,2,365,665,fixed_delta,0.04010600706829564,0.013286393218712247,,,,,0.5427804477595689,1954,1646,0,,BLACK,,,0,,BLACK,True,CORRECT,0.8772693000009895,877.2693000009895
2,20260325_120617,D,J,False,MANUAL,2,366,666,fixed_delta,0.04010600706829564,0.013286393218712247,,,,,0.5380013001455639,1937,1663,0,,BLACK,,,0,,WHITE,False,INCORRECT,1.1639486999993096,1163.9486999993096
2,20260325_120617,D,J,False,MANUAL,2,367,667,fixed_delta,0.04010600706829564,0.013286393218712247,,,,,0.44843401374750813,1614,1986,0,,WHITE,,,0,,WHITE,True,CORRECT,0.6703864000010071,670.3864000010071
2,20260325_120617,D,J,False,MANUAL,2,368,668,fixed_delta,0.04010600706829564,0.013286393218712247,,,,,0.4575075082143657,1647,1953,0,,WHITE,,,0,,BLACK,False,INCORRECT,0.8056407999993098,805.6407999993098
2,20260325_120617,D,J,False,MANUAL,2,369,669,fixed_delta,0.04010600706829564,0.013286393218712247,,,,,0.4544412323390535,1636,1964,0,,WHITE,,,0,,WHITE,True,CORRECT,4.030757399999857,4030.7573999998567
2,20260325_120617,D,J,False,MANUAL,2,370,670,fixed_delta,0.04010600706829564,0.013286393218712247,,,,,0.5292497205025696,1905,1695,0,,BLACK,,,0,,WHITE,False,INCORRECT,2.403162099999463,2403.162099999463
2,20260325_120617,D,J,False,MANUAL,2,371,671,fixed_delta,0.04010600706829564,0.013286393218712247,,,,,0.44855617883479065,1615,1985,0,,WHITE,,,0,,WHITE,True,CORRECT,1.7409107000003132,1740.9107000003132
2,20260325_120617,D,J,False,MANUAL,2,372,672,fixed_delta,0.04010600706829564,0.013286393218712247,,,,,0.42505703130281836,1530,2070,0,,WHITE,,,0,,WHITE,True,CORRECT,0.5607185999997455,560.7185999997455
2,20260325_120617,D,J,False,MANUAL,2,373,673,fixed_delta,0.04010600706829564,0.013286393218712247,,,,,0.5321155077976973,1916,1684,0,,BLACK,,,0,,BLACK,True,CORRECT,0.6980523000001995,698.0523000001995
2,20260325_120617,D,J,False,MANUAL,2,374,674,fixed_delta,0.04010600706829564,0.013286393218712247,,,,,0.44930706234118334,1618,1982,0,,WHITE,,,0,,WHITE,True,CORRECT,0.7278719999994792,727.8719999994792
2,20260325_120617,D,J,False,MANUAL,2,375,675,fixed_delta,0.04010600706829564,0.013286393218712247,,,,,0.539561189479052,1942,1658,0,,BLACK,,,0,,BLACK,True,CORRECT,0.7002935000000434,700.2935000000434
2,20260325_120617,D,J,False,MANUAL,2,376,676,fixed_delta,0.04010600706829564,0.013286393218712247,,,,,0.44938667552485134,1618,1982,0,,WHITE,,,0,,WHITE,True,CORRECT,0.5565798000006907,556.5798000006907
2,20260325_120617,D,J,False,MANUAL,2,377,677,fixed_delta,0.04010600706829564,0.013286393218712247,,,,,0.4227045143266241,1522,2078,0,,WHITE,,,0,,WHITE,True,CORRECT,0.43800150000060967,438.00150000060967
2,20260325_120617,D,J,False,MANUAL,2,378,678,fixed_delta,0.04010600706829564,0.013286393218712247,,,,,0.5457970545215807,1965,1635,0,,BLACK,,,0,,BLACK,True,CORRECT,0.5144173000007868,514.4173000007868
2,20260325_120617,D,J,False,MANUAL,2,379,679,fixed_delta,0.04010600706829564,0.013286393218712247,,,,,0.46686318202999966,1681,1919,0,,WHITE,,,0,,WHITE,True,CORRECT,0.5132764999998471,513.2764999998471
2,20260325_120617,D,J,False,MANUAL,2,380,680,fixed_delta,0.04010600706829564,0.013286393218712247,,,,,0.5117124018807101,1842,1758,0,,BLACK,,,0,,BLACK,True,CORRECT,0.6210074999999051,621.0074999999051
2,20260325_120617,D,J,False,MANUAL,2,381,681,fixed_delta,0.04010600706829564,0.013286393218712247,,,,,0.4791780463917183,1725,1875,0,,WHITE,,,0,,WHITE,True,CORRECT,0.5777320000015607,577.7320000015607
2,20260325_120617,D,J,False,MANUAL,2,382,682,fixed_delta,0.04010600706829564,0.013286393218712247,,,,,0.5335584263385942,1921,1679,0,,BLACK,,,0,,BLACK,True,CORRECT,0.43887009999889415,438.87009999889415
2,20260325_120617,D,J,False,MANUAL,2,383,683,fixed_delta,0.04010600706829564,0.013286393218712247,,,,,0.4674395491603669,1683,1917,0,,WHITE,,,0,,WHITE,True,CORRECT,0.6948297000017192,694.8297000017192
2,20260325_120617,D,J,False,MANUAL,2,384,684,fixed_delta,0.04010600706829564,0.013286393218712247,,,,,0.4577457413572522,1648,1952,0,,WHITE,,,0,,WHITE,True,CORRECT,0.6218833000002633,621.8833000002633
2,20260325_120617,D,J,False,MANUAL,2,385,685,fixed_delta,0.04010600706829564,0.013286393218712247,,,,,0.4826352919302765,1737,1863,0,,WHITE,,,0,,BLACK,False,INCORRECT,0.5843592999990506,584.3592999990506
2,20260325_120617,D,J,False,MANUAL,2,386,686,fixed_delta,0.04010600706829564,0.013286393218712247,,,,,0.5408934257983089,1947,1653,0,,BLACK,,,0,,BLACK,True,CORRECT,0.6691019000008964,669.1019000008964
2,20260325_120617,D,J,False,MANUAL,2,387,687,fixed_delta,0.04010600706829564,0.013286393218712247,,,,,0.44334079132698656,1596,2004,0,,WHITE,,,0,,WHITE,True,CORRECT,0.8728559000010137,872.8559000010137
2,20260325_120617,D,J,False,MANUAL,2,388,688,fixed_delta,0.04010600706829564,0.013286393218712247,,,,,0.43837218698928593,1578,2022,0,,WHITE,,,0,,WHITE,True,CORRECT,0.5984002000004693,598.4002000004693
2,20260325_120617,D,J,False,MANUAL,2,389,689,fixed_delta,0.04010600706829564,0.013286393218712247,,,,,0.5160668901569851,1858,1742,0,,BLACK,,,0,,BLACK,True,CORRECT,0.48346049999963725,483.46049999963725
2,20260325_120617,D,J,False,MANUAL,2,390,690,fixed_delta,0.04010600706829564,0.013286393218712247,,,,,0.47261144175940617,1701,1899,0,,WHITE,,,0,,WHITE,True,CORRECT,0.5232250999997632,523.2250999997632
2,20260325_120617,D,J,False,MANUAL,2,391,691,fixed_delta,0.04010600706829564,0.013286393218712247,,,,,0.4584073854383075,1650,1950,0,,WHITE,,,0,,WHITE,True,CORRECT,0.6185328999999911,618.5328999999911
2,20260325_120617,D,J,False,MANUAL,2,392,692,fixed_delta,0.04010600706829564,0.013286393218712247,,,,,0.45799886283782376,1649,1951,0,,WHITE,,,0,,WHITE,True,CORRECT,0.6619709000005969,661.9709000005969
2,20260325_120617,D,J,False,MANUAL,2,393,693,fixed_delta,0.04010600706829564,0.013286393218712247,,,,,0.5709021774104427,2055,1545,0,,BLACK,,,0,,BLACK,True,CORRECT,0.40716059999977006,407.16059999977006
2,20260325_120617,D,J,False,MANUAL,2,394,694,fixed_delta,0.04010600706829564,0.013286393218712247,,,,,0.541487071951679,1949,1651,0,,BLACK,,,0,,BLACK,True,CORRECT,0.6718693999991956,671.8693999991956
2,20260325_120617,D,J,False,MANUAL,2,395,695,fixed_delta,0.04010600706829564,0.013286393218712247,,,,,0.5522553477690281,1988,1612,0,,BLACK,,,0,,BLACK,True,CORRECT,0.43889579999995476,438.89579999995476
2,20260325_120617,D,J,False,MANUAL,2,396,696,fixed_delta,0.04010600706829564,0.013286393218712247,,,,,0.5444519259232797,1960,1640,0,,BLACK,,,0,,BLACK,True,CORRECT,1.0459668000003148,1045.9668000003148
2,20260325_120617,D,J,False,MANUAL,2,397,697,fixed_delta,0.04010600706829564,0.013286393218712247,,,,,0.4327079794367551,1558,2042,0,,WHITE,,,0,,WHITE,True,CORRECT,0.6207360999997036,620.7360999997036
2,20260325_120617,D,J,False,MANUAL,2,398,698,fixed_delta,0.04010600706829564,0.013286393218712247,,,,,0.44824095908978645,1614,1986,0,,WHITE,,,0,,BLACK,False,INCORRECT,1.1435631000003923,1143.5631000003923
2,20260325_120617,D,J,False,MANUAL,2,399,699,fixed_delta,0.04010600706829564,0.013286393218712247,,,,,0.4843017253961048,1743,1857,0,,WHITE,,,0,,BLACK,False,INCORRECT,0.8397442999994382,839.7442999994382
2,20260325_120617,D,J,False,MANUAL,2,400,700,fixed_delta,0.04010600706829564,0.013286393218712247,,,,,0.46258546322867844,1665,1935,0,,WHITE,,,0,,WHITE,True,CORRECT,0.5411125000009633,541.1125000009633
2,20260325_120617,D,J,False,MANUAL,2,401,701,fixed_delta,0.04010600706829564,0.013286393218712247,,,,,0.44232148673184496,1592,2008,0,,WHITE,,,0,,BLACK,False,INCORRECT,2.0917733999995107,2091.7733999995107
2,20260325_120617,D,J,False,MANUAL,2,402,702,fixed_delta,0.04010600706829564,0.013286393218712247,,,,,0.5390739306356644,1941,1659,0,,BLACK,,,0,,BLACK,True,CORRECT,0.7502690000001166,750.2690000001166
2,20260325_120617,D,J,False,MANUAL,2,403,703,fixed_delta,0.04010600706829564,0.013286393218712247,,,,,0.48434320651961793,1744,1856,0,,WHITE,,,0,,WHITE,True,CORRECT,0.638289900000018,638.289900000018
2,20260325_120617,D,J,False,MANUAL,2,404,704,fixed_delta,0.04010600706829564,0.013286393218712247,,,,,0.45708211419870615,1645,1955,0,,WHITE,,,0,,WHITE,True,CORRECT,0.4938658999999461,493.8658999999461
2,20260325_120617,D,J,False,MANUAL,2,405,705,fixed_delta,0.04010600706829564,0.013286393218712247,,,,,0.44837215283231024,1614,1986,0,,WHITE,,,0,,WHITE,True,CORRECT,0.5848841999995784,584.8841999995784
2,20260325_120617,D,J,False,MANUAL,2,406,706,fixed_delta,0.04010600706829564,0.013286393218712247,,,,,0.45706986205867595,1645,1955,0,,WHITE,,,0,,WHITE,True,CORRECT,0.617376799998965,617.376799998965
2,20260325_120617,D,J,False,MANUAL,2,407,707,fixed_delta,0.04010600706829564,0.013286393218712247,,,,,0.549089863113685,1977,1623,0,,BLACK,,,0,,BLACK,True,CORRECT,0.9607630999998946,960.7630999998946
2,20260325_120617,D,J,False,MANUAL,2,408,708,fixed_delta,0.04010600706829564,0.013286393218712247,,,,,0.4564778741998764,1643,1957,0,,WHITE,,,0,,WHITE,True,CORRECT,0.5437744999999268,543.7744999999268
2,20260325_120617,D,J,False,MANUAL,2,409,709,fixed_delta,0.04010600706829564,0.013286393218712247,,,,,0.4567255875797693,1644,1956,0,,WHITE,,,0,,WHITE,True,CORRECT,0.850128299998687,850.128299998687
2,20260325_120617,D,J,False,MANUAL,2,410,710,fixed_delta,0.04010600706829564,0.013286393218712247,,,,,0.4586556670352679,1651,1949,0,,WHITE,,,0,,WHITE,True,CORRECT,0.6767462000007072,676.7462000007072
2,20260325_120617,D,J,False,MANUAL,2,411,711,fixed_delta,0.04010600706829564,0.013286393218712247,,,,,0.523935639445036,1886,1714,0,,BLACK,,,0,,BLACK,True,CORRECT,0.45867550000002666,458.67550000002666
2,20260325_120617,D,J,False,MANUAL,2,412,712,fixed_delta,0.04010600706829564,0.013286393218712247,,,,,0.5296938170197721,1907,1693,0,,BLACK,,,0,,WHITE,False,INCORRECT,3.1901481000004424,3190.1481000004424
2,20260325_120617,D,J,False,MANUAL,2,413,713,fixed_delta,0.04010600706829564,0.013286393218712247,,,,,0.44682276055918735,1609,1991,0,,WHITE,,,0,,WHITE,True,CORRECT,3.4629893000001175,3462.9893000001175
2,20260325_120617,D,J,False,MANUAL,2,414,714,fixed_delta,0.04010600706829564,0.013286393218712247,,,,,0.5473438909133918,1970,1630,0,,BLACK,,,0,,BLACK,True,CORRECT,0.5709456999993563,570.9456999993563
2,20260325_120617,D,J,False,MANUAL,2,415,715,fixed_delta,0.04010600706829564,0.013286393218712247,,,,,0.5269310033621893,1897,1703,0,,BLACK,,,0,,BLACK,True,CORRECT,0.5248566999998729,524.856699999873
2,20260325_120617,D,J,False,MANUAL,2,416,716,fixed_delta,0.04010600706829564,0.013286393218712247,,,,,0.4646299024360468,1673,1927,0,,WHITE,,,0,,WHITE,True,CORRECT,0.5669726999985869,566.9726999985869
2,20260325_120617,D,J,False,MANUAL,2,417,717,fixed_delta,0.04010600706829564,0.013286393218712247,,,,,0.547319414233834,1970,1630,0,,BLACK,,,0,,BLACK,True,CORRECT,0.5971527000001515,597.1527000001515
2,20260325_120617,D,J,False,MANUAL,2,418,718,fixed_delta,0.04010600706829564,0.013286393218712247,,,,,0.48517884143605666,1747,1853,0,,WHITE,,,0,,WHITE,True,CORRECT,3.1120750999998563,3112.0750999998563
2,20260325_120617,D,J,False,MANUAL,2,419,719,fixed_delta,0.04010600706829564,0.013286393218712247,,,,,0.45947744269286606,1654,1946,0,,WHITE,,,0,,WHITE,True,CORRECT,0.687475099999574,687.475099999574
2,20260325_120617,D,J,False,MANUAL,2,420,720,fixed_delta,0.04010600706829564,0.013286393218712247,,,,,0.5579248010169082,2009,1591,0,,BLACK,,,0,,BLACK,True,CORRECT,0.5386101000003691,538.6101000003691
2,20260325_120617,D,J,False,MANUAL,2,421,721,fixed_delta,0.04010600706829564,0.013286393218712247,,,,,0.47250689251029837,1701,1899,0,,WHITE,,,0,,WHITE,True,CORRECT,0.6645582000001014,664.5582000001014
2,20260325_120617,D,J,False,MANUAL,2,422,722,fixed_delta,0.04010600706829564,0.013286393218712247,,,,,0.5385641868428844,1939,1661,0,,BLACK,,,0,,BLACK,True,CORRECT,0.6209022000002733,620.9022000002733
2,20260325_120617,D,J,False,MANUAL,2,423,723,fixed_delta,0.04010600706829564,0.013286393218712247,,,,,0.5283225583670151,1902,1698,0,,BLACK,,,0,,WHITE,False,INCORRECT,0.5916399999987334,591.6399999987334
2,20260325_120617,D,J,False,MANUAL,2,424,724,fixed_delta,0.04010600706829564,0.013286393218712247,,,,,0.5317706267524575,1914,1686,0,,BLACK,,,0,,BLACK,True,CORRECT,1.3913796999986516,1391.3796999986516
2,20260325_120617,D,J,False,MANUAL,2,425,725,fixed_delta,0.04010600706829564,0.013286393218712247,,,,,0.47799925674572685,1721,1879,0,,WHITE,,,0,,WHITE,True,CORRECT,0.7321081000009144,732.1081000009144
2,20260325_120617,D,J,False,MANUAL,2,426,726,fixed_delta,0.04010600706829564,0.013286393218712247,,,,,0.44782529027651485,1612,1988,0,,WHITE,,,0,,WHITE,True,CORRECT,1.4439045999988593,1443.9045999988593
2,20260325_120617,D,J,False,MANUAL,2,427,727,fixed_delta,0.04010600706829564,0.013286393218712247,,,,,0.4580624183101426,1649,1951,0,,WHITE,,,0,,WHITE,True,CORRECT,1.2904624000002514,1290.4624000002514
2,20260325_120617,D,J,False,MANUAL,2,428,728,fixed_delta,0.04010600706829564,0.013286393218712247,,,,,0.4659257444663253,1677,1923,0,,WHITE,,,0,,WHITE,True,CORRECT,1.4374802999991516,1437.4802999991516
2,20260325_120617,D,J,False,MANUAL,2,429,729,fixed_delta,0.04010600706829564,0.013286393218712247,,,,,0.5397964308043927,1943,1657,0,,BLACK,,,0,,BLACK,True,CORRECT,0.7182150999997248,718.2150999997248
2,20260325_120617,D,J,False,MANUAL,2,430,730,fixed_delta,0.04010600706829564,0.013286393218712247,,,,,0.5263901320378737,1895,1705,0,,BLACK,,,0,,BLACK,True,CORRECT,2.034207599999718,2034.2075999997178
2,20260325_120617,D,J,False,MANUAL,2,431,731,fixed_delta,0.04010600706829564,0.013286393218712247,,,,,0.45933906602397334,1654,1946,0,,WHITE,,,0,,WHITE,True,CORRECT,0.7487717000003613,748.7717000003613
2,20260325_120617,D,J,False,MANUAL,2,432,732,fixed_delta,0.04010600706829564,0.013286393218712247,,,,,0.5604007317485276,2017,1583,0,,BLACK,,,0,,BLACK,True,CORRECT,0.5582055999984732,558.2055999984732
2,20260325_120617,D,J,False,MANUAL,2,433,733,fixed_delta,0.04010600706829564,0.013286393218712247,,,,,0.5207253743212341,1875,1725,0,,BLACK,,,0,,WHITE,False,INCORRECT,0.8215161000007356,821.5161000007356
2,20260325_120617,D,J,False,MANUAL,2,434,734,fixed_delta,0.04010600706829564,0.013286393218712247,,,,,0.4589256894326191,1652,1948,0,,WHITE,,,0,,WHITE,True,CORRECT,1.4017975000006118,1401.7975000006118
2,20260325_120617,D,J,False,MANUAL,2,435,735,fixed_delta,0.04010600706829564,0.013286393218712247,,,,,0.4626503074980727,1666,1934,0,,WHITE,,,0,,WHITE,True,CORRECT,0.8599536000001535,859.9536000001535
2,20260325_120617,D,J,False,MANUAL,2,436,736,fixed_delta,0.04010600706829564,0.013286393218712247,,,,,0.5553773185630084,1999,1601,0,,BLACK,,,0,,BLACK,True,CORRECT,0.5167492000000493,516.7492000000493
2,20260325_120617,D,J,False,MANUAL,2,437,737,fixed_delta,0.04010600706829564,0.013286393218712247,,,,,0.4612758996504887,1661,1939,0,,WHITE,,,0,,WHITE,True,CORRECT,0.6478823999987071,647.8823999987071
2,20260325_120617,D,J,False,MANUAL,2,438,738,fixed_delta,0.04010600706829564,0.013286393218712247,,,,,0.49139464117355564,1769,1831,0,,WHITE,,,0,,WHITE,True,CORRECT,0.7892867999998998,789.2867999998998
2,20260325_120617,D,J,False,MANUAL,2,439,739,fixed_delta,0.04010600706829564,0.013286393218712247,,,,,0.45033836519971904,1621,1979,0,,WHITE,,,0,,WHITE,True,CORRECT,0.6902229000006628,690.2229000006628
2,20260325_120617,D,J,False,MANUAL,2,440,740,fixed_delta,0.04010600706829564,0.013286393218712247,,,,,0.534781163829288,1925,1675,0,,BLACK,,,0,,BLACK,True,CORRECT,0.6136439000001701,613.6439000001701
2,20260325_120617,D,J,False,MANUAL,2,441,741,fixed_delta,0.04010600706829564,0.013286393218712247,,,,,0.4619597921411819,1663,1937,0,,WHITE,,,0,,WHITE,True,CORRECT,1.8866180999993958,1886.6180999993958
2,20260325_120617,D,J,False,MANUAL,2,442,742,fixed_delta,0.04010600706829564,0.013286393218712247,,,,,0.5397935966446443,1943,1657,0,,BLACK,,,0,,WHITE,False,INCORRECT,0.8984297000006336,898.4297000006336
2,20260325_120617,D,J,False,MANUAL,2,443,743,fixed_delta,0.04010600706829564,0.013286393218712247,,,,,0.53752022708805,1935,1665,0,,BLACK,,,0,,BLACK,True,CORRECT,0.7347804000000906,734.7804000000906
2,20260325_120617,D,J,False,MANUAL,2,444,744,fixed_delta,0.04010600706829564,0.013286393218712247,,,,,0.463485769297463,1669,1931,0,,WHITE,,,0,,WHITE,True,CORRECT,0.6445172999992792,644.5172999992792
2,20260325_120617,D,J,False,MANUAL,2,445,745,fixed_delta,0.04010600706829564,0.013286393218712247,,,,,0.4486613914962107,1615,1985,0,,WHITE,,,0,,WHITE,True,CORRECT,0.5799864000000525,579.9864000000525
2,20260325_120617,D,J,False,MANUAL,2,446,746,fixed_delta,0.04010600706829564,0.013286393218712247,,,,,0.550603451932535,1982,1618,0,,BLACK,,,0,,BLACK,True,CORRECT,0.5477537000006123,547.7537000006123
2,20260325_120617,D,J,False,MANUAL,2,447,747,fixed_delta,0.04010600706829564,0.013286393218712247,,,,,0.478818511937638,1724,1876,0,,WHITE,,,0,,WHITE,True,CORRECT,0.6040627999991557,604.0627999991557
2,20260325_120617,D,J,False,MANUAL,2,448,748,fixed_delta,0.04010600706829564,0.013286393218712247,,,,,0.45813320776875477,1649,1951,0,,WHITE,,,0,,WHITE,True,CORRECT,0.49745569999868167,497.45569999868167
2,20260325_120617,D,J,False,MANUAL,2,449,749,fixed_delta,0.04010600706829564,0.013286393218712247,,,,,0.5394905665271194,1942,1658,0,,BLACK,,,0,,WHITE,False,INCORRECT,0.6891770000001998,689.1770000001998
2,20260325_120617,D,J,False,MANUAL,2,450,750,fixed_delta,0.04010600706829564,0.013286393218712247,,,,,0.5586034904924334,2011,1589,0,,BLACK,,,0,,BLACK,True,CORRECT,0.6294120000002295,629.4120000002295
2,20260325_120617,D,J,False,MANUAL,2,451,751,fixed_delta,0.04010600706829564,0.013286393218712247,,,,,0.5383826592360512,1938,1662,0,,BLACK,,,0,,BLACK,True,CORRECT,0.601942200000849,601.942200000849
2,20260325_120617,D,J,False,MANUAL,2,452,752,fixed_delta,0.04010600706829564,0.013286393218712247,,,,,0.45766448198258114,1648,1952,0,,WHITE,,,0,,BLACK,False,INCORRECT,0.7313044000002265,731.3044000002265
2,20260325_120617,D,J,False,MANUAL,2,453,753,fixed_delta,0.04010600706829564,0.013286393218712247,,,,,0.47819106096584435,1721,1879,0,,WHITE,,,0,,WHITE,True,CORRECT,0.6514336000000185,651.4336000000185
2,20260325_120617,D,J,False,MANUAL,2,454,754,fixed_delta,0.04010600706829564,0.013286393218712247,,,,,0.4455127245198751,1604,1996,0,,WHITE,,,0,,WHITE,True,CORRECT,0.703621500000736,703.621500000736
2,20260325_120617,D,J,False,MANUAL,2,455,755,fixed_delta,0.04010600706829564,0.013286393218712247,,,,,0.43744949619678647,1575,2025,0,,WHITE,,,0,,WHITE,True,CORRECT,0.5792413999988639,579.2413999988639
2,20260325_120617,D,J,False,MANUAL,2,456,756,fixed_delta,0.04010600706829564,0.013286393218712247,,,,,0.44797607557709423,1613,1987,0,,WHITE,,,0,,WHITE,True,CORRECT,0.7180964999988646,718.0964999988646
2,20260325_120617,D,J,False,MANUAL,2,457,757,fixed_delta,0.04010600706829564,0.013286393218712247,,,,,0.5400837875318236,1944,1656,0,,BLACK,,,0,,BLACK,True,CORRECT,0.6560611999993853,656.0611999993853
2,20260325_120617,D,J,False,MANUAL,2,458,758,fixed_delta,0.04010600706829564,0.013286393218712247,,,,,0.518196101986682,1866,1734,0,,BLACK,,,0,,WHITE,False,INCORRECT,0.6570799000000989,657.0799000000989
2,20260325_120617,D,J,False,MANUAL,2,459,759,fixed_delta,0.04010600706829564,0.013286393218712247,,,,,0.46679834201215686,1680,1920,0,,WHITE,,,0,,WHITE,True,CORRECT,0.6997279000006529,699.7279000006529
2,20260325_120617,D,J,False,MANUAL,2,460,760,fixed_delta,0.04010600706829564,0.013286393218712247,,,,,0.48398044572842236,1742,1858,0,,WHITE,,,0,,BLACK,False,INCORRECT,0.6579005000003235,657.9005000003235
2,20260325_120617,D,J,False,MANUAL,2,461,761,fixed_delta,0.04010600706829564,0.013286393218712247,,,,,0.45856988743816895,1651,1949,0,,WHITE,,,0,,BLACK,False,INCORRECT,1.755350699999326,1755.350699999326
2,20260325_120617,D,J,False,MANUAL,2,462,762,fixed_delta,0.04010600706829564,0.013286393218712247,,,,,0.5410064698663237,1948,1652,0,,BLACK,,,0,,WHITE,False,INCORRECT,0.8931401999998343,893.1401999998343
2,20260325_120617,D,J,False,MANUAL,2,463,763,fixed_delta,0.04010600706829564,0.013286393218712247,,,,,0.5388643902793016,1940,1660,0,,BLACK,,,0,,BLACK,True,CORRECT,0.7023898000006739,702.3898000006739
2,20260325_120617,D,J,False,MANUAL,2,464,764,fixed_delta,0.04010600706829564,0.013286393218712247,,,,,0.5221279166447593,1880,1720,0,,BLACK,,,0,,BLACK,True,CORRECT,2.3506464999991294,2350.6464999991294
2,20260325_120617,D,J,False,MANUAL,2,465,765,fixed_delta,0.04010600706829564,0.013286393218712247,,,,,0.5399294774415183,1944,1656,0,,BLACK,,,0,,BLACK,True,CORRECT,3.69182550000005,3691.82550000005
2,20260325_120617,D,J,False,MANUAL,2,466,766,fixed_delta,0.04010600706829564,0.013286393218712247,,,,,0.4552686752463549,1639,1961,0,,WHITE,,,0,,WHITE,True,CORRECT,1.589122999999745,1589.122999999745
2,20260325_120617,D,J,False,MANUAL,2,467,767,fixed_delta,0.04010600706829564,0.013286393218712247,,,,,0.4412947246554719,1589,2011,0,,WHITE,,,0,,BLACK,False,INCORRECT,0.904346399998758,904.346399998758
2,20260325_120617,D,J,False,MANUAL,2,468,768,fixed_delta,0.04010600706829564,0.013286393218712247,,,,,0.5289955179444571,1904,1696,0,,BLACK,,,0,,BLACK,True,CORRECT,0.8064205999999103,806.4205999999103
2,20260325_120617,D,J,False,MANUAL,2,469,769,fixed_delta,0.04010600706829564,0.013286393218712247,,,,,0.45019229744403816,1621,1979,0,,WHITE,,,0,,WHITE,True,CORRECT,0.730087400001139,730.087400001139
2,20260325_120617,D,J,False,MANUAL,2,470,770,fixed_delta,0.04010600706829564,0.013286393218712247,,,,,0.44538217019587173,1603,1997,0,,WHITE,,,0,,WHITE,True,CORRECT,1.821691799999826,1821.691799999826
2,20260325_120617,D,J,False,MANUAL,2,471,771,fixed_delta,0.04010600706829564,0.013286393218712247,,,,,0.45788981896605463,1648,1952,0,,WHITE,,,0,,WHITE,True,CORRECT,1.2412490000006073,1241.2490000006073
2,20260325_120617,D,J,False,MANUAL,2,472,772,fixed_delta,0.04010600706829564,0.013286393218712247,,,,,0.5320707696575738,1915,1685,0,,BLACK,,,0,,BLACK,True,CORRECT,0.5658985000009125,565.8985000009125
2,20260325_120617,D,J,False,MANUAL,2,473,773,fixed_delta,0.04010600706829564,0.013286393218712247,,,,,0.47110936756095867,1696,1904,0,,WHITE,,,0,,WHITE,True,CORRECT,2.1909832999990613,2190.9832999990613
2,20260325_120617,D,J,False,MANUAL,2,474,774,fixed_delta,0.04010600706829564,0.013286393218712247,,,,,0.5469563604381864,1969,1631,0,,BLACK,,,0,,BLACK,True,CORRECT,1.4945179999995162,1494.5179999995162
2,20260325_120617,D,J,False,MANUAL,2,475,775,fixed_delta,0.04010600706829564,0.013286393218712247,,,,,0.5495814726612702,1978,1622,0,,BLACK,,,0,,BLACK,True,CORRECT,0.9992965999990702,999.2965999990702
2,20260325_120617,D,J,False,MANUAL,2,476,776,fixed_delta,0.04010600706829564,0.013286393218712247,,,,,0.5570568743817261,2005,1595,0,,BLACK,,,0,,BLACK,True,CORRECT,0.6086911999991571,608.6911999991571
2,20260325_120617,D,J,False,MANUAL,2,477,777,fixed_delta,0.04010600706829564,0.013286393218712247,,,,,0.45844529975791654,1650,1950,0,,WHITE,,,0,,WHITE,True,CORRECT,0.4727861000010307,472.7861000010307
2,20260325_120617,D,J,False,MANUAL,2,478,778,fixed_delta,0.04010600706829564,0.013286393218712247,,,,,0.4802679473749585,1729,1871,0,,WHITE,,,0,,WHITE,True,CORRECT,0.6449501999995846,644.9501999995846
2,20260325_120617,D,J,False,MANUAL,2,479,779,fixed_delta,0.04010600706829564,0.013286393218712247,,,,,0.46998477573546593,1692,1908,0,,WHITE,,,0,,BLACK,False,INCORRECT,0.692373800000496,692.373800000496
2,20260325_120617,D,J,False,MANUAL,2,480,780,fixed_delta,0.04010600706829564,0.013286393218712247,,,,,0.449939723720397,1620,1980,0,,WHITE,,,0,,WHITE,True,CORRECT,0.482034399999975,482.034399999975
2,20260325_120617,D,J,False,MANUAL,2,481,781,fixed_delta,0.04010600706829564,0.013286393218712247,,,,,0.4594349648118709,1654,1946,0,,WHITE,,,0,,WHITE,True,CORRECT,0.5604232999994565,560.4232999994565
2,20260325_120617,D,J,False,MANUAL,2,482,782,fixed_delta,0.04010600706829564,0.013286393218712247,,,,,0.4662664823367906,1679,1921,0,,WHITE,,,0,,WHITE,True,CORRECT,0.5150425000010728,515.0425000010728
2,20260325_120617,D,J,False,MANUAL,2,483,783,fixed_delta,0.04010600706829564,0.013286393218712247,,,,,0.46838053584932837,1686,1914,0,,WHITE,,,0,,WHITE,True,CORRECT,0.6559400000005553,655.9400000005553
2,20260325_120617,D,J,False,MANUAL,2,484,784,fixed_delta,0.04010600706829564,0.013286393218712247,,,,,0.44767527098521853,1612,1988,0,,WHITE,,,0,,WHITE,True,CORRECT,0.5536327999998321,553.6327999998321
2,20260325_120617,D,J,False,MANUAL,2,485,785,fixed_delta,0.04010600706829564,0.013286393218712247,,,,,0.47046381452949876,1694,1906,0,,WHITE,,,0,,BLACK,False,INCORRECT,0.6886274999997113,688.6274999997113
2,20260325_120617,D,J,False,MANUAL,2,486,786,fixed_delta,0.04010600706829564,0.013286393218712247,,,,,0.5515288297333282,1986,1614,0,,BLACK,,,0,,BLACK,True,CORRECT,0.6847933999997622,684.7933999997622
2,20260325_120617,D,J,False,MANUAL,2,487,787,fixed_delta,0.04010600706829564,0.013286393218712247,,,,,0.5272290015297406,1898,1702,0,,BLACK,,,0,,BLACK,True,CORRECT,0.601263900000049,601.263900000049
2,20260325_120617,D,J,False,MANUAL,2,488,788,fixed_delta,0.04010600706829564,0.013286393218712247,,,,,0.5167808772447313,1860,1740,0,,BLACK,,,0,,BLACK,True,CORRECT,0.5097090999988723,509.70909999887226
2,20260325_120617,D,J,False,MANUAL,2,489,789,fixed_delta,0.04010600706829564,0.013286393218712247,,,,,0.4638890167834927,1670,1930,0,,WHITE,,,0,,WHITE,True,CORRECT,0.6146568000003754,614.6568000003754
2,20260325_120617,D,J,False,MANUAL,2,490,790,fixed_delta,0.04010600706829564,0.013286393218712247,,,,,0.5280604232975382,1901,1699,0,,BLACK,,,0,,BLACK,True,CORRECT,0.660337499999514,660.337499999514
2,20260325_120617,D,J,False,MANUAL,2,491,791,fixed_delta,0.04010600706829564,0.013286393218712247,,,,,0.5537537558456465,1994,1606,0,,BLACK,,,0,,BLACK,True,CORRECT,0.6414165000005596,641.4165000005596
