participant_id,run_timestamp,key_black,key_white,keymap_flip,block,block_idx,trial,global_trial,difficulty_mode,delta_fixed_mean,delta_fixed_sd,delta_stair_realised,delta_stair_mean,delta_step_down_used,delta_step_up_used,vblack_prop,n_vblack,n_vwhite,auto_on,aid_accuracy_setting,stimulus,aid_label,aid_correct,aid_onset_ms,aid_onset_ms_rel,response,correct,feedback,rt_s,rt_ms
3,20260325_121052,D,J,False,AUTOMATION1,2,1,301,fixed_delta,0.03626602127557052,0.01404684716676857,,,,,0.47121076844595483,1696,1904,1,0.95,WHITE,WHITE,True,0,0.0026999987312592566,WHITE,True,CORRECT,4.0424394000001485,4042.4394000001485
3,20260325_121052,D,J,False,AUTOMATION1,2,2,302,fixed_delta,0.03626602127557052,0.01404684716676857,,,,,0.5342181027503011,1923,1677,1,0.95,BLACK,BLACK,True,0,0.0018999999156221747,BLACK,True,CORRECT,2.111384800000451,2111.384800000451
3,20260325_121052,D,J,False,AUTOMATION1,2,3,303,fixed_delta,0.03626602127557052,0.01404684716676857,,,,,0.5205674939890126,1874,1726,1,0.95,BLACK,BLACK,True,0,0.0021999985619913787,BLACK,True,CORRECT,2.5911668999997346,2591.1668999997346
3,20260325_121052,D,J,False,AUTOMATION1,2,4,304,fixed_delta,0.03626602127557052,0.01404684716676857,,,,,0.5272745693264284,1898,1702,1,0.95,BLACK,BLACK,True,0,0.0015000005078036338,WHITE,False,INCORRECT,3.550361499999781,3550.361499999781
3,20260325_121052,D,J,False,AUTOMATION1,2,5,305,fixed_delta,0.03626602127557052,0.01404684716676857,,,,,0.5315196442030918,1913,1687,1,0.95,BLACK,BLACK,True,0,0.002200000380980782,BLACK,True,CORRECT,2.5580810999999812,2558.0810999999812
3,20260325_121052,D,J,False,AUTOMATION1,2,6,306,fixed_delta,0.03626602127557052,0.01404684716676857,,,,,0.5207141860183242,1875,1725,1,0.95,BLACK,BLACK,True,0,0.002300001142430119,BLACK,True,CORRECT,2.9208763999995426,2920.8763999995426
3,20260325_121052,D,J,False,AUTOMATION1,2,7,307,fixed_delta,0.03626602127557052,0.01404684716676857,,,,,0.4573433415969159,1646,1954,1,0.95,WHITE,WHITE,True,0,0.0015999994502635673,WHITE,True,CORRECT,1.009928099998433,1009.928099998433
3,20260325_121052,D,J,False,AUTOMATION1,2,8,308,fixed_delta,0.03626602127557052,0.01404684716676857,,,,,0.5234337994361028,1884,1716,1,0.95,BLACK,BLACK,True,0,0.0015000005078036338,BLACK,True,CORRECT,1.2948388000004343,1294.8388000004343
3,20260325_121052,D,J,False,AUTOMATION1,2,9,309,fixed_delta,0.03626602127557052,0.01404684716676857,,,,,0.5273795411263626,1899,1701,1,0.95,BLACK,BLACK,True,0,0.0013000008038943633,BLACK,True,CORRECT,1.2489038000003347,1248.9038000003347
3,20260325_121052,D,J,False,AUTOMATION1,2,10,310,fixed_delta,0.03626602127557052,0.01404684716676857,,,,,0.4636857390524873,1669,1931,1,0.95,WHITE,WHITE,True,0,0.0013999997463542968,WHITE,True,CORRECT,1.0205580000001646,1020.5580000001646
3,20260325_121052,D,J,False,AUTOMATION1,2,11,311,fixed_delta,0.03626602127557052,0.01404684716676857,,,,,0.45591357911545144,1641,1959,1,0.95,WHITE,WHITE,True,0,0.0016000012692529708,WHITE,True,CORRECT,1.1432569000007788,1143.2569000007788
3,20260325_121052,D,J,False,AUTOMATION1,2,12,312,fixed_delta,0.03626602127557052,0.01404684716676857,,,,,0.548473662386256,1975,1625,1,0.95,BLACK,BLACK,True,0,0.0029000002541579306,BLACK,True,CORRECT,1.3673084000001836,1367.3084000001836
3,20260325_121052,D,J,False,AUTOMATION1,2,13,313,fixed_delta,0.03626602127557052,0.01404684716676857,,,,,0.5114648497499572,1841,1759,1,0.95,BLACK,BLACK,True,0,0.0018999999156221747,BLACK,True,CORRECT,1.5773109000001568,1577.3109000001568
3,20260325_121052,D,J,False,AUTOMATION1,2,14,314,fixed_delta,0.03626602127557052,0.01404684716676857,,,,,0.4436247665772622,1597,2003,1,0.95,WHITE,WHITE,True,0,0.0017000002117129043,WHITE,True,CORRECT,0.9448563999994803,944.8563999994803
3,20260325_121052,D,J,False,AUTOMATION1,2,15,315,fixed_delta,0.03626602127557052,0.01404684716676857,,,,,0.539941394652438,1944,1656,1,0.95,BLACK,BLACK,True,0,0.0020000006770715117,BLACK,True,CORRECT,1.0210801000011998,1021.0801000011998
3,20260325_121052,D,J,False,AUTOMATION1,2,16,316,fixed_delta,0.03626602127557052,0.01404684716676857,,,,,0.534724840100475,1925,1675,1,0.95,BLACK,BLACK,True,0,0.0014999986888142303,BLACK,True,CORRECT,1.3334010999988095,1333.4010999988095
3,20260325_121052,D,J,False,AUTOMATION1,2,17,317,fixed_delta,0.03626602127557052,0.01404684716676857,,,,,0.5393267051887753,1942,1658,1,0.95,BLACK,BLACK,True,0,0.0013000008038943633,BLACK,True,CORRECT,0.9565598000008322,956.5598000008322
3,20260325_121052,D,J,False,AUTOMATION1,2,18,318,fixed_delta,0.03626602127557052,0.01404684716676857,,,,,0.5158229543779546,1857,1743,1,0.95,BLACK,BLACK,True,0,0.0015000005078036338,BLACK,True,CORRECT,1.0402638000014122,1040.2638000014122
3,20260325_121052,D,J,False,AUTOMATION1,2,19,319,fixed_delta,0.03626602127557052,0.01404684716676857,,,,,0.5423941269731143,1953,1647,1,0.95,BLACK,BLACK,True,0,0.0012999989849049598,BLACK,True,CORRECT,1.510287099999914,1510.287099999914
3,20260325_121052,D,J,False,AUTOMATION1,2,20,320,fixed_delta,0.03626602127557052,0.01404684716676857,,,,,0.5495278444035278,1978,1622,1,0.95,BLACK,BLACK,True,0,0.0017000002117129043,BLACK,True,CORRECT,1.2072862000004534,1207.2862000004534
3,20260325_121052,D,J,False,AUTOMATION1,2,21,321,fixed_delta,0.03626602127557052,0.01404684716676857,,,,,0.4641285107037896,1671,1929,1,0.95,WHITE,WHITE,True,0,0.0015000005078036338,WHITE,True,CORRECT,1.0075133999998798,1007.5133999998798
3,20260325_121052,D,J,False,AUTOMATION1,2,22,322,fixed_delta,0.03626602127557052,0.01404684716676857,,,,,0.5002777777777778,1801,1799,1,0.95,BLACK,BLACK,True,0,0.0017000002117129043,BLACK,True,CORRECT,1.0469223000000056,1046.9223000000056
3,20260325_121052,D,J,False,AUTOMATION1,2,23,323,fixed_delta,0.03626602127557052,0.01404684716676857,,,,,0.4880415725847739,1757,1843,1,0.95,WHITE,WHITE,True,0,0.0017000002117129043,WHITE,True,CORRECT,2.8873060999994777,2887.3060999994777
3,20260325_121052,D,J,False,AUTOMATION1,2,24,324,fixed_delta,0.03626602127557052,0.01404684716676857,,,,,0.47156533115503263,1698,1902,1,0.95,WHITE,WHITE,True,0,0.0013000008038943633,WHITE,True,CORRECT,2.7633488999999827,2763.3488999999827
3,20260325_121052,D,J,False,AUTOMATION1,2,25,325,fixed_delta,0.03626602127557052,0.01404684716676857,,,,,0.5568330063323943,2005,1595,1,0.95,BLACK,BLACK,True,0,0.0015999994502635673,BLACK,True,CORRECT,1.450945499998852,1450.945499998852
3,20260325_121052,D,J,False,AUTOMATION1,2,26,326,fixed_delta,0.03626602127557052,0.01404684716676857,,,,,0.4596787272002022,1655,1945,1,0.95,WHITE,WHITE,True,0,0.0015000005078036338,WHITE,True,CORRECT,1.0720114000014291,1072.0114000014291
3,20260325_121052,D,J,False,AUTOMATION1,2,27,327,fixed_delta,0.03626602127557052,0.01404684716676857,,,,,0.460260674633226,1657,1943,1,0.95,WHITE,WHITE,True,0,0.002300001142430119,WHITE,True,CORRECT,0.9348926000002393,934.8926000002393
3,20260325_121052,D,J,False,AUTOMATION1,2,28,328,fixed_delta,0.03626602127557052,0.01404684716676857,,,,,0.5069218612459383,1825,1775,1,0.95,BLACK,BLACK,True,0,0.0015000005078036338,BLACK,True,CORRECT,1.0557091000009677,1055.7091000009677
3,20260325_121052,D,J,False,AUTOMATION1,2,29,329,fixed_delta,0.03626602127557052,0.01404684716676857,,,,,0.45223547176919504,1628,1972,1,0.95,WHITE,WHITE,True,0,0.0014000015653437003,WHITE,True,CORRECT,0.8791239000001951,879.1239000001951
3,20260325_121052,D,J,False,AUTOMATION1,2,30,330,fixed_delta,0.03626602127557052,0.01404684716676857,,,,,0.4803297563255082,1729,1871,1,0.95,WHITE,BLACK,False,0,0.0018999999156221747,BLACK,False,INCORRECT,3.3202608000010514,3320.2608000010514
3,20260325_121052,D,J,False,AUTOMATION1,2,31,331,fixed_delta,0.03626602127557052,0.01404684716676857,,,,,0.5272146933973808,1898,1702,1,0.95,BLACK,BLACK,True,0,0.0015999994502635673,BLACK,True,CORRECT,2.7302975000002334,2730.2975000002334
3,20260325_121052,D,J,False,AUTOMATION1,2,32,332,fixed_delta,0.03626602127557052,0.01404684716676857,,,,,0.4544758833029169,1636,1964,1,0.95,WHITE,WHITE,True,0,0.0013000008038943633,WHITE,True,CORRECT,0.8448281000000861,844.8281000000861
3,20260325_121052,D,J,False,AUTOMATION1,2,33,333,fixed_delta,0.03626602127557052,0.01404684716676857,,,,,0.4689010531486475,1688,1912,1,0.95,WHITE,WHITE,True,0,0.001999998858082108,WHITE,True,CORRECT,1.909663599999476,1909.663599999476
3,20260325_121052,D,J,False,AUTOMATION1,2,34,334,fixed_delta,0.03626602127557052,0.01404684716676857,,,,,0.522815422705563,1882,1718,1,0.95,BLACK,BLACK,True,0,0.0012999989849049598,BLACK,True,CORRECT,0.7930632999996305,793.0632999996305
3,20260325_121052,D,J,False,AUTOMATION1,2,35,335,fixed_delta,0.03626602127557052,0.01404684716676857,,,,,0.4634433988168548,1668,1932,1,0.95,WHITE,WHITE,True,0,0.0015000005078036338,WHITE,True,CORRECT,1.1996402999993734,1199.6402999993734
3,20260325_121052,D,J,False,AUTOMATION1,2,36,336,fixed_delta,0.03626602127557052,0.01404684716676857,,,,,0.47377623738066577,1706,1894,1,0.95,WHITE,WHITE,True,0,0.0020000006770715117,WHITE,True,CORRECT,1.6459850999999617,1645.9850999999617
3,20260325_121052,D,J,False,AUTOMATION1,2,37,337,fixed_delta,0.03626602127557052,0.01404684716676857,,,,,0.47907666627907736,1725,1875,1,0.95,WHITE,WHITE,True,0,0.0012999989849049598,WHITE,True,CORRECT,0.9740194999994856,974.0194999994856
3,20260325_121052,D,J,False,AUTOMATION1,2,38,338,fixed_delta,0.03626602127557052,0.01404684716676857,,,,,0.537069577375538,1933,1667,1,0.95,BLACK,BLACK,True,0,0.0017999991541728377,BLACK,True,CORRECT,1.091863800000283,1091.863800000283
3,20260325_121052,D,J,False,AUTOMATION1,2,39,339,fixed_delta,0.03626602127557052,0.01404684716676857,,,,,0.53375800656284,1922,1678,1,0.95,BLACK,BLACK,True,0,0.0018999999156221747,BLACK,True,CORRECT,1.1349850000005972,1134.9850000005972
3,20260325_121052,D,J,False,AUTOMATION1,2,40,340,fixed_delta,0.03626602127557052,0.01404684716676857,,,,,0.4392221915704425,1581,2019,1,0.95,WHITE,BLACK,False,0,0.00399999953515362,WHITE,True,CORRECT,1.910814599999867,1910.814599999867
3,20260325_121052,D,J,False,AUTOMATION1,2,41,341,fixed_delta,0.03626602127557052,0.01404684716676857,,,,,0.4749158759830482,1710,1890,1,0.95,WHITE,WHITE,True,0,0.0013999997463542968,WHITE,True,CORRECT,1.3778045999988535,1377.8045999988535
3,20260325_121052,D,J,False,AUTOMATION1,2,42,342,fixed_delta,0.03626602127557052,0.01404684716676857,,,,,0.4634239003442827,1668,1932,1,0.95,WHITE,WHITE,True,0,0.0018999999156221747,WHITE,True,CORRECT,3.099343500000032,3099.343500000032
3,20260325_121052,D,J,False,AUTOMATION1,2,43,343,fixed_delta,0.03626602127557052,0.01404684716676857,,,,,0.5383839775224312,1938,1662,1,0.95,BLACK,BLACK,True,0,0.0013000008038943633,BLACK,True,CORRECT,1.1850481999990734,1185.0481999990734
3,20260325_121052,D,J,False,AUTOMATION1,2,44,344,fixed_delta,0.03626602127557052,0.01404684716676857,,,,,0.547633378524654,1971,1629,1,0.95,BLACK,BLACK,True,0,0.0015000005078036338,BLACK,True,CORRECT,0.9220031999993807,922.0031999993807
3,20260325_121052,D,J,False,AUTOMATION1,2,45,345,fixed_delta,0.03626602127557052,0.01404684716676857,,,,,0.453222675224736,1632,1968,1,0.95,WHITE,WHITE,True,0,0.0018999999156221747,WHITE,True,CORRECT,0.9363071999996464,936.3071999996464
3,20260325_121052,D,J,False,AUTOMATION1,2,46,346,fixed_delta,0.03626602127557052,0.01404684716676857,,,,,0.4642959175502162,1671,1929,1,0.95,WHITE,WHITE,True,0,0.0017000002117129043,WHITE,True,CORRECT,1.4534812000001693,1453.4812000001693
3,20260325_121052,D,J,False,AUTOMATION1,2,47,347,fixed_delta,0.03626602127557052,0.01404684716676857,,,,,0.4578287896235866,1648,1952,1,0.95,WHITE,WHITE,True,0,0.0018999999156221747,WHITE,True,CORRECT,1.5594928999998956,1559.4928999998956
3,20260325_121052,D,J,False,AUTOMATION1,2,48,348,fixed_delta,0.03626602127557052,0.01404684716676857,,,,,0.4632401158751451,1668,1932,1,0.95,WHITE,WHITE,True,0,0.0015000005078036338,WHITE,True,CORRECT,2.7638226999988547,2763.8226999988547
3,20260325_121052,D,J,False,AUTOMATION1,2,49,349,fixed_delta,0.03626602127557052,0.01404684716676857,,,,,0.45236950760789874,1629,1971,1,0.95,WHITE,WHITE,True,0,0.0012999989849049598,WHITE,True,CORRECT,1.0708235999991302,1070.8235999991302
3,20260325_121052,D,J,False,AUTOMATION1,2,50,350,fixed_delta,0.03626602127557052,0.01404684716676857,,,,,0.5218153373615564,1879,1721,1,0.95,BLACK,BLACK,True,0,0.0017000002117129043,BLACK,True,CORRECT,0.9808615000001737,980.8615000001737
3,20260325_121052,D,J,False,AUTOMATION1,2,51,351,fixed_delta,0.03626602127557052,0.01404684716676857,,,,,0.5237055187019269,1885,1715,1,0.95,BLACK,BLACK,True,0,0.0020000006770715117,BLACK,True,CORRECT,1.0137818999992305,1013.7818999992305
3,20260325_121052,D,J,False,AUTOMATION1,2,52,352,fixed_delta,0.03626602127557052,0.01404684716676857,,,,,0.4579892674786556,1649,1951,1,0.95,WHITE,WHITE,True,0,0.0015000005078036338,WHITE,True,CORRECT,1.6177102000001469,1617.7102000001469
3,20260325_121052,D,J,False,AUTOMATION1,2,53,353,fixed_delta,0.03626602127557052,0.01404684716676857,,,,,0.4722726846704303,1700,1900,1,0.95,WHITE,WHITE,True,0,0.0020000006770715117,WHITE,True,CORRECT,1.4454404000007344,1445.4404000007344
3,20260325_121052,D,J,False,AUTOMATION1,2,54,354,fixed_delta,0.03626602127557052,0.01404684716676857,,,,,0.5461859051217599,1966,1634,1,0.95,BLACK,BLACK,True,0,0.0015999994502635673,BLACK,True,CORRECT,1.0279418000009173,1027.9418000009173
3,20260325_121052,D,J,False,AUTOMATION1,2,55,355,fixed_delta,0.03626602127557052,0.01404684716676857,,,,,0.532419656872077,1917,1683,1,0.95,BLACK,BLACK,True,0,0.0015999994502635673,BLACK,True,CORRECT,1.425409800000125,1425.409800000125
3,20260325_121052,D,J,False,AUTOMATION1,2,56,356,fixed_delta,0.03626602127557052,0.01404684716676857,,,,,0.5436675691543531,1957,1643,1,0.95,BLACK,BLACK,True,0,0.002099999619531445,BLACK,True,CORRECT,1.2326360999995813,1232.6360999995813
3,20260325_121052,D,J,False,AUTOMATION1,2,57,357,fixed_delta,0.03626602127557052,0.01404684716676857,,,,,0.5394195962433808,1942,1658,1,0.95,BLACK,BLACK,True,0,0.0015000005078036338,BLACK,True,CORRECT,0.9614615999998932,961.4615999998932
3,20260325_121052,D,J,False,AUTOMATION1,2,58,358,fixed_delta,0.03626602127557052,0.01404684716676857,,,,,0.5345166624487263,1924,1676,1,0.95,BLACK,WHITE,False,0,0.0017999991541728377,BLACK,True,CORRECT,4.561889299999166,4561.889299999166
3,20260325_121052,D,J,False,AUTOMATION1,2,59,359,fixed_delta,0.03626602127557052,0.01404684716676857,,,,,0.5447399682210697,1961,1639,1,0.95,BLACK,BLACK,True,0,0.0018999999156221747,BLACK,True,CORRECT,1.042038199999297,1042.038199999297
3,20260325_121052,D,J,False,AUTOMATION1,2,60,360,fixed_delta,0.03626602127557052,0.01404684716676857,,,,,0.5208783884563094,1875,1725,1,0.95,BLACK,BLACK,True,0,0.0015000005078036338,BLACK,True,CORRECT,1.8896905000001425,1889.6905000001425
3,20260325_121052,D,J,False,AUTOMATION1,2,61,361,fixed_delta,0.03626602127557052,0.01404684716676857,,,,,0.49972222222222223,1799,1801,1,0.95,WHITE,WHITE,True,0,0.0018999999156221747,WHITE,True,CORRECT,1.3789182000000437,1378.9182000000437
3,20260325_121052,D,J,False,AUTOMATION1,2,62,362,fixed_delta,0.03626602127557052,0.01404684716676857,,,,,0.5348082746554947,1925,1675,1,0.95,BLACK,BLACK,True,0,0.0018999999156221747,BLACK,True,CORRECT,2.89403129999846,2894.03129999846
3,20260325_121052,D,J,False,AUTOMATION1,2,63,363,fixed_delta,0.03626602127557052,0.01404684716676857,,,,,0.46057026596095885,1658,1942,1,0.95,WHITE,WHITE,True,0,0.0017000002117129043,WHITE,True,CORRECT,1.8591137999992497,1859.1137999992497
3,20260325_121052,D,J,False,AUTOMATION1,2,64,364,fixed_delta,0.03626602127557052,0.01404684716676857,,,,,0.46728181509901723,1682,1918,1,0.95,WHITE,WHITE,True,0,0.0018999999156221747,WHITE,True,CORRECT,1.2738813999985723,1273.8813999985723
3,20260325_121052,D,J,False,AUTOMATION1,2,65,365,fixed_delta,0.03626602127557052,0.01404684716676857,,,,,0.4582613337631197,1650,1950,1,0.95,WHITE,WHITE,True,0,0.0018000009731622413,WHITE,True,CORRECT,1.0169447000007494,1016.9447000007494
3,20260325_121052,D,J,False,AUTOMATION1,2,66,366,fixed_delta,0.03626602127557052,0.01404684716676857,,,,,0.5287488966699615,1903,1697,1,0.95,BLACK,BLACK,True,0,0.0013999997463542968,BLACK,True,CORRECT,1.0446823000002041,1044.6823000002041
3,20260325_121052,D,J,False,AUTOMATION1,2,67,367,fixed_delta,0.03626602127557052,0.01404684716676857,,,,,0.4625319297301361,1665,1935,1,0.95,WHITE,WHITE,True,0,0.0016000012692529708,WHITE,True,CORRECT,0.8634723000013764,863.4723000013764
3,20260325_121052,D,J,False,AUTOMATION1,2,68,368,fixed_delta,0.03626602127557052,0.01404684716676857,,,,,0.45338285807551826,1632,1968,1,0.95,WHITE,WHITE,True,0,0.0012999989849049598,WHITE,True,CORRECT,2.0684687999983,2068.4687999983
3,20260325_121052,D,J,False,AUTOMATION1,2,69,369,fixed_delta,0.03626602127557052,0.01404684716676857,,,,,0.5214915391192313,1877,1723,1,0.95,BLACK,BLACK,True,0,0.0013000008038943633,BLACK,True,CORRECT,0.9866202000011981,986.6202000011981
3,20260325_121052,D,J,False,AUTOMATION1,2,70,370,fixed_delta,0.03626602127557052,0.01404684716676857,,,,,0.44058380604182146,1586,2014,1,0.95,WHITE,WHITE,True,0,0.0015999994502635673,WHITE,True,CORRECT,1.7359326999994664,1735.9326999994664
3,20260325_121052,D,J,False,AUTOMATION1,2,71,371,fixed_delta,0.03626602127557052,0.01404684716676857,,,,,0.5277433496847626,1900,1700,1,0.95,BLACK,BLACK,True,0,0.0017999991541728377,BLACK,True,CORRECT,0.8633879999997589,863.3879999997589
3,20260325_121052,D,J,False,AUTOMATION1,2,72,372,fixed_delta,0.03626602127557052,0.01404684716676857,,,,,0.5430842010795754,1955,1645,1,0.95,BLACK,BLACK,True,0,0.0015000005078036338,BLACK,True,CORRECT,0.7294877000003908,729.4877000003908
3,20260325_121052,D,J,False,AUTOMATION1,2,73,373,fixed_delta,0.03626602127557052,0.01404684716676857,,,,,0.45332184705208095,1632,1968,1,0.95,WHITE,BLACK,False,0,0.0015999994502635673,BLACK,False,INCORRECT,0.755019700000048,755.019700000048
3,20260325_121052,D,J,False,AUTOMATION1,2,74,374,fixed_delta,0.03626602127557052,0.01404684716676857,,,,,0.46661403175799837,1680,1920,1,0.95,WHITE,WHITE,True,0,0.0016000012692529708,WHITE,True,CORRECT,1.2701604000012594,1270.1604000012594
3,20260325_121052,D,J,False,AUTOMATION1,2,75,375,fixed_delta,0.03626602127557052,0.01404684716676857,,,,,0.5449866759895139,1962,1638,1,0.95,BLACK,BLACK,True,0,0.0017000002117129043,BLACK,True,CORRECT,1.5377097000000504,1537.7097000000504
3,20260325_121052,D,J,False,AUTOMATION1,2,76,376,fixed_delta,0.03626602127557052,0.01404684716676857,,,,,0.46656128633201555,1680,1920,1,0.95,WHITE,WHITE,True,0,0.0018999999156221747,WHITE,True,CORRECT,1.0181141000011849,1018.1141000011849
3,20260325_121052,D,J,False,AUTOMATION1,2,77,377,fixed_delta,0.03626602127557052,0.01404684716676857,,,,,0.5392880241671941,1941,1659,1,0.95,BLACK,BLACK,True,0,0.0015999994502635673,BLACK,True,CORRECT,2.691744600000675,2691.744600000675
3,20260325_121052,D,J,False,AUTOMATION1,2,78,378,fixed_delta,0.03626602127557052,0.01404684716676857,,,,,0.5400073056657978,1944,1656,1,0.95,BLACK,BLACK,True,0,0.0013999997463542968,BLACK,True,CORRECT,1.4783932999998797,1478.3932999998797
3,20260325_121052,D,J,False,AUTOMATION1,2,79,379,fixed_delta,0.03626602127557052,0.01404684716676857,,,,,0.4629618729782507,1667,1933,1,0.95,WHITE,BLACK,False,0,0.0014000015653437003,BLACK,False,INCORRECT,2.234201799999937,2234.201799999937
3,20260325_121052,D,J,False,AUTOMATION1,2,80,380,fixed_delta,0.03626602127557052,0.01404684716676857,,,,,0.4745021337191198,1708,1892,1,0.95,WHITE,WHITE,True,0,0.0013999997463542968,WHITE,True,CORRECT,3.2691112000011344,3269.1112000011344
3,20260325_121052,D,J,False,AUTOMATION1,2,81,381,fixed_delta,0.03626602127557052,0.01404684716676857,,,,,0.5302090767036444,1909,1691,1,0.95,BLACK,BLACK,True,0,0.0014999986888142303,BLACK,True,CORRECT,1.055522299999211,1055.522299999211
3,20260325_121052,D,J,False,AUTOMATION1,2,82,382,fixed_delta,0.03626602127557052,0.01404684716676857,,,,,0.5516530965846096,1986,1614,1,0.95,BLACK,BLACK,True,0,0.0018999999156221747,BLACK,True,CORRECT,1.2721799999999348,1272.1799999999348
3,20260325_121052,D,J,False,AUTOMATION1,2,83,383,fixed_delta,0.03626602127557052,0.01404684716676857,,,,,0.4673779853945116,1683,1917,1,0.95,WHITE,WHITE,True,0,0.0017999991541728377,WHITE,True,CORRECT,0.9135716999990109,913.5716999990109
3,20260325_121052,D,J,False,AUTOMATION1,2,84,384,fixed_delta,0.03626602127557052,0.01404684716676857,,,,,0.5373118720141056,1934,1666,1,0.95,BLACK,BLACK,True,0,0.0015000005078036338,BLACK,True,CORRECT,2.3436915000002045,2343.6915000002045
3,20260325_121052,D,J,False,AUTOMATION1,2,85,385,fixed_delta,0.03626602127557052,0.01404684716676857,,,,,0.466675161784513,1680,1920,1,0.95,WHITE,WHITE,True,0,0.0015000005078036338,WHITE,True,CORRECT,1.2154735000003711,1215.4735000003711
3,20260325_121052,D,J,False,AUTOMATION1,2,86,386,fixed_delta,0.03626602127557052,0.01404684716676857,,,,,0.44046278184651527,1586,2014,1,0.95,WHITE,WHITE,True,0,0.0013999997463542968,WHITE,True,CORRECT,2.2231931000005716,2223.1931000005716
3,20260325_121052,D,J,False,AUTOMATION1,2,87,387,fixed_delta,0.03626602127557052,0.01404684716676857,,,,,0.5231583333093812,1883,1717,1,0.95,BLACK,BLACK,True,0,0.0017000002117129043,BLACK,True,CORRECT,1.7034542000001238,1703.4542000001238
3,20260325_121052,D,J,False,AUTOMATION1,2,88,388,fixed_delta,0.03626602127557052,0.01404684716676857,,,,,0.541940881320473,1951,1649,1,0.95,BLACK,BLACK,True,0,0.0017000002117129043,BLACK,True,CORRECT,1.7161426999991818,1716.1426999991818
3,20260325_121052,D,J,False,AUTOMATION1,2,89,389,fixed_delta,0.03626602127557052,0.01404684716676857,,,,,0.46033914516627855,1657,1943,1,0.95,WHITE,WHITE,True,0,0.0013999997463542968,WHITE,True,CORRECT,1.4976351999994222,1497.6351999994222
3,20260325_121052,D,J,False,AUTOMATION1,2,90,390,fixed_delta,0.03626602127557052,0.01404684716676857,,,,,0.5138880217842381,1850,1750,1,0.95,BLACK,BLACK,True,0,0.0020000006770715117,BLACK,True,CORRECT,1.4164848000000347,1416.4848000000347
3,20260325_121052,D,J,False,AUTOMATION1,2,91,391,fixed_delta,0.03626602127557052,0.01404684716676857,,,,,0.4560975573796005,1642,1958,1,0.95,WHITE,WHITE,True,0,0.0017000002117129043,WHITE,True,CORRECT,0.8275513999997202,827.5513999997202
3,20260325_121052,D,J,False,AUTOMATION1,2,92,392,fixed_delta,0.03626602127557052,0.01404684716676857,,,,,0.5418981861761744,1951,1649,1,0.95,BLACK,WHITE,False,0,0.0013999997463542968,BLACK,True,CORRECT,3.0416034999998374,3041.6034999998374
3,20260325_121052,D,J,False,AUTOMATION1,2,93,393,fixed_delta,0.03626602127557052,0.01404684716676857,,,,,0.5483852682016805,1974,1626,1,0.95,BLACK,WHITE,False,0,0.0012999989849049598,BLACK,True,CORRECT,7.387220399999933,7387.220399999933
3,20260325_121052,D,J,False,AUTOMATION1,2,94,394,fixed_delta,0.03626602127557052,0.01404684716676857,,,,,0.45995244345302055,1656,1944,1,0.95,WHITE,WHITE,True,0,0.0016000012692529708,WHITE,True,CORRECT,0.8675053000006301,867.5053000006301
3,20260325_121052,D,J,False,AUTOMATION1,2,95,395,fixed_delta,0.03626602127557052,0.01404684716676857,,,,,0.555688509308911,2000,1600,1,0.95,BLACK,BLACK,True,0,0.0013999997463542968,BLACK,True,CORRECT,0.7732037000005221,773.2037000005221
3,20260325_121052,D,J,False,AUTOMATION1,2,96,396,fixed_delta,0.03626602127557052,0.01404684716676857,,,,,0.4497679755895615,1619,1981,1,0.95,WHITE,WHITE,True,0,0.0017999991541728377,WHITE,True,CORRECT,1.012223300000187,1012.223300000187
3,20260325_121052,D,J,False,AUTOMATION1,2,97,397,fixed_delta,0.03626602127557052,0.01404684716676857,,,,,0.5380670317699616,1937,1663,1,0.95,BLACK,BLACK,True,0,0.0013000008038943633,BLACK,True,CORRECT,0.7506874000009702,750.6874000009702
3,20260325_121052,D,J,False,AUTOMATION1,2,98,398,fixed_delta,0.03626602127557052,0.01404684716676857,,,,,0.5291772355100917,1905,1695,1,0.95,BLACK,BLACK,True,0,0.0013999997463542968,BLACK,True,CORRECT,1.1877127999996446,1187.7127999996446
3,20260325_121052,D,J,False,AUTOMATION1,2,99,399,fixed_delta,0.03626602127557052,0.01404684716676857,,,,,0.5528572040027515,1990,1610,1,0.95,BLACK,BLACK,True,0,0.0015999994502635673,BLACK,True,CORRECT,0.7874350000001868,787.4350000001868
3,20260325_121052,D,J,False,AUTOMATION1,2,100,400,fixed_delta,0.03626602127557052,0.01404684716676857,,,,,0.5046918429143133,1817,1783,1,0.95,BLACK,BLACK,True,0,0.0017000002117129043,BLACK,True,CORRECT,2.6302703999990626,2630.2703999990626
3,20260325_121052,D,J,False,AUTOMATION1,2,101,401,fixed_delta,0.03626602127557052,0.01404684716676857,,,,,0.5170522049275501,1861,1739,1,0.95,BLACK,BLACK,True,0,0.0013999997463542968,WHITE,False,INCORRECT,2.852790899998581,2852.790899998581
3,20260325_121052,D,J,False,AUTOMATION1,2,102,402,fixed_delta,0.03626602127557052,0.01404684716676857,,,,,0.5469532021323542,1969,1631,1,0.95,BLACK,BLACK,True,0,0.0025000008463393897,BLACK,True,CORRECT,3.94824460000018,3948.24460000018
3,20260325_121052,D,J,False,AUTOMATION1,2,103,403,fixed_delta,0.03626602127557052,0.01404684716676857,,,,,0.46415471293279154,1671,1929,1,0.95,WHITE,WHITE,True,0,0.0017999991541728377,WHITE,True,CORRECT,1.1910344999996596,1191.0344999996596
3,20260325_121052,D,J,False,AUTOMATION1,2,104,404,fixed_delta,0.03626602127557052,0.01404684716676857,,,,,0.5491509608896541,1977,1623,1,0.95,BLACK,BLACK,True,0,0.0013999997463542968,BLACK,True,CORRECT,2.113143200000195,2113.143200000195
3,20260325_121052,D,J,False,AUTOMATION1,2,105,405,fixed_delta,0.03626602127557052,0.01404684716676857,,,,,0.5578684716923159,2008,1592,1,0.95,BLACK,BLACK,True,0,0.0017000002117129043,BLACK,True,CORRECT,3.410547999999835,3410.547999999835
3,20260325_121052,D,J,False,AUTOMATION1,2,106,406,fixed_delta,0.03626602127557052,0.01404684716676857,,,,,0.5249058350647581,1890,1710,1,0.95,BLACK,BLACK,True,0,0.0017000002117129043,BLACK,True,CORRECT,2.1098381000010704,2109.8381000010704
3,20260325_121052,D,J,False,AUTOMATION1,2,107,407,fixed_delta,0.03626602127557052,0.01404684716676857,,,,,0.48245212966910944,1737,1863,1,0.95,WHITE,WHITE,True,0,0.0015999994502635673,WHITE,True,CORRECT,1.7141518000007636,1714.1518000007636
3,20260325_121052,D,J,False,AUTOMATION1,2,108,408,fixed_delta,0.03626602127557052,0.01404684716676857,,,,,0.5288314467596925,1904,1696,1,0.95,BLACK,BLACK,True,0,0.0018999999156221747,BLACK,True,CORRECT,1.065400999999838,1065.400999999838
3,20260325_121052,D,J,False,AUTOMATION1,2,109,409,fixed_delta,0.03626602127557052,0.01404684716676857,,,,,0.4494573682914229,1618,1982,1,0.95,WHITE,WHITE,True,0,0.0016000012692529708,WHITE,True,CORRECT,0.7544353000012052,754.4353000012052
3,20260325_121052,D,J,False,AUTOMATION1,2,110,410,fixed_delta,0.03626602127557052,0.01404684716676857,,,,,0.5219665611463568,1879,1721,1,0.95,BLACK,BLACK,True,0,0.0015999994502635673,BLACK,True,CORRECT,1.564136299999518,1564.136299999518
3,20260325_121052,D,J,False,AUTOMATION1,2,111,411,fixed_delta,0.03626602127557052,0.01404684716676857,,,,,0.5353983066525818,1927,1673,1,0.95,BLACK,BLACK,True,0,0.0016000012692529708,BLACK,True,CORRECT,0.9761495000002469,976.1495000002469
3,20260325_121052,D,J,False,AUTOMATION1,2,112,412,fixed_delta,0.03626602127557052,0.01404684716676857,,,,,0.45932112551366394,1654,1946,1,0.95,WHITE,WHITE,True,0,0.0014999986888142303,WHITE,True,CORRECT,0.7594761999989714,759.4761999989714
3,20260325_121052,D,J,False,AUTOMATION1,2,113,413,fixed_delta,0.03626602127557052,0.01404684716676857,,,,,0.519612896802644,1871,1729,1,0.95,BLACK,BLACK,True,0,0.0017999991541728377,BLACK,True,CORRECT,1.028450599998905,1028.450599998905
3,20260325_121052,D,J,False,AUTOMATION1,2,114,414,fixed_delta,0.03626602127557052,0.01404684716676857,,,,,0.4438153248011143,1598,2002,1,0.95,WHITE,WHITE,True,0,0.0016000012692529708,WHITE,True,CORRECT,1.7630253000006633,1763.0253000006633
3,20260325_121052,D,J,False,AUTOMATION1,2,115,415,fixed_delta,0.03626602127557052,0.01404684716676857,,,,,0.5473480055385466,1970,1630,1,0.95,BLACK,BLACK,True,0,0.0013000008038943633,BLACK,True,CORRECT,0.9748656000010669,974.8656000010669
3,20260325_121052,D,J,False,AUTOMATION1,2,116,416,fixed_delta,0.03626602127557052,0.01404684716676857,,,,,0.5302331009134832,1909,1691,1,0.95,BLACK,BLACK,True,0,0.0013999997463542968,BLACK,True,CORRECT,1.6576065000008384,1657.6065000008384
3,20260325_121052,D,J,False,AUTOMATION1,2,117,417,fixed_delta,0.03626602127557052,0.01404684716676857,,,,,0.41827541092880305,1506,2094,1,0.95,WHITE,WHITE,True,0,0.0013999997463542968,WHITE,True,CORRECT,0.710115500000029,710.115500000029
3,20260325_121052,D,J,False,AUTOMATION1,2,118,418,fixed_delta,0.03626602127557052,0.01404684716676857,,,,,0.4619824606381596,1663,1937,1,0.95,WHITE,WHITE,True,0,0.0016000012692529708,WHITE,True,CORRECT,2.357143299999734,2357.143299999734
3,20260325_121052,D,J,False,AUTOMATION1,2,119,419,fixed_delta,0.03626602127557052,0.01404684716676857,,,,,0.5623289696392841,2024,1576,1,0.95,BLACK,BLACK,True,0,0.0017999991541728377,BLACK,True,CORRECT,1.8782852000003913,1878.2852000003913
3,20260325_121052,D,J,False,AUTOMATION1,2,120,420,fixed_delta,0.03626602127557052,0.01404684716676857,,,,,0.46442504701937604,1672,1928,1,0.95,WHITE,WHITE,True,0,0.0014999986888142303,WHITE,True,CORRECT,3.1378637999987404,3137.8637999987404
3,20260325_121052,D,J,False,AUTOMATION1,2,121,421,fixed_delta,0.03626602127557052,0.01404684716676857,,,,,0.4474657977901729,1611,1989,1,0.95,WHITE,WHITE,True,0,0.0016000012692529708,WHITE,True,CORRECT,2.8308630000010453,2830.8630000010453
3,20260325_121052,D,J,False,AUTOMATION1,2,122,422,fixed_delta,0.03626602127557052,0.01404684716676857,,,,,0.4348389577721851,1565,2035,1,0.95,WHITE,WHITE,True,0,0.0015999994502635673,WHITE,True,CORRECT,1.2966141999986576,1296.6141999986576
3,20260325_121052,D,J,False,AUTOMATION1,2,123,423,fixed_delta,0.03626602127557052,0.01404684716676857,,,,,0.5665594936714967,2040,1560,1,0.95,BLACK,BLACK,True,0,0.0015000005078036338,BLACK,True,CORRECT,0.8712985000001936,871.2985000001936
3,20260325_121052,D,J,False,AUTOMATION1,2,124,424,fixed_delta,0.03626602127557052,0.01404684716676857,,,,,0.5251653776007973,1891,1709,1,0.95,BLACK,BLACK,True,0,0.0016000012692529708,BLACK,True,CORRECT,1.6734544000009919,1673.4544000009919
3,20260325_121052,D,J,False,AUTOMATION1,2,125,425,fixed_delta,0.03626602127557052,0.01404684716676857,,,,,0.4650546818076304,1674,1926,1,0.95,WHITE,WHITE,True,0,0.0013999997463542968,WHITE,True,CORRECT,4.415624299999763,4415.624299999763
3,20260325_121052,D,J,False,AUTOMATION1,2,126,426,fixed_delta,0.03626602127557052,0.01404684716676857,,,,,0.44921574000097064,1617,1983,1,0.95,WHITE,WHITE,True,0,0.0013000008038943633,BLACK,False,INCORRECT,5.799925299999813,5799.925299999813
3,20260325_121052,D,J,False,AUTOMATION1,2,127,427,fixed_delta,0.03626602127557052,0.01404684716676857,,,,,0.5402536770015517,1945,1655,1,0.95,BLACK,BLACK,True,0,0.0015999994502635673,BLACK,True,CORRECT,0.9771874999987631,977.1874999987631
3,20260325_121052,D,J,False,AUTOMATION1,2,128,428,fixed_delta,0.03626602127557052,0.01404684716676857,,,,,0.44648630800531597,1607,1993,1,0.95,WHITE,WHITE,True,0,0.0016000012692529708,WHITE,True,CORRECT,4.782982900000206,4782.982900000206
3,20260325_121052,D,J,False,AUTOMATION1,2,129,429,fixed_delta,0.03626602127557052,0.01404684716676857,,,,,0.4759030194674243,1713,1887,1,0.95,WHITE,WHITE,True,0,0.0018000009731622413,WHITE,True,CORRECT,1.058466899999985,1058.466899999985
3,20260325_121052,D,J,False,AUTOMATION1,2,130,430,fixed_delta,0.03626602127557052,0.01404684716676857,,,,,0.5455904689541711,1964,1636,1,0.95,BLACK,BLACK,True,0,0.0017000002117129043,BLACK,True,CORRECT,0.7771451000007801,777.1451000007801
3,20260325_121052,D,J,False,AUTOMATION1,2,131,431,fixed_delta,0.03626602127557052,0.01404684716676857,,,,,0.533050020035792,1919,1681,1,0.95,BLACK,BLACK,True,0,0.0014000015653437003,BLACK,True,CORRECT,0.8448611000003439,844.8611000003439
3,20260325_121052,D,J,False,AUTOMATION1,2,132,432,fixed_delta,0.03626602127557052,0.01404684716676857,,,,,0.45823135897203443,1650,1950,1,0.95,WHITE,WHITE,True,0,0.0015999994502635673,WHITE,True,CORRECT,0.9754603000001225,975.4603000001225
3,20260325_121052,D,J,False,AUTOMATION1,2,133,433,fixed_delta,0.03626602127557052,0.01404684716676857,,,,,0.48013766335379937,1728,1872,1,0.95,WHITE,WHITE,True,0,0.0015999994502635673,WHITE,True,CORRECT,0.8682661999991979,868.2661999991979
3,20260325_121052,D,J,False,AUTOMATION1,2,134,434,fixed_delta,0.03626602127557052,0.01404684716676857,,,,,0.5347685329845243,1925,1675,1,0.95,BLACK,BLACK,True,0,0.0013999997463542968,BLACK,True,CORRECT,0.8244076999999379,824.4076999999379
3,20260325_121052,D,J,False,AUTOMATION1,2,135,435,fixed_delta,0.03626602127557052,0.01404684716676857,,,,,0.5475354476079506,1971,1629,1,0.95,BLACK,BLACK,True,0,0.001999998858082108,BLACK,True,CORRECT,0.8637111999996705,863.7111999996705
3,20260325_121052,D,J,False,AUTOMATION1,2,136,436,fixed_delta,0.03626602127557052,0.01404684716676857,,,,,0.47707311387662577,1717,1883,1,0.95,WHITE,WHITE,True,0,0.0015999994502635673,WHITE,True,CORRECT,1.021087200000693,1021.087200000693
3,20260325_121052,D,J,False,AUTOMATION1,2,137,437,fixed_delta,0.03626602127557052,0.01404684716676857,,,,,0.46910948738750485,1689,1911,1,0.95,WHITE,WHITE,True,0,0.0015000005078036338,WHITE,True,CORRECT,0.5343449000010878,534.3449000010878
3,20260325_121052,D,J,False,AUTOMATION1,2,138,438,fixed_delta,0.03626602127557052,0.01404684716676857,,,,,0.5405642116950897,1946,1654,1,0.95,BLACK,BLACK,True,0,0.0017999991541728377,BLACK,True,CORRECT,0.6842182999989745,684.2182999989745
3,20260325_121052,D,J,False,AUTOMATION1,2,139,439,fixed_delta,0.03626602127557052,0.01404684716676857,,,,,0.45830001772278467,1650,1950,1,0.95,WHITE,WHITE,True,0,0.0012999989849049598,WHITE,True,CORRECT,0.6276366999991296,627.6366999991296
3,20260325_121052,D,J,False,AUTOMATION1,2,140,440,fixed_delta,0.03626602127557052,0.01404684716676857,,,,,0.539320933813298,1942,1658,1,0.95,BLACK,BLACK,True,0,0.0016999983927235007,BLACK,True,CORRECT,0.5455855000000156,545.5855000000156
3,20260325_121052,D,J,False,AUTOMATION1,2,141,441,fixed_delta,0.03626602127557052,0.01404684716676857,,,,,0.47714849358899236,1718,1882,1,0.95,WHITE,WHITE,True,0,0.0015999994502635673,WHITE,True,CORRECT,0.4821764999996958,482.1764999996958
3,20260325_121052,D,J,False,AUTOMATION1,2,142,442,fixed_delta,0.03626602127557052,0.01404684716676857,,,,,0.5476475171220488,1972,1628,1,0.95,BLACK,BLACK,True,0,0.0015999994502635673,BLACK,True,CORRECT,1.8424675999995088,1842.4675999995088
3,20260325_121052,D,J,False,AUTOMATION1,2,143,443,fixed_delta,0.03626602127557052,0.01404684716676857,,,,,0.5474711958664801,1971,1629,1,0.95,BLACK,BLACK,True,0,0.0017000002117129043,BLACK,True,CORRECT,1.1946449000006396,1194.6449000006396
3,20260325_121052,D,J,False,AUTOMATION1,2,144,444,fixed_delta,0.03626602127557052,0.01404684716676857,,,,,0.5321322410469329,1916,1684,1,0.95,BLACK,BLACK,True,0,0.0015999994502635673,BLACK,True,CORRECT,3.3588758000005328,3358.8758000005328
3,20260325_121052,D,J,False,AUTOMATION1,2,145,445,fixed_delta,0.03626602127557052,0.01404684716676857,,,,,0.5209754611058969,1876,1724,1,0.95,BLACK,BLACK,True,0,0.0014999986888142303,WHITE,False,INCORRECT,2.034638899998754,2034.638899998754
3,20260325_121052,D,J,False,AUTOMATION1,2,146,446,fixed_delta,0.03626602127557052,0.01404684716676857,,,,,0.536157104681741,1930,1670,1,0.95,BLACK,BLACK,True,0,0.0013999997463542968,BLACK,True,CORRECT,1.6763379000003624,1676.3379000003624
3,20260325_121052,D,J,False,AUTOMATION1,2,147,447,fixed_delta,0.03626602127557052,0.01404684716676857,,,,,0.44927953568682655,1617,1983,1,0.95,WHITE,WHITE,True,0,0.0017000002117129043,WHITE,True,CORRECT,1.0606377000003704,1060.6377000003704
3,20260325_121052,D,J,False,AUTOMATION1,2,148,448,fixed_delta,0.03626602127557052,0.01404684716676857,,,,,0.5369693309579279,1933,1667,1,0.95,BLACK,BLACK,True,0,0.0018999999156221747,BLACK,True,CORRECT,1.5046763999998802,1504.6763999998802
3,20260325_121052,D,J,False,AUTOMATION1,2,149,449,fixed_delta,0.03626602127557052,0.01404684716676857,,,,,0.513733583801432,1849,1751,1,0.95,BLACK,BLACK,True,0,0.0018000009731622413,BLACK,True,CORRECT,3.1704138000004605,3170.4138000004605
3,20260325_121052,D,J,False,AUTOMATION1,2,150,450,fixed_delta,0.03626602127557052,0.01404684716676857,,,,,0.5506930281250103,1982,1618,1,0.95,BLACK,BLACK,True,0,0.0013999997463542968,BLACK,True,CORRECT,3.6399567000007664,3639.9567000007664
3,20260325_121052,D,J,False,AUTOMATION1,2,151,451,fixed_delta,0.03626602127557052,0.01404684716676857,,,,,0.5323615378356871,1917,1683,1,0.95,BLACK,BLACK,True,0,0.0015999994502635673,BLACK,True,CORRECT,1.8525540999999066,1852.5540999999066
3,20260325_121052,D,J,False,AUTOMATION1,2,152,452,fixed_delta,0.03626602127557052,0.01404684716676857,,,,,0.5209247232323422,1875,1725,1,0.95,BLACK,BLACK,True,0,0.0015000005078036338,BLACK,True,CORRECT,1.508755500000916,1508.755500000916
3,20260325_121052,D,J,False,AUTOMATION1,2,153,453,fixed_delta,0.03626602127557052,0.01404684716676857,,,,,0.48284664215324075,1738,1862,1,0.95,WHITE,WHITE,True,0,0.0017000002117129043,WHITE,True,CORRECT,1.8098893999995198,1809.8893999995198
3,20260325_121052,D,J,False,AUTOMATION1,2,154,454,fixed_delta,0.03626602127557052,0.01404684716676857,,,,,0.5587737088760983,2012,1588,1,0.95,BLACK,BLACK,True,0,0.0015999994502635673,BLACK,True,CORRECT,4.6059991999991325,4605.9991999991325
3,20260325_121052,D,J,False,AUTOMATION1,2,155,455,fixed_delta,0.03626602127557052,0.01404684716676857,,,,,0.4766927855284705,1716,1884,1,0.95,WHITE,WHITE,True,0,0.0017999991541728377,WHITE,True,CORRECT,0.9128897999999026,912.8897999999026
3,20260325_121052,D,J,False,AUTOMATION1,2,156,456,fixed_delta,0.03626602127557052,0.01404684716676857,,,,,0.4769455014595782,1717,1883,1,0.95,WHITE,WHITE,True,0,0.002099999619531445,WHITE,True,CORRECT,1.005884899999728,1005.8848999997281
3,20260325_121052,D,J,False,AUTOMATION1,2,157,457,fixed_delta,0.03626602127557052,0.01404684716676857,,,,,0.5375544724859083,1935,1665,1,0.95,BLACK,BLACK,True,0,0.0017000002117129043,BLACK,True,CORRECT,1.680824199998824,1680.824199998824
3,20260325_121052,D,J,False,AUTOMATION1,2,158,458,fixed_delta,0.03626602127557052,0.01404684716676857,,,,,0.5307721252481942,1911,1689,1,0.95,BLACK,BLACK,True,0,0.0017000002117129043,BLACK,True,CORRECT,1.7007294000013644,1700.7294000013644
3,20260325_121052,D,J,False,AUTOMATION1,2,159,459,fixed_delta,0.03626602127557052,0.01404684716676857,,,,,0.47686442643812915,1717,1883,1,0.95,WHITE,WHITE,True,0,0.0013999997463542968,WHITE,True,CORRECT,0.8310660999995889,831.0660999995889
3,20260325_121052,D,J,False,AUTOMATION1,2,160,460,fixed_delta,0.03626602127557052,0.01404684716676857,,,,,0.4682498887267792,1686,1914,1,0.95,WHITE,WHITE,True,0,0.0016000012692529708,WHITE,True,CORRECT,0.8673266000005242,867.3266000005242
3,20260325_121052,D,J,False,AUTOMATION1,2,161,461,fixed_delta,0.03626602127557052,0.01404684716676857,,,,,0.4392870863731172,1581,2019,1,0.95,WHITE,WHITE,True,0,0.0015999994502635673,WHITE,True,CORRECT,0.8318660999993881,831.8660999993881
3,20260325_121052,D,J,False,AUTOMATION1,2,162,462,fixed_delta,0.03626602127557052,0.01404684716676857,,,,,0.46045691145046713,1658,1942,1,0.95,WHITE,BLACK,False,0,0.0013999997463542968,BLACK,False,INCORRECT,0.7458392999997159,745.8392999997159
3,20260325_121052,D,J,False,AUTOMATION1,2,163,463,fixed_delta,0.03626602127557052,0.01404684716676857,,,,,0.45810138711327436,1649,1951,1,0.95,WHITE,WHITE,True,0,0.0015000005078036338,WHITE,True,CORRECT,0.8821129000007204,882.1129000007204
3,20260325_121052,D,J,False,AUTOMATION1,2,164,464,fixed_delta,0.03626602127557052,0.01404684716676857,,,,,0.551006421572641,1984,1616,1,0.95,BLACK,BLACK,True,0,0.0013999997463542968,BLACK,True,CORRECT,7.011963200000537,7011.963200000537
3,20260325_121052,D,J,False,AUTOMATION1,2,165,465,fixed_delta,0.03626602127557052,0.01404684716676857,,,,,0.45430154501873016,1635,1965,1,0.95,WHITE,WHITE,True,0,0.0012999989849049598,WHITE,True,CORRECT,1.8405595999993238,1840.5595999993238
3,20260325_121052,D,J,False,AUTOMATION1,2,166,466,fixed_delta,0.03626602127557052,0.01404684716676857,,,,,0.5424008065219068,1953,1647,1,0.95,BLACK,BLACK,True,0,0.0015999994502635673,BLACK,True,CORRECT,2.806296699998711,2806.296699998711
3,20260325_121052,D,J,False,AUTOMATION1,2,167,467,fixed_delta,0.03626602127557052,0.01404684716676857,,,,,0.5346319412787561,1925,1675,1,0.95,BLACK,BLACK,True,0,0.0015999994502635673,BLACK,True,CORRECT,0.7977680999993026,797.7680999993026
3,20260325_121052,D,J,False,AUTOMATION1,2,168,468,fixed_delta,0.03626602127557052,0.01404684716676857,,,,,0.44008569811522225,1584,2016,1,0.95,WHITE,WHITE,True,0,0.0015999994502635673,WHITE,True,CORRECT,0.6396201999996265,639.6201999996265
3,20260325_121052,D,J,False,AUTOMATION1,2,169,469,fixed_delta,0.03626602127557052,0.01404684716676857,,,,,0.5233176182195347,1884,1716,1,0.95,BLACK,BLACK,True,0,0.0015000005078036338,BLACK,True,CORRECT,1.0330893000009382,1033.0893000009382
3,20260325_121052,D,J,False,AUTOMATION1,2,170,470,fixed_delta,0.03626602127557052,0.01404684716676857,,,,,0.43229651913232625,1556,2044,1,0.95,WHITE,WHITE,True,0,0.0014999986888142303,WHITE,True,CORRECT,1.2435418999994,1243.5418999994
3,20260325_121052,D,J,False,AUTOMATION1,2,171,471,fixed_delta,0.03626602127557052,0.01404684716676857,,,,,0.5294089964095285,1906,1694,1,0.95,BLACK,BLACK,True,0,0.0015000005078036338,BLACK,True,CORRECT,2.359040900000764,2359.040900000764
3,20260325_121052,D,J,False,AUTOMATION1,2,172,472,fixed_delta,0.03626602127557052,0.01404684716676857,,,,,0.4786734750691535,1723,1877,1,0.95,WHITE,WHITE,True,0,0.0017000002117129043,WHITE,True,CORRECT,3.4588256000006368,3458.8256000006368
3,20260325_121052,D,J,False,AUTOMATION1,2,173,473,fixed_delta,0.03626602127557052,0.01404684716676857,,,,,0.4660551195075019,1678,1922,1,0.95,WHITE,WHITE,True,0,0.0013999997463542968,WHITE,True,CORRECT,1.3194942999998602,1319.4942999998602
3,20260325_121052,D,J,False,AUTOMATION1,2,174,474,fixed_delta,0.03626602127557052,0.01404684716676857,,,,,0.44221272421666363,1592,2008,1,0.95,WHITE,BLACK,False,0,0.0014999986888142303,WHITE,True,CORRECT,3.6342028999988543,3634.2028999988543
3,20260325_121052,D,J,False,AUTOMATION1,2,175,475,fixed_delta,0.03626602127557052,0.01404684716676857,,,,,0.5326146579388359,1917,1683,1,0.95,BLACK,BLACK,True,0,0.0018999999156221747,BLACK,True,CORRECT,3.887635400000363,3887.635400000363
3,20260325_121052,D,J,False,AUTOMATION1,2,176,476,fixed_delta,0.03626602127557052,0.01404684716676857,,,,,0.44814895274261657,1613,1987,1,0.95,WHITE,WHITE,True,0,0.0017000002117129043,WHITE,True,CORRECT,2.507213099999717,2507.213099999717
3,20260325_121052,D,J,False,AUTOMATION1,2,177,477,fixed_delta,0.03626602127557052,0.01404684716676857,,,,,0.46885469661850665,1688,1912,1,0.95,WHITE,WHITE,True,0,0.0013999997463542968,WHITE,True,CORRECT,2.2900879999997414,2290.0879999997414
3,20260325_121052,D,J,False,AUTOMATION1,2,178,478,fixed_delta,0.03626602127557052,0.01404684716676857,,,,,0.4589386473531496,1652,1948,1,0.95,WHITE,WHITE,True,0,0.0015999994502635673,WHITE,True,CORRECT,9.184821199998623,9184.821199998623
3,20260325_121052,D,J,False,AUTOMATION1,2,179,479,fixed_delta,0.03626602127557052,0.01404684716676857,,,,,0.5478005089855431,1972,1628,1,0.95,BLACK,BLACK,True,0,0.002099999619531445,BLACK,True,CORRECT,0.9136137000004965,913.6137000004965
3,20260325_121052,D,J,False,AUTOMATION1,2,180,480,fixed_delta,0.03626602127557052,0.01404684716676857,,,,,0.5467906377128388,1968,1632,1,0.95,BLACK,BLACK,True,0,0.0012999989849049598,BLACK,True,CORRECT,0.9581206000002567,958.1206000002567
3,20260325_121052,D,J,False,AUTOMATION1,2,181,481,fixed_delta,0.03626602127557052,0.01404684716676857,,,,,0.5411297903487334,1948,1652,1,0.95,BLACK,BLACK,True,0,0.0017000002117129043,BLACK,True,CORRECT,0.6937176000010368,693.7176000010368
3,20260325_121052,D,J,False,AUTOMATION1,2,182,482,fixed_delta,0.03626602127557052,0.01404684716676857,,,,,0.46069193815048565,1658,1942,1,0.95,WHITE,WHITE,True,0,0.0018999999156221747,WHITE,True,CORRECT,1.1893626999990374,1189.3626999990374
3,20260325_121052,D,J,False,AUTOMATION1,2,183,483,fixed_delta,0.03626602127557052,0.01404684716676857,,,,,0.47739399166335816,1719,1881,1,0.95,WHITE,WHITE,True,0,0.0015000005078036338,WHITE,True,CORRECT,0.9889215000002878,988.9215000002878
3,20260325_121052,D,J,False,AUTOMATION1,2,184,484,fixed_delta,0.03626602127557052,0.01404684716676857,,,,,0.5366454164217958,1932,1668,1,0.95,BLACK,BLACK,True,0,0.0015999994502635673,BLACK,True,CORRECT,1.2119808999996167,1211.9808999996167
3,20260325_121052,D,J,False,AUTOMATION1,2,185,485,fixed_delta,0.03626602127557052,0.01404684716676857,,,,,0.5180635428145433,1865,1735,1,0.95,BLACK,BLACK,True,0,0.0017000002117129043,BLACK,True,CORRECT,0.7897826000007626,789.7826000007626
3,20260325_121052,D,J,False,AUTOMATION1,2,186,486,fixed_delta,0.03626602127557052,0.01404684716676857,,,,,0.5336691401802002,1921,1679,1,0.95,BLACK,BLACK,True,0,0.0013999997463542968,BLACK,True,CORRECT,1.0304973000002065,1030.4973000002065
3,20260325_121052,D,J,False,AUTOMATION1,2,187,487,fixed_delta,0.03626602127557052,0.01404684716676857,,,,,0.44854232319747006,1615,1985,1,0.95,WHITE,WHITE,True,0,0.0014000015653437003,WHITE,True,CORRECT,0.8569733000003907,856.9733000003907
3,20260325_121052,D,J,False,AUTOMATION1,2,188,488,fixed_delta,0.03626602127557052,0.01404684716676857,,,,,0.5361940040999503,1930,1670,1,0.95,BLACK,BLACK,True,0,0.0018000009731622413,BLACK,True,CORRECT,0.665075999999317,665.075999999317
3,20260325_121052,D,J,False,AUTOMATION1,2,189,489,fixed_delta,0.03626602127557052,0.01404684716676857,,,,,0.551872956772521,1987,1613,1,0.95,BLACK,BLACK,True,0,0.0017000002117129043,BLACK,True,CORRECT,0.9126033000011375,912.6033000011375
3,20260325_121052,D,J,False,AUTOMATION1,2,190,490,fixed_delta,0.03626602127557052,0.01404684716676857,,,,,0.5461072085839068,1966,1634,1,0.95,BLACK,BLACK,True,0,0.0016000012692529708,BLACK,True,CORRECT,3.9004203000004054,3900.4203000004054
3,20260325_121052,D,J,False,AUTOMATION1,2,191,491,fixed_delta,0.03626602127557052,0.01404684716676857,,,,,0.4623869870924985,1665,1935,1,0.95,WHITE,WHITE,True,0,0.0016000012692529708,WHITE,True,CORRECT,1.0180622000007133,1018.0622000007133
3,20260325_121052,D,J,False,AUTOMATION1,2,192,492,fixed_delta,0.03626602127557052,0.01404684716676857,,,,,0.5251458984054337,1891,1709,1,0.95,BLACK,BLACK,True,0,0.0015999994502635673,BLACK,True,CORRECT,2.446420300000682,2446.420300000682
3,20260325_121052,D,J,False,AUTOMATION1,2,193,493,fixed_delta,0.03626602127557052,0.01404684716676857,,,,,0.5552041238682087,1999,1601,1,0.95,BLACK,BLACK,True,0,0.0015999994502635673,BLACK,True,CORRECT,0.7943368999985978,794.3368999985978
3,20260325_121052,D,J,False,AUTOMATION1,2,194,494,fixed_delta,0.03626602127557052,0.01404684716676857,,,,,0.5549226702632262,1998,1602,1,0.95,BLACK,BLACK,True,0,0.0013999997463542968,BLACK,True,CORRECT,0.8582811999986006,858.2811999986006
3,20260325_121052,D,J,False,AUTOMATION1,2,195,495,fixed_delta,0.03626602127557052,0.01404684716676857,,,,,0.4665225309812564,1679,1921,1,0.95,WHITE,WHITE,True,0,0.0015999994502635673,WHITE,True,CORRECT,1.026558899999145,1026.558899999145
3,20260325_121052,D,J,False,AUTOMATION1,2,196,496,fixed_delta,0.03626602127557052,0.01404684716676857,,,,,0.5193348515742381,1870,1730,1,0.95,BLACK,BLACK,True,0,0.0015999994502635673,BLACK,True,CORRECT,2.098076799999035,2098.076799999035
3,20260325_121052,D,J,False,AUTOMATION1,2,197,497,fixed_delta,0.03626602127557052,0.01404684716676857,,,,,0.517508335600988,1863,1737,1,0.95,BLACK,BLACK,True,0,0.0015000005078036338,BLACK,True,CORRECT,1.5382886999996117,1538.2886999996117
3,20260325_121052,D,J,False,AUTOMATION1,2,198,498,fixed_delta,0.03626602127557052,0.01404684716676857,,,,,0.4576450827414359,1648,1952,1,0.95,WHITE,WHITE,True,0,0.0017000002117129043,WHITE,True,CORRECT,1.18668660000003,1186.68660000003
3,20260325_121052,D,J,False,AUTOMATION1,2,199,499,fixed_delta,0.03626602127557052,0.01404684716676857,,,,,0.5333105003406432,1920,1680,1,0.95,BLACK,BLACK,True,0,0.0017000002117129043,BLACK,True,CORRECT,1.2329539000002114,1232.9539000002114
3,20260325_121052,D,J,False,AUTOMATION1,2,200,500,fixed_delta,0.03626602127557052,0.01404684716676857,,,,,0.5502223591098362,1981,1619,1,0.95,BLACK,BLACK,True,0,0.0015999994502635673,BLACK,True,CORRECT,1.0018247999996674,1001.8247999996674
3,20260325_121052,D,J,False,AUTOMATION1,2,201,501,fixed_delta,0.03626602127557052,0.01404684716676857,,,,,0.45424766441460884,1635,1965,1,0.95,WHITE,WHITE,True,0,0.0013999997463542968,WHITE,True,CORRECT,0.7842791999992187,784.2791999992187
3,20260325_121052,D,J,False,AUTOMATION1,2,202,502,fixed_delta,0.03626602127557052,0.01404684716676857,,,,,0.5221045567836431,1880,1720,1,0.95,BLACK,BLACK,True,0,0.0015999994502635673,BLACK,True,CORRECT,1.0627743000004557,1062.7743000004557
3,20260325_121052,D,J,False,AUTOMATION1,2,203,503,fixed_delta,0.03626602127557052,0.01404684716676857,,,,,0.5320658513679442,1915,1685,1,0.95,BLACK,BLACK,True,0,0.0014999986888142303,BLACK,True,CORRECT,1.5944428000002517,1594.4428000002517
3,20260325_121052,D,J,False,AUTOMATION1,2,204,504,fixed_delta,0.03626602127557052,0.01404684716676857,,,,,0.4887042761775346,1759,1841,1,0.95,WHITE,WHITE,True,0,0.0015999994502635673,WHITE,True,CORRECT,1.7026312999987567,1702.6312999987567
3,20260325_121052,D,J,False,AUTOMATION1,2,205,505,fixed_delta,0.03626602127557052,0.01404684716676857,,,,,0.5394221843219329,1942,1658,1,0.95,BLACK,BLACK,True,0,0.0014999986888142303,BLACK,True,CORRECT,3.2406539999992674,3240.6539999992674
3,20260325_121052,D,J,False,AUTOMATION1,2,206,506,fixed_delta,0.03626602127557052,0.01404684716676857,,,,,0.5172147849563852,1862,1738,1,0.95,BLACK,BLACK,True,0,0.0016000012692529708,BLACK,True,CORRECT,3.603495800000019,3603.495800000019
3,20260325_121052,D,J,False,AUTOMATION1,2,207,507,fixed_delta,0.03626602127557052,0.01404684716676857,,,,,0.46249821400580166,1665,1935,1,0.95,WHITE,WHITE,True,0,0.0015000005078036338,WHITE,True,CORRECT,1.0883711999995285,1088.3711999995285
3,20260325_121052,D,J,False,AUTOMATION1,2,208,508,fixed_delta,0.03626602127557052,0.01404684716676857,,,,,0.4614366597080176,1661,1939,1,0.95,WHITE,WHITE,True,0,0.0014999986888142303,WHITE,True,CORRECT,1.3313929999985703,1331.3929999985703
3,20260325_121052,D,J,False,AUTOMATION1,2,209,509,fixed_delta,0.03626602127557052,0.01404684716676857,,,,,0.4513542250323098,1625,1975,1,0.95,WHITE,WHITE,True,0,0.0015999994502635673,WHITE,True,CORRECT,5.09260919999906,5092.60919999906
3,20260325_121052,D,J,False,AUTOMATION1,2,210,510,fixed_delta,0.03626602127557052,0.01404684716676857,,,,,0.4784709193933453,1722,1878,1,0.95,WHITE,WHITE,True,0,0.0013999997463542968,BLACK,False,INCORRECT,7.380446799999845,7380.446799999845
3,20260325_121052,D,J,False,AUTOMATION1,2,211,511,fixed_delta,0.03626602127557052,0.01404684716676857,,,,,0.5552373620316345,1999,1601,1,0.95,BLACK,BLACK,True,0,0.0015999994502635673,BLACK,True,CORRECT,1.2724679000002652,1272.4679000002652
3,20260325_121052,D,J,False,AUTOMATION1,2,212,512,fixed_delta,0.03626602127557052,0.01404684716676857,,,,,0.5455382263320857,1964,1636,1,0.95,BLACK,BLACK,True,0,0.0015000005078036338,BLACK,True,CORRECT,0.6699217000004865,669.9217000004865
3,20260325_121052,D,J,False,AUTOMATION1,2,213,513,fixed_delta,0.03626602127557052,0.01404684716676857,,,,,0.45643942030199236,1643,1957,1,0.95,WHITE,WHITE,True,0,0.0013999997463542968,WHITE,True,CORRECT,1.5210982999997213,1521.0982999997213
3,20260325_121052,D,J,False,AUTOMATION1,2,214,514,fixed_delta,0.03626602127557052,0.01404684716676857,,,,,0.4649003826777912,1674,1926,1,0.95,WHITE,WHITE,True,0,0.0015999994502635673,WHITE,True,CORRECT,1.6893448999999237,1689.3448999999237
3,20260325_121052,D,J,False,AUTOMATION1,2,215,515,fixed_delta,0.03626602127557052,0.01404684716676857,,,,,0.4674082740511131,1683,1917,1,0.95,WHITE,WHITE,True,0,0.0015999994502635673,WHITE,True,CORRECT,0.9889246999991883,988.9246999991883
3,20260325_121052,D,J,False,AUTOMATION1,2,216,516,fixed_delta,0.03626602127557052,0.01404684716676857,,,,,0.5053434013925289,1819,1781,1,0.95,BLACK,BLACK,True,0,0.0020000006770715117,BLACK,True,CORRECT,1.8622400000003836,1862.2400000003836
3,20260325_121052,D,J,False,AUTOMATION1,2,217,517,fixed_delta,0.03626602127557052,0.01404684716676857,,,,,0.5541713689640679,1995,1605,1,0.95,BLACK,BLACK,True,0,0.0015999994502635673,BLACK,True,CORRECT,0.8152766000002885,815.2766000002885
3,20260325_121052,D,J,False,AUTOMATION1,2,218,518,fixed_delta,0.03626602127557052,0.01404684716676857,,,,,0.45049383496318873,1622,1978,1,0.95,WHITE,WHITE,True,0,0.0015000005078036338,WHITE,True,CORRECT,1.1070423000001028,1107.0423000001028
3,20260325_121052,D,J,False,AUTOMATION1,2,219,519,fixed_delta,0.03626602127557052,0.01404684716676857,,,,,0.4798436186109807,1727,1873,1,0.95,WHITE,WHITE,True,0,0.0015000005078036338,WHITE,True,CORRECT,2.3565869000012754,2356.5869000012754
3,20260325_121052,D,J,False,AUTOMATION1,2,220,520,fixed_delta,0.03626602127557052,0.01404684716676857,,,,,0.48772958616554785,1756,1844,1,0.95,WHITE,WHITE,True,0,0.0015999994502635673,WHITE,True,CORRECT,0.8917913999994198,891.7913999994198
3,20260325_121052,D,J,False,AUTOMATION1,2,221,521,fixed_delta,0.03626602127557052,0.01404684716676857,,,,,0.5240816685179489,1887,1713,1,0.95,BLACK,BLACK,True,0,0.0017000002117129043,BLACK,True,CORRECT,0.9477068000014697,947.7068000014697
3,20260325_121052,D,J,False,AUTOMATION1,2,222,522,fixed_delta,0.03626602127557052,0.01404684716676857,,,,,0.43698908576890433,1573,2027,1,0.95,WHITE,WHITE,True,0,0.0017000002117129043,WHITE,True,CORRECT,0.9556995000002644,955.6995000002644
3,20260325_121052,D,J,False,AUTOMATION1,2,223,523,fixed_delta,0.03626602127557052,0.01404684716676857,,,,,0.45168965202154604,1626,1974,1,0.95,WHITE,WHITE,True,0,0.0018999999156221747,WHITE,True,CORRECT,3.13318469999831,3133.18469999831
3,20260325_121052,D,J,False,AUTOMATION1,2,224,524,fixed_delta,0.03626602127557052,0.01404684716676857,,,,,0.4507451006427452,1623,1977,1,0.95,WHITE,WHITE,True,0,0.002099999619531445,WHITE,True,CORRECT,0.9423354999998992,942.3354999998992
3,20260325_121052,D,J,False,AUTOMATION1,2,225,525,fixed_delta,0.03626602127557052,0.01404684716676857,,,,,0.43052909192806627,1550,2050,1,0.95,WHITE,WHITE,True,0,0.0016000012692529708,WHITE,True,CORRECT,1.6592651000009937,1659.2651000009937
3,20260325_121052,D,J,False,AUTOMATION1,2,226,526,fixed_delta,0.03626602127557052,0.01404684716676857,,,,,0.5721948310453481,2060,1540,1,0.95,BLACK,WHITE,False,0,0.0018000009731622413,WHITE,False,INCORRECT,1.0769226000011258,1076.9226000011258
3,20260325_121052,D,J,False,AUTOMATION1,2,227,527,fixed_delta,0.03626602127557052,0.01404684716676857,,,,,0.46110099032565505,1660,1940,1,0.95,WHITE,WHITE,True,0,0.0015000005078036338,WHITE,True,CORRECT,2.498261500000808,2498.261500000808
3,20260325_121052,D,J,False,AUTOMATION1,2,228,528,fixed_delta,0.03626602127557052,0.01404684716676857,,,,,0.4782941182506163,1722,1878,1,0.95,WHITE,WHITE,True,0,0.0015000005078036338,WHITE,True,CORRECT,2.301608199999464,2301.608199999464
3,20260325_121052,D,J,False,AUTOMATION1,2,229,529,fixed_delta,0.03626602127557052,0.01404684716676857,,,,,0.5219485113091176,1879,1721,1,0.95,BLACK,BLACK,True,0,0.0017000002117129043,BLACK,True,CORRECT,0.8129755000009027,812.9755000009027
3,20260325_121052,D,J,False,AUTOMATION1,2,230,530,fixed_delta,0.03626602127557052,0.01404684716676857,,,,,0.5134014343745279,1848,1752,1,0.95,BLACK,BLACK,True,0,0.0018000009731622413,BLACK,True,CORRECT,2.683646500001487,2683.646500001487
3,20260325_121052,D,J,False,AUTOMATION1,2,231,531,fixed_delta,0.03626602127557052,0.01404684716676857,,,,,0.4526684414922092,1630,1970,1,0.95,WHITE,WHITE,True,0,0.0017000002117129043,WHITE,True,CORRECT,1.2271452000004501,1227.1452000004501
3,20260325_121052,D,J,False,AUTOMATION1,2,232,532,fixed_delta,0.03626602127557052,0.01404684716676857,,,,,0.4424115039390987,1593,2007,1,0.95,WHITE,WHITE,True,0,0.0015000005078036338,WHITE,True,CORRECT,0.8280009999998583,828.0009999998583
3,20260325_121052,D,J,False,AUTOMATION1,2,233,533,fixed_delta,0.03626602127557052,0.01404684716676857,,,,,0.4705958264983078,1694,1906,1,0.95,WHITE,WHITE,True,0,0.0012999989849049598,WHITE,True,CORRECT,1.8288201999985176,1828.8201999985176
3,20260325_121052,D,J,False,AUTOMATION1,2,234,534,fixed_delta,0.03626602127557052,0.01404684716676857,,,,,0.446355180455579,1607,1993,1,0.95,WHITE,WHITE,True,0,0.0015999994502635673,WHITE,True,CORRECT,1.1546261999992566,1154.6261999992566
3,20260325_121052,D,J,False,AUTOMATION1,2,235,535,fixed_delta,0.03626602127557052,0.01404684716676857,,,,,0.47219140665651965,1700,1900,1,0.95,WHITE,WHITE,True,0,0.0015999994502635673,WHITE,True,CORRECT,1.2970702000002348,1297.0702000002348
3,20260325_121052,D,J,False,AUTOMATION1,2,236,536,fixed_delta,0.03626602127557052,0.01404684716676857,,,,,0.4470362760312791,1609,1991,1,0.95,WHITE,WHITE,True,0,0.0024000000848900527,WHITE,True,CORRECT,3.030803100000412,3030.803100000412
3,20260325_121052,D,J,False,AUTOMATION1,2,237,537,fixed_delta,0.03626602127557052,0.01404684716676857,,,,,0.4452927772823896,1603,1997,1,0.95,WHITE,WHITE,True,0,0.0015000005078036338,WHITE,True,CORRECT,3.450114500001291,3450.114500001291
3,20260325_121052,D,J,False,AUTOMATION1,2,238,538,fixed_delta,0.03626602127557052,0.01404684716676857,,,,,0.5364923814909337,1931,1669,1,0.95,BLACK,BLACK,True,0,0.0015999994502635673,BLACK,True,CORRECT,1.8662614000004396,1866.2614000004396
3,20260325_121052,D,J,False,AUTOMATION1,2,239,539,fixed_delta,0.03626602127557052,0.01404684716676857,,,,,0.4639648625415134,1670,1930,1,0.95,WHITE,WHITE,True,0,0.0020000006770715117,WHITE,True,CORRECT,1.0775114000007306,1077.5114000007306
3,20260325_121052,D,J,False,AUTOMATION1,2,240,540,fixed_delta,0.03626602127557052,0.01404684716676857,,,,,0.5260875830572194,1894,1706,1,0.95,BLACK,BLACK,True,0,0.0017000002117129043,WHITE,False,INCORRECT,7.542935299999954,7542.935299999954
3,20260325_121052,D,J,False,AUTOMATION1,2,241,541,fixed_delta,0.03626602127557052,0.01404684716676857,,,,,0.43975107563631355,1583,2017,1,0.95,WHITE,WHITE,True,0,0.0013999997463542968,WHITE,True,CORRECT,1.7543270999995002,1754.3270999995002
3,20260325_121052,D,J,False,AUTOMATION1,2,242,542,fixed_delta,0.03626602127557052,0.01404684716676857,,,,,0.4642335523420316,1671,1929,1,0.95,WHITE,WHITE,True,0,0.0016000012692529708,WHITE,True,CORRECT,1.7108535000006668,1710.8535000006668
3,20260325_121052,D,J,False,AUTOMATION1,2,243,543,fixed_delta,0.03626602127557052,0.01404684716676857,,,,,0.49839948043887305,1794,1806,1,0.95,WHITE,WHITE,True,0,0.0013999997463542968,WHITE,True,CORRECT,3.300449700000172,3300.449700000172
3,20260325_121052,D,J,False,AUTOMATION1,2,244,544,fixed_delta,0.03626602127557052,0.01404684716676857,,,,,0.44875832795184456,1616,1984,1,0.95,WHITE,WHITE,True,0,0.0012999989849049598,WHITE,True,CORRECT,1.7269999999989523,1726.9999999989523
3,20260325_121052,D,J,False,AUTOMATION1,2,245,545,fixed_delta,0.03626602127557052,0.01404684716676857,,,,,0.4849172205108858,1746,1854,1,0.95,WHITE,WHITE,True,0,0.0021000014385208488,WHITE,True,CORRECT,2.447563200001241,2447.563200001241
3,20260325_121052,D,J,False,AUTOMATION1,2,246,546,fixed_delta,0.03626602127557052,0.01404684716676857,,,,,0.5379291315965091,1937,1663,1,0.95,BLACK,BLACK,True,0,0.0015999994502635673,BLACK,True,CORRECT,1.7467015999991418,1746.7015999991418
3,20260325_121052,D,J,False,AUTOMATION1,2,247,547,fixed_delta,0.03626602127557052,0.01404684716676857,,,,,0.45449899467330823,1636,1964,1,0.95,WHITE,WHITE,True,0,0.0017999991541728377,WHITE,True,CORRECT,0.7437802000004012,743.7802000004012
3,20260325_121052,D,J,False,AUTOMATION1,2,248,548,fixed_delta,0.03626602127557052,0.01404684716676857,,,,,0.5095962614497642,1835,1765,1,0.95,BLACK,BLACK,True,0,0.0018999999156221747,BLACK,True,CORRECT,1.2029094999998051,1202.9094999998051
3,20260325_121052,D,J,False,AUTOMATION1,2,249,549,fixed_delta,0.03626602127557052,0.01404684716676857,,,,,0.5381657600817917,1937,1663,1,0.95,BLACK,BLACK,True,0,0.0015000005078036338,BLACK,True,CORRECT,0.671399200000451,671.399200000451
3,20260325_121052,D,J,False,AUTOMATION1,2,250,550,fixed_delta,0.03626602127557052,0.01404684716676857,,,,,0.4485878353217434,1615,1985,1,0.95,WHITE,WHITE,True,0,0.0015999994502635673,WHITE,True,CORRECT,0.7198434000001726,719.8434000001726
3,20260325_121052,D,J,False,AUTOMATION1,2,251,551,fixed_delta,0.03626602127557052,0.01404684716676857,,,,,0.5238224862422358,1886,1714,1,0.95,BLACK,BLACK,True,0,0.0012999989849049598,BLACK,True,CORRECT,1.4830431999998837,1483.0431999998837
3,20260325_121052,D,J,False,AUTOMATION1,2,252,552,fixed_delta,0.03626602127557052,0.01404684716676857,,,,,0.48457740476852307,1744,1856,1,0.95,WHITE,WHITE,True,0,0.001999998858082108,WHITE,True,CORRECT,2.8873082999998587,2887.3082999998587
3,20260325_121052,D,J,False,AUTOMATION1,2,253,553,fixed_delta,0.03626602127557052,0.01404684716676857,,,,,0.5461425273842723,1966,1634,1,0.95,BLACK,BLACK,True,0,0.0014000015653437003,BLACK,True,CORRECT,2.5175353000013274,2517.5353000013274
3,20260325_121052,D,J,False,AUTOMATION1,2,254,554,fixed_delta,0.03626602127557052,0.01404684716676857,,,,,0.5138890741291182,1850,1750,1,0.95,BLACK,BLACK,True,0,0.0013999997463542968,BLACK,True,CORRECT,3.1650494999994407,3165.0494999994407
3,20260325_121052,D,J,False,AUTOMATION1,2,255,555,fixed_delta,0.03626602127557052,0.01404684716676857,,,,,0.45564955047718025,1640,1960,1,0.95,WHITE,WHITE,True,0,0.0014999986888142303,WHITE,True,CORRECT,0.6557828999993944,655.7828999993944
3,20260325_121052,D,J,False,AUTOMATION1,2,256,556,fixed_delta,0.03626602127557052,0.01404684716676857,,,,,0.4735430065399565,1705,1895,1,0.95,WHITE,WHITE,True,0,0.0017000002117129043,WHITE,True,CORRECT,0.7919856000007712,791.9856000007712
3,20260325_121052,D,J,False,AUTOMATION1,2,257,557,fixed_delta,0.03626602127557052,0.01404684716676857,,,,,0.5398185866479231,1943,1657,1,0.95,BLACK,BLACK,True,0,0.0013000008038943633,BLACK,True,CORRECT,1.1353061999998317,1135.3061999998317
3,20260325_121052,D,J,False,AUTOMATION1,2,258,558,fixed_delta,0.03626602127557052,0.01404684716676857,,,,,0.5368385844247116,1933,1667,1,0.95,BLACK,BLACK,True,0,0.0018999999156221747,BLACK,True,CORRECT,0.8398923000004288,839.8923000004288
3,20260325_121052,D,J,False,AUTOMATION1,2,259,559,fixed_delta,0.03626602127557052,0.01404684716676857,,,,,0.5474887204600947,1971,1629,1,0.95,BLACK,BLACK,True,0,0.0018999999156221747,BLACK,True,CORRECT,0.8322982999998203,832.2982999998203
3,20260325_121052,D,J,False,AUTOMATION1,2,260,560,fixed_delta,0.03626602127557052,0.01404684716676857,,,,,0.5204599411076146,1874,1726,1,0.95,BLACK,BLACK,True,0,0.0015000005078036338,BLACK,True,CORRECT,1.0249727999998868,1024.9727999998868
3,20260325_121052,D,J,False,AUTOMATION1,2,261,561,fixed_delta,0.03626602127557052,0.01404684716676857,,,,,0.4621686033191146,1664,1936,1,0.95,WHITE,WHITE,True,0,0.0017000002117129043,WHITE,True,CORRECT,1.0518683999998757,1051.8683999998757
3,20260325_121052,D,J,False,AUTOMATION1,2,262,562,fixed_delta,0.03626602127557052,0.01404684716676857,,,,,0.44479891584624526,1601,1999,1,0.95,WHITE,WHITE,True,0,0.0013000008038943633,WHITE,True,CORRECT,0.8400856999996904,840.0856999996904
3,20260325_121052,D,J,False,AUTOMATION1,2,263,563,fixed_delta,0.03626602127557052,0.01404684716676857,,,,,0.4526675955416619,1630,1970,1,0.95,WHITE,WHITE,True,0,0.0014999986888142303,WHITE,True,CORRECT,0.9705137999990257,970.5137999990257
3,20260325_121052,D,J,False,AUTOMATION1,2,264,564,fixed_delta,0.03626602127557052,0.01404684716676857,,,,,0.5565791746614788,2004,1596,1,0.95,BLACK,BLACK,True,0,0.0015000005078036338,BLACK,True,CORRECT,0.917765899999722,917.765899999722
3,20260325_121052,D,J,False,AUTOMATION1,2,265,565,fixed_delta,0.03626602127557052,0.01404684716676857,,,,,0.48397938824581627,1742,1858,1,0.95,WHITE,WHITE,True,0,0.0015000005078036338,WHITE,True,CORRECT,0.8128481000003376,812.8481000003376
3,20260325_121052,D,J,False,AUTOMATION1,2,266,566,fixed_delta,0.03626602127557052,0.01404684716676857,,,,,0.4494095596397485,1618,1982,1,0.95,WHITE,WHITE,True,0,0.0013999997463542968,WHITE,True,CORRECT,1.2935393000007025,1293.5393000007025
3,20260325_121052,D,J,False,AUTOMATION1,2,267,567,fixed_delta,0.03626602127557052,0.01404684716676857,,,,,0.5236583257667919,1885,1715,1,0.95,BLACK,BLACK,True,0,0.0013999997463542968,BLACK,True,CORRECT,3.229021699999066,3229.021699999066
3,20260325_121052,D,J,False,AUTOMATION1,2,268,568,fixed_delta,0.03626602127557052,0.01404684716676857,,,,,0.4690422387301553,1689,1911,1,0.95,WHITE,WHITE,True,0,0.0016000012692529708,WHITE,True,CORRECT,2.0435347000002366,2043.5347000002366
3,20260325_121052,D,J,False,AUTOMATION1,2,269,569,fixed_delta,0.03626602127557052,0.01404684716676857,,,,,0.522891906306677,1882,1718,1,0.95,BLACK,BLACK,True,0,0.0020000006770715117,BLACK,True,CORRECT,2.517618100000618,2517.618100000618
3,20260325_121052,D,J,False,AUTOMATION1,2,270,570,fixed_delta,0.03626602127557052,0.01404684716676857,,,,,0.5345401255671544,1924,1676,1,0.95,BLACK,BLACK,True,0,0.0013999997463542968,BLACK,True,CORRECT,1.9742679000009957,1974.2679000009957
3,20260325_121052,D,J,False,AUTOMATION1,2,271,571,fixed_delta,0.03626602127557052,0.01404684716676857,,,,,0.4586129137807615,1651,1949,1,0.95,WHITE,WHITE,True,0,0.0015000005078036338,WHITE,True,CORRECT,1.1366524000004574,1136.6524000004574
3,20260325_121052,D,J,False,AUTOMATION1,2,272,572,fixed_delta,0.03626602127557052,0.01404684716676857,,,,,0.4518240379458758,1627,1973,1,0.95,WHITE,WHITE,True,0,0.0013999997463542968,WHITE,True,CORRECT,0.8227766999989399,822.7766999989399
3,20260325_121052,D,J,False,AUTOMATION1,2,273,573,fixed_delta,0.03626602127557052,0.01404684716676857,,,,,0.4649996220107997,1674,1926,1,0.95,WHITE,WHITE,True,0,0.0018000009731622413,WHITE,True,CORRECT,1.425316800001383,1425.316800001383
3,20260325_121052,D,J,False,AUTOMATION1,2,274,574,fixed_delta,0.03626602127557052,0.01404684716676857,,,,,0.4390447659642198,1581,2019,1,0.95,WHITE,WHITE,True,0,0.0015000005078036338,WHITE,True,CORRECT,0.7268443000011757,726.8443000011757
3,20260325_121052,D,J,False,AUTOMATION1,2,275,575,fixed_delta,0.03626602127557052,0.01404684716676857,,,,,0.46776066034279984,1684,1916,1,0.95,WHITE,WHITE,True,0,0.0017000002117129043,WHITE,True,CORRECT,1.1689045000002807,1168.9045000002807
3,20260325_121052,D,J,False,AUTOMATION1,2,276,576,fixed_delta,0.03626602127557052,0.01404684716676857,,,,,0.5485183544429191,1975,1625,1,0.95,BLACK,BLACK,True,0,0.0017000002117129043,BLACK,True,CORRECT,1.6356804000006377,1635.6804000006377
3,20260325_121052,D,J,False,AUTOMATION1,2,277,577,fixed_delta,0.03626602127557052,0.01404684716676857,,,,,0.4665344906344533,1680,1920,1,0.95,WHITE,WHITE,True,0,0.0018000009731622413,WHITE,True,CORRECT,1.98300780000136,1983.00780000136
3,20260325_121052,D,J,False,AUTOMATION1,2,278,578,fixed_delta,0.03626602127557052,0.01404684716676857,,,,,0.5281893477445164,1901,1699,1,0.95,BLACK,BLACK,True,0,0.0015000005078036338,BLACK,True,CORRECT,1.4689562000003207,1468.9562000003207
3,20260325_121052,D,J,False,AUTOMATION1,2,279,579,fixed_delta,0.03626602127557052,0.01404684716676857,,,,,0.517474075309242,1863,1737,1,0.95,BLACK,WHITE,False,0,0.0020000006770715117,WHITE,False,INCORRECT,2.0103985000005196,2010.3985000005196
3,20260325_121052,D,J,False,AUTOMATION1,2,280,580,fixed_delta,0.03626602127557052,0.01404684716676857,,,,,0.5487858732793738,1976,1624,1,0.95,BLACK,BLACK,True,0,0.0015000005078036338,BLACK,True,CORRECT,1.9633771000007982,1963.3771000007982
3,20260325_121052,D,J,False,AUTOMATION1,2,281,581,fixed_delta,0.03626602127557052,0.01404684716676857,,,,,0.5336900321084492,1921,1679,1,0.95,BLACK,BLACK,True,0,0.0020000006770715117,BLACK,True,CORRECT,2.451933899999858,2451.933899999858
3,20260325_121052,D,J,False,AUTOMATION1,2,282,582,fixed_delta,0.03626602127557052,0.01404684716676857,,,,,0.5434525620633343,1956,1644,1,0.95,BLACK,WHITE,False,0,0.0015999994502635673,WHITE,False,INCORRECT,1.3105625000007421,1310.5625000007421
3,20260325_121052,D,J,False,AUTOMATION1,2,283,583,fixed_delta,0.03626602127557052,0.01404684716676857,,,,,0.47773529764319556,1720,1880,1,0.95,WHITE,WHITE,True,0,0.0017000002117129043,WHITE,True,CORRECT,1.7286088000000746,1728.6088000000746
3,20260325_121052,D,J,False,AUTOMATION1,2,284,584,fixed_delta,0.03626602127557052,0.01404684716676857,,,,,0.4697319960826083,1691,1909,1,0.95,WHITE,WHITE,True,0,0.0018999999156221747,WHITE,True,CORRECT,2.26293269999951,2262.93269999951
3,20260325_121052,D,J,False,AUTOMATION1,2,285,585,fixed_delta,0.03626602127557052,0.01404684716676857,,,,,0.5366255581998588,1932,1668,1,0.95,BLACK,BLACK,True,0,0.0013999997463542968,BLACK,True,CORRECT,0.855685699998503,855.685699998503
3,20260325_121052,D,J,False,AUTOMATION1,2,286,586,fixed_delta,0.03626602127557052,0.01404684716676857,,,,,0.5402247372299468,1945,1655,1,0.95,BLACK,BLACK,True,0,0.0016000012692529708,BLACK,True,CORRECT,0.9551903000010498,955.1903000010498
3,20260325_121052,D,J,False,AUTOMATION1,2,287,587,fixed_delta,0.03626602127557052,0.01404684716676857,,,,,0.5318722270919091,1915,1685,1,0.95,BLACK,BLACK,True,0,0.0016000012692529708,BLACK,True,CORRECT,1.3786307000009401,1378.6307000009401
3,20260325_121052,D,J,False,AUTOMATION1,2,288,588,fixed_delta,0.03626602127557052,0.01404684716676857,,,,,0.5742193566058774,2067,1533,1,0.95,BLACK,BLACK,True,0,0.0017999991541728377,BLACK,True,CORRECT,0.9320781999995233,932.0781999995233
3,20260325_121052,D,J,False,AUTOMATION1,2,289,589,fixed_delta,0.03626602127557052,0.01404684716676857,,,,,0.4527304985239574,1630,1970,1,0.95,WHITE,WHITE,True,0,0.0018999999156221747,WHITE,True,CORRECT,1.338326600000073,1338.326600000073
3,20260325_121052,D,J,False,AUTOMATION1,2,290,590,fixed_delta,0.03626602127557052,0.01404684716676857,,,,,0.5276256077413041,1899,1701,1,0.95,BLACK,BLACK,True,0,0.0014999986888142303,BLACK,True,CORRECT,1.489492099999552,1489.492099999552
3,20260325_121052,D,J,False,AUTOMATION1,2,291,591,fixed_delta,0.03626602127557052,0.01404684716676857,,,,,0.4536182976831272,1633,1967,1,0.95,WHITE,WHITE,True,0,0.0013000008038943633,WHITE,True,CORRECT,0.9476338999993459,947.6338999993459
3,20260325_121052,D,J,False,AUTOMATION1,2,292,592,fixed_delta,0.03626602127557052,0.01404684716676857,,,,,0.45843407718856677,1650,1950,1,0.95,WHITE,WHITE,True,0,0.0017000002117129043,WHITE,True,CORRECT,1.5479599999998754,1547.9599999998754
3,20260325_121052,D,J,False,AUTOMATION1,2,293,593,fixed_delta,0.03626602127557052,0.01404684716676857,,,,,0.4771554894615457,1718,1882,1,0.95,WHITE,WHITE,True,0,0.0015000005078036338,WHITE,True,CORRECT,0.7453777999999147,745.3777999999147
3,20260325_121052,D,J,False,AUTOMATION1,2,294,594,fixed_delta,0.03626602127557052,0.01404684716676857,,,,,0.5167836273386319,1860,1740,1,0.95,BLACK,BLACK,True,0,0.0013999997463542968,BLACK,True,CORRECT,0.945855500000107,945.855500000107
3,20260325_121052,D,J,False,AUTOMATION1,2,295,595,fixed_delta,0.03626602127557052,0.01404684716676857,,,,,0.4580205824641464,1649,1951,1,0.95,WHITE,WHITE,True,0,0.0014999986888142303,WHITE,True,CORRECT,1.6259181999994325,1625.9181999994325
3,20260325_121052,D,J,False,AUTOMATION1,2,296,596,fixed_delta,0.03626602127557052,0.01404684716676857,,,,,0.50572859020759,1821,1779,1,0.95,BLACK,BLACK,True,0,0.0012000000424450263,BLACK,True,CORRECT,1.8383873000002495,1838.3873000002495
3,20260325_121052,D,J,False,AUTOMATION1,2,297,597,fixed_delta,0.03626602127557052,0.01404684716676857,,,,,0.4654407780295542,1676,1924,1,0.95,WHITE,WHITE,True,0,0.0018000009731622413,WHITE,True,CORRECT,1.437497599999915,1437.497599999915
3,20260325_121052,D,J,False,AUTOMATION1,2,298,598,fixed_delta,0.03626602127557052,0.01404684716676857,,,,,0.4707642932768549,1695,1905,1,0.95,WHITE,WHITE,True,0,0.0013999997463542968,WHITE,True,CORRECT,2.6062615999999252,2606.2615999999252
3,20260325_121052,D,J,False,AUTOMATION1,2,299,599,fixed_delta,0.03626602127557052,0.01404684716676857,,,,,0.469696339323754,1691,1909,1,0.95,WHITE,BLACK,False,0,0.0015000005078036338,BLACK,False,INCORRECT,1.7349270000013348,1734.9270000013348
3,20260325_121052,D,J,False,AUTOMATION1,2,300,600,fixed_delta,0.03626602127557052,0.01404684716676857,,,,,0.451637607553013,1626,1974,1,0.95,WHITE,WHITE,True,0,0.0018000009731622413,WHITE,True,CORRECT,2.717468500000905,2717.468500000905
3,20260325_121052,D,J,False,AUTOMATION1,2,301,601,fixed_delta,0.03626602127557052,0.01404684716676857,,,,,0.5461664464879509,1966,1634,1,0.95,BLACK,BLACK,True,0,0.0021000014385208488,BLACK,True,CORRECT,1.016163800000868,1016.1638000008679
3,20260325_121052,D,J,False,AUTOMATION1,2,302,602,fixed_delta,0.03626602127557052,0.01404684716676857,,,,,0.48096130275930055,1731,1869,1,0.95,WHITE,WHITE,True,0,0.0017000002117129043,WHITE,True,CORRECT,1.1080356999991636,1108.0356999991636
3,20260325_121052,D,J,False,AUTOMATION1,2,303,603,fixed_delta,0.03626602127557052,0.01404684716676857,,,,,0.5526733615215038,1990,1610,1,0.95,BLACK,BLACK,True,0,0.0015999994502635673,BLACK,True,CORRECT,0.7427814999991824,742.7814999991824
3,20260325_121052,D,J,False,AUTOMATION1,2,304,604,fixed_delta,0.03626602127557052,0.01404684716676857,,,,,0.5443535840933805,1960,1640,1,0.95,BLACK,BLACK,True,0,0.0018999999156221747,BLACK,True,CORRECT,3.143972500000018,3143.972500000018
3,20260325_121052,D,J,False,AUTOMATION1,2,305,605,fixed_delta,0.03626602127557052,0.01404684716676857,,,,,0.4662998545440261,1679,1921,1,0.95,WHITE,WHITE,True,0,0.002099999619531445,WHITE,True,CORRECT,4.657269200000883,4657.269200000883
3,20260325_121052,D,J,False,AUTOMATION1,2,306,606,fixed_delta,0.03626602127557052,0.01404684716676857,,,,,0.47628392933050645,1715,1885,1,0.95,WHITE,WHITE,True,0,0.001999998858082108,WHITE,True,CORRECT,1.1302652999984275,1130.2652999984275
3,20260325_121052,D,J,False,AUTOMATION1,2,307,607,fixed_delta,0.03626602127557052,0.01404684716676857,,,,,0.45306200617904563,1631,1969,1,0.95,WHITE,WHITE,True,0,0.0015999994502635673,WHITE,True,CORRECT,5.818411799999012,5818.411799999012
3,20260325_121052,D,J,False,AUTOMATION1,2,308,608,fixed_delta,0.03626602127557052,0.01404684716676857,,,,,0.46183575233236546,1663,1937,1,0.95,WHITE,WHITE,True,0,0.0017000002117129043,WHITE,True,CORRECT,2.5486424999999144,2548.6424999999144
3,20260325_121052,D,J,False,AUTOMATION1,2,309,609,fixed_delta,0.03626602127557052,0.01404684716676857,,,,,0.4993889418825565,1798,1802,1,0.95,WHITE,WHITE,True,0,0.0013999997463542968,WHITE,True,CORRECT,1.2648380999999063,1264.8380999999063
3,20260325_121052,D,J,False,AUTOMATION1,2,310,610,fixed_delta,0.03626602127557052,0.01404684716676857,,,,,0.5585881382167426,2011,1589,1,0.95,BLACK,BLACK,True,0,0.0017999991541728377,BLACK,True,CORRECT,0.831546099998377,831.546099998377
3,20260325_121052,D,J,False,AUTOMATION1,2,311,611,fixed_delta,0.03626602127557052,0.01404684716676857,,,,,0.5278990690245983,1900,1700,1,0.95,BLACK,BLACK,True,0,0.0015000005078036338,BLACK,True,CORRECT,3.556576799999675,3556.576799999675
3,20260325_121052,D,J,False,AUTOMATION1,2,312,612,fixed_delta,0.03626602127557052,0.01404684716676857,,,,,0.5717703133398696,2058,1542,1,0.95,BLACK,BLACK,True,0,0.0015000005078036338,BLACK,True,CORRECT,0.8138517999996111,813.8517999996111
3,20260325_121052,D,J,False,AUTOMATION1,2,313,613,fixed_delta,0.03626602127557052,0.01404684716676857,,,,,0.5296180064321513,1907,1693,1,0.95,BLACK,BLACK,True,0,0.0017999991541728377,BLACK,True,CORRECT,5.445098300000609,5445.098300000609
3,20260325_121052,D,J,False,AUTOMATION1,2,314,614,fixed_delta,0.03626602127557052,0.01404684716676857,,,,,0.5392051079830829,1941,1659,1,0.95,BLACK,BLACK,True,0,0.0013999997463542968,BLACK,True,CORRECT,3.746647199999643,3746.647199999643
3,20260325_121052,D,J,False,AUTOMATION1,2,315,615,fixed_delta,0.03626602127557052,0.01404684716676857,,,,,0.5593042711439045,2013,1587,1,0.95,BLACK,BLACK,True,0,0.0018999999156221747,BLACK,True,CORRECT,4.651223400000163,4651.223400000163
3,20260325_121052,D,J,False,AUTOMATION1,2,316,616,fixed_delta,0.03626602127557052,0.01404684716676857,,,,,0.4509391730626354,1623,1977,1,0.95,WHITE,BLACK,False,0,0.0018000009731622413,BLACK,False,INCORRECT,9.24716250000165,9247.16250000165
3,20260325_121052,D,J,False,AUTOMATION1,2,317,617,fixed_delta,0.03626602127557052,0.01404684716676857,,,,,0.5545335374034661,1996,1604,1,0.95,BLACK,BLACK,True,0,0.0020000006770715117,BLACK,True,CORRECT,1.4350477000007231,1435.0477000007231
3,20260325_121052,D,J,False,AUTOMATION1,2,318,618,fixed_delta,0.03626602127557052,0.01404684716676857,,,,,0.4791964601763464,1725,1875,1,0.95,WHITE,WHITE,True,0,0.0015000005078036338,WHITE,True,CORRECT,0.92359260000012,923.59260000012
3,20260325_121052,D,J,False,AUTOMATION1,2,319,619,fixed_delta,0.03626602127557052,0.01404684716676857,,,,,0.4422283320644215,1592,2008,1,0.95,WHITE,WHITE,True,0,0.0015000005078036338,WHITE,True,CORRECT,0.9507050000011077,950.7050000011077
3,20260325_121052,D,J,False,AUTOMATION1,2,320,620,fixed_delta,0.03626602127557052,0.01404684716676857,,,,,0.4587764340973991,1652,1948,1,0.95,WHITE,WHITE,True,0,0.0017000002117129043,WHITE,True,CORRECT,0.740239599999768,740.239599999768
3,20260325_121052,D,J,False,AUTOMATION1,2,321,621,fixed_delta,0.03626602127557052,0.01404684716676857,,,,,0.5457682156773652,1965,1635,1,0.95,BLACK,BLACK,True,0,0.0013999997463542968,BLACK,True,CORRECT,1.3999407999999676,1399.9407999999676
3,20260325_121052,D,J,False,AUTOMATION1,2,322,622,fixed_delta,0.03626602127557052,0.01404684716676857,,,,,0.4483292910097417,1614,1986,1,0.95,WHITE,WHITE,True,0,0.0014999986888142303,WHITE,True,CORRECT,0.6370248999992327,637.0248999992327
3,20260325_121052,D,J,False,AUTOMATION1,2,323,623,fixed_delta,0.03626602127557052,0.01404684716676857,,,,,0.44384550584511917,1598,2002,1,0.95,WHITE,WHITE,True,0,0.0015000005078036338,WHITE,True,CORRECT,0.6876043000011123,687.6043000011123
3,20260325_121052,D,J,False,AUTOMATION1,2,324,624,fixed_delta,0.03626602127557052,0.01404684716676857,,,,,0.4516356051173267,1626,1974,1,0.95,WHITE,WHITE,True,0,0.0018999999156221747,WHITE,True,CORRECT,2.690531300000657,2690.531300000657
3,20260325_121052,D,J,False,AUTOMATION1,2,325,625,fixed_delta,0.03626602127557052,0.01404684716676857,,,,,0.522404523343917,1881,1719,1,0.95,BLACK,BLACK,True,0,0.0013999997463542968,BLACK,True,CORRECT,2.2973188999985723,2297.3188999985723
3,20260325_121052,D,J,False,AUTOMATION1,2,326,626,fixed_delta,0.03626602127557052,0.01404684716676857,,,,,0.5393137212119771,1942,1658,1,0.95,BLACK,BLACK,True,0,0.0013000008038943633,BLACK,True,CORRECT,2.5832045000006474,2583.2045000006474
3,20260325_121052,D,J,False,AUTOMATION1,2,327,627,fixed_delta,0.03626602127557052,0.01404684716676857,,,,,0.4692740532231541,1689,1911,1,0.95,WHITE,BLACK,False,0,0.0017000002117129043,WHITE,True,CORRECT,5.946483499999886,5946.483499999886
3,20260325_121052,D,J,False,AUTOMATION1,2,328,628,fixed_delta,0.03626602127557052,0.01404684716676857,,,,,0.4496987597702836,1619,1981,1,0.95,WHITE,BLACK,False,0,0.0017999991541728377,WHITE,True,CORRECT,7.6280858000009175,7628.0858000009175
3,20260325_121052,D,J,False,AUTOMATION1,2,329,629,fixed_delta,0.03626602127557052,0.01404684716676857,,,,,0.5147142586674283,1853,1747,1,0.95,BLACK,BLACK,True,0,0.0017000002117129043,BLACK,True,CORRECT,2.7696785000007367,2769.6785000007367
3,20260325_121052,D,J,False,AUTOMATION1,2,330,630,fixed_delta,0.03626602127557052,0.01404684716676857,,,,,0.4806487439790582,1730,1870,1,0.95,WHITE,WHITE,True,0,0.0013000008038943633,WHITE,True,CORRECT,1.8082191000012244,1808.2191000012244
3,20260325_121052,D,J,False,AUTOMATION1,2,331,631,fixed_delta,0.03626602127557052,0.01404684716676857,,,,,0.4663785185560588,1679,1921,1,0.95,WHITE,WHITE,True,0,0.0015999994502635673,WHITE,True,CORRECT,1.723327599998811,1723.327599998811
3,20260325_121052,D,J,False,AUTOMATION1,2,332,632,fixed_delta,0.03626602127557052,0.01404684716676857,,,,,0.5459330317738601,1965,1635,1,0.95,BLACK,BLACK,True,0,0.0014999986888142303,BLACK,True,CORRECT,1.8644678999989992,1864.4678999989992
3,20260325_121052,D,J,False,AUTOMATION1,2,333,633,fixed_delta,0.03626602127557052,0.01404684716676857,,,,,0.4719872226942504,1699,1901,1,0.95,WHITE,WHITE,True,0,0.0015000005078036338,WHITE,True,CORRECT,1.0905588999994507,1090.5588999994507
3,20260325_121052,D,J,False,AUTOMATION1,2,334,634,fixed_delta,0.03626602127557052,0.01404684716676857,,,,,0.4381117890667205,1577,2023,1,0.95,WHITE,WHITE,True,0,0.0014999986888142303,WHITE,True,CORRECT,1.0752432999997836,1075.2432999997836
3,20260325_121052,D,J,False,AUTOMATION1,2,335,635,fixed_delta,0.03626602127557052,0.01404684716676857,,,,,0.5291705010107072,1905,1695,1,0.95,BLACK,BLACK,True,0,0.0017000002117129043,BLACK,True,CORRECT,0.879966799999238,879.966799999238
3,20260325_121052,D,J,False,AUTOMATION1,2,336,636,fixed_delta,0.03626602127557052,0.01404684716676857,,,,,0.4607430479503218,1659,1941,1,0.95,WHITE,WHITE,True,0,0.0012999989849049598,WHITE,True,CORRECT,1.5319733999986056,1531.9733999986056
3,20260325_121052,D,J,False,AUTOMATION1,2,337,637,fixed_delta,0.03626602127557052,0.01404684716676857,,,,,0.4479879840233708,1613,1987,1,0.95,WHITE,WHITE,True,0,0.0015999994502635673,WHITE,True,CORRECT,0.680725899999743,680.725899999743
3,20260325_121052,D,J,False,AUTOMATION1,2,338,638,fixed_delta,0.03626602127557052,0.01404684716676857,,,,,0.45534429920809505,1639,1961,1,0.95,WHITE,WHITE,True,0,0.0016000012692529708,WHITE,True,CORRECT,0.9323866000013368,932.3866000013368
3,20260325_121052,D,J,False,AUTOMATION1,2,339,639,fixed_delta,0.03626602127557052,0.01404684716676857,,,,,0.4582592293753469,1650,1950,1,0.95,WHITE,WHITE,True,0,0.0013999997463542968,WHITE,True,CORRECT,0.8935677999998006,893.5677999998006
3,20260325_121052,D,J,False,AUTOMATION1,2,340,640,fixed_delta,0.03626602127557052,0.01404684716676857,,,,,0.4673456373977778,1682,1918,1,0.95,WHITE,WHITE,True,0,0.0013999997463542968,WHITE,True,CORRECT,2.2531096000002435,2253.1096000002435
3,20260325_121052,D,J,False,AUTOMATION1,2,341,641,fixed_delta,0.03626602127557052,0.01404684716676857,,,,,0.4677597094866318,1684,1916,1,0.95,WHITE,WHITE,True,0,0.0015000005078036338,WHITE,True,CORRECT,0.7017532999998366,701.7532999998366
3,20260325_121052,D,J,False,AUTOMATION1,2,342,642,fixed_delta,0.03626602127557052,0.01404684716676857,,,,,0.47395952037276945,1706,1894,1,0.95,WHITE,WHITE,True,0,0.0017999991541728377,WHITE,True,CORRECT,0.9392761999988579,939.2761999988579
3,20260325_121052,D,J,False,AUTOMATION1,2,343,643,fixed_delta,0.03626602127557052,0.01404684716676857,,,,,0.543350222025629,1956,1644,1,0.95,BLACK,BLACK,True,0,0.0016000012692529708,BLACK,True,CORRECT,5.629327300001023,5629.327300001023
3,20260325_121052,D,J,False,AUTOMATION1,2,344,644,fixed_delta,0.03626602127557052,0.01404684716676857,,,,,0.5103638606182239,1837,1763,1,0.95,BLACK,BLACK,True,0,0.0013000008038943633,WHITE,False,INCORRECT,3.3827813000007154,3382.7813000007154
3,20260325_121052,D,J,False,AUTOMATION1,2,345,645,fixed_delta,0.03626602127557052,0.01404684716676857,,,,,0.5266442756488021,1896,1704,1,0.95,BLACK,BLACK,True,0,0.0017999991541728377,BLACK,True,CORRECT,1.2503077000001213,1250.3077000001213
3,20260325_121052,D,J,False,AUTOMATION1,2,346,646,fixed_delta,0.03626602127557052,0.01404684716676857,,,,,0.48524194702553386,1747,1853,1,0.95,WHITE,WHITE,True,0,0.0013999997463542968,WHITE,True,CORRECT,1.0084979000002932,1008.4979000002932
3,20260325_121052,D,J,False,AUTOMATION1,2,347,647,fixed_delta,0.03626602127557052,0.01404684716676857,,,,,0.5272456646778906,1898,1702,1,0.95,BLACK,BLACK,True,0,0.0016000012692529708,BLACK,True,CORRECT,1.108598400000119,1108.598400000119
3,20260325_121052,D,J,False,AUTOMATION1,2,348,648,fixed_delta,0.03626602127557052,0.01404684716676857,,,,,0.5541625463525441,1995,1605,1,0.95,BLACK,BLACK,True,0,0.0015999994502635673,BLACK,True,CORRECT,0.8254970999987563,825.4970999987563
3,20260325_121052,D,J,False,AUTOMATION1,2,349,649,fixed_delta,0.03626602127557052,0.01404684716676857,,,,,0.5381151752129064,1937,1663,1,0.95,BLACK,BLACK,True,0,0.0013999997463542968,BLACK,True,CORRECT,0.5132690999998886,513.2690999998886
3,20260325_121052,D,J,False,AUTOMATION1,2,350,650,fixed_delta,0.03626602127557052,0.01404684716676857,,,,,0.515529752258702,1856,1744,1,0.95,BLACK,BLACK,True,0,0.0015000005078036338,BLACK,True,CORRECT,0.9939494999998715,993.9494999998715
3,20260325_121052,D,J,False,AUTOMATION1,2,351,651,fixed_delta,0.03626602127557052,0.01404684716676857,,,,,0.4640116855864968,1670,1930,1,0.95,WHITE,WHITE,True,0,0.0015999994502635673,WHITE,True,CORRECT,1.2965552999994543,1296.5552999994543
3,20260325_121052,D,J,False,AUTOMATION1,2,352,652,fixed_delta,0.03626602127557052,0.01404684716676857,,,,,0.5373488397291903,1934,1666,1,0.95,BLACK,BLACK,True,0,0.0015000005078036338,BLACK,True,CORRECT,0.9939823000004253,993.9823000004253
3,20260325_121052,D,J,False,AUTOMATION1,2,353,653,fixed_delta,0.03626602127557052,0.01404684716676857,,,,,0.45380851151161994,1634,1966,1,0.95,WHITE,WHITE,True,0,0.0017999991541728377,WHITE,True,CORRECT,0.7430264999984502,743.0264999984502
3,20260325_121052,D,J,False,AUTOMATION1,2,354,654,fixed_delta,0.03626602127557052,0.01404684716676857,,,,,0.5428432121220935,1954,1646,1,0.95,BLACK,BLACK,True,0,0.002200000380980782,BLACK,True,CORRECT,0.7007215000012366,700.7215000012366
3,20260325_121052,D,J,False,AUTOMATION1,2,355,655,fixed_delta,0.03626602127557052,0.01404684716676857,,,,,0.4671913328915368,1682,1918,1,0.95,WHITE,WHITE,True,0,0.0013999997463542968,WHITE,True,CORRECT,0.754790499999217,754.790499999217
3,20260325_121052,D,J,False,AUTOMATION1,2,356,656,fixed_delta,0.03626602127557052,0.01404684716676857,,,,,0.4569664451783126,1645,1955,1,0.95,WHITE,BLACK,False,0,0.0017000002117129043,WHITE,True,CORRECT,6.448568399999203,6448.568399999203
3,20260325_121052,D,J,False,AUTOMATION1,2,357,657,fixed_delta,0.03626602127557052,0.01404684716676857,,,,,0.5400371163594898,1944,1656,1,0.95,BLACK,BLACK,True,0,0.002099999619531445,BLACK,True,CORRECT,2.3288285999988148,2328.8285999988148
3,20260325_121052,D,J,False,AUTOMATION1,2,358,658,fixed_delta,0.03626602127557052,0.01404684716676857,,,,,0.5503617645153017,1981,1619,1,0.95,BLACK,BLACK,True,0,0.0015999994502635673,BLACK,True,CORRECT,1.9672724999982165,1967.2724999982165
3,20260325_121052,D,J,False,AUTOMATION1,2,359,659,fixed_delta,0.03626602127557052,0.01404684716676857,,,,,0.5407613949386209,1947,1653,1,0.95,BLACK,BLACK,True,0,0.0013999997463542968,BLACK,True,CORRECT,5.34498960000019,5344.98960000019
3,20260325_121052,D,J,False,AUTOMATION1,2,360,660,fixed_delta,0.03626602127557052,0.01404684716676857,,,,,0.5407539940386612,1947,1653,1,0.95,BLACK,BLACK,True,0,0.0015999994502635673,BLACK,True,CORRECT,1.262283899999602,1262.283899999602
3,20260325_121052,D,J,False,AUTOMATION1,2,361,661,fixed_delta,0.03626602127557052,0.01404684716676857,,,,,0.443348244154653,1596,2004,1,0.95,WHITE,WHITE,True,0,0.0017000002117129043,WHITE,True,CORRECT,0.8608308999992005,860.8308999992005
3,20260325_121052,D,J,False,AUTOMATION1,2,362,662,fixed_delta,0.03626602127557052,0.01404684716676857,,,,,0.44689378713346756,1609,1991,1,0.95,WHITE,WHITE,True,0,0.0016000012692529708,WHITE,True,CORRECT,1.3591970000015863,1359.1970000015863
3,20260325_121052,D,J,False,AUTOMATION1,2,363,663,fixed_delta,0.03626602127557052,0.01404684716676857,,,,,0.4789871136261848,1724,1876,1,0.95,WHITE,WHITE,True,0,0.0017000002117129043,WHITE,True,CORRECT,1.0144153999990522,1014.4153999990522
3,20260325_121052,D,J,False,AUTOMATION1,2,364,664,fixed_delta,0.03626602127557052,0.01404684716676857,,,,,0.530296290239607,1909,1691,1,0.95,BLACK,BLACK,True,0,0.0018999999156221747,BLACK,True,CORRECT,1.8119185999985348,1811.9185999985348
3,20260325_121052,D,J,False,AUTOMATION1,2,365,665,fixed_delta,0.03626602127557052,0.01404684716676857,,,,,0.4620213267181612,1663,1937,1,0.95,WHITE,WHITE,True,0,0.0013999997463542968,WHITE,True,CORRECT,2.2787301000007574,2278.7301000007574
3,20260325_121052,D,J,False,AUTOMATION1,2,366,666,fixed_delta,0.03626602127557052,0.01404684716676857,,,,,0.5518384732727406,1987,1613,1,0.95,BLACK,BLACK,True,0,0.0016999983927235007,BLACK,True,CORRECT,2.120494899998448,2120.494899998448
3,20260325_121052,D,J,False,AUTOMATION1,2,367,667,fixed_delta,0.03626602127557052,0.01404684716676857,,,,,0.5294978955217761,1906,1694,1,0.95,BLACK,BLACK,True,0,0.0016000012692529708,BLACK,True,CORRECT,1.3939175000014075,1393.9175000014075
3,20260325_121052,D,J,False,AUTOMATION1,2,368,668,fixed_delta,0.03626602127557052,0.01404684716676857,,,,,0.529372246801134,1906,1694,1,0.95,BLACK,BLACK,True,0,0.0015999994502635673,BLACK,True,CORRECT,1.9712400999997044,1971.2400999997044
3,20260325_121052,D,J,False,AUTOMATION1,2,369,669,fixed_delta,0.03626602127557052,0.01404684716676857,,,,,0.44543325468200556,1604,1996,1,0.95,WHITE,WHITE,True,0,0.0014999986888142303,WHITE,True,CORRECT,2.363288599999578,2363.288599999578
3,20260325_121052,D,J,False,AUTOMATION1,2,370,670,fixed_delta,0.03626602127557052,0.01404684716676857,,,,,0.4510927941150013,1624,1976,1,0.95,WHITE,WHITE,True,0,0.0013999997463542968,WHITE,True,CORRECT,1.8361690000001545,1836.1690000001545
3,20260325_121052,D,J,False,AUTOMATION1,2,371,671,fixed_delta,0.03626602127557052,0.01404684716676857,,,,,0.5518610514979028,1987,1613,1,0.95,BLACK,BLACK,True,0,0.0017000002117129043,BLACK,True,CORRECT,0.7347446000003401,734.7446000003401
3,20260325_121052,D,J,False,AUTOMATION1,2,372,672,fixed_delta,0.03626602127557052,0.01404684716676857,,,,,0.47567700879030295,1712,1888,1,0.95,WHITE,WHITE,True,0,0.0021000014385208488,WHITE,True,CORRECT,5.2937297000007675,5293.7297000007675
3,20260325_121052,D,J,False,AUTOMATION1,2,373,673,fixed_delta,0.03626602127557052,0.01404684716676857,,,,,0.5353266515726952,1927,1673,1,0.95,BLACK,BLACK,True,0,0.0015000005078036338,BLACK,True,CORRECT,3.8841319999992265,3884.1319999992265
3,20260325_121052,D,J,False,AUTOMATION1,2,374,674,fixed_delta,0.03626602127557052,0.01404684716676857,,,,,0.5468868092976599,1969,1631,1,0.95,BLACK,BLACK,True,0,0.0017000002117129043,BLACK,True,CORRECT,5.042646800000512,5042.646800000512
3,20260325_121052,D,J,False,AUTOMATION1,2,375,675,fixed_delta,0.03626602127557052,0.01404684716676857,,,,,0.45091924716858894,1623,1977,1,0.95,WHITE,WHITE,True,0,0.0013000008038943633,WHITE,True,CORRECT,0.8162302000000636,816.2302000000636
3,20260325_121052,D,J,False,AUTOMATION1,2,376,676,fixed_delta,0.03626602127557052,0.01404684716676857,,,,,0.5163560947317372,1859,1741,1,0.95,BLACK,BLACK,True,0,0.0018999999156221747,BLACK,True,CORRECT,0.9045564999996714,904.5564999996714
3,20260325_121052,D,J,False,AUTOMATION1,2,377,677,fixed_delta,0.03626602127557052,0.01404684716676857,,,,,0.4522589878879181,1628,1972,1,0.95,WHITE,WHITE,True,0,0.0018000009731622413,WHITE,True,CORRECT,0.7291609000003518,729.1609000003518
3,20260325_121052,D,J,False,AUTOMATION1,2,378,678,fixed_delta,0.03626602127557052,0.01404684716676857,,,,,0.5373079507740478,1934,1666,1,0.95,BLACK,BLACK,True,0,0.0015000005078036338,BLACK,True,CORRECT,2.5231987000006484,2523.1987000006484
3,20260325_121052,D,J,False,AUTOMATION1,2,379,679,fixed_delta,0.03626602127557052,0.01404684716676857,,,,,0.5139649875147048,1850,1750,1,0.95,BLACK,BLACK,True,0,0.0013999997463542968,BLACK,True,CORRECT,1.0168436000003567,1016.8436000003567
3,20260325_121052,D,J,False,AUTOMATION1,2,380,680,fixed_delta,0.03626602127557052,0.01404684716676857,,,,,0.5339217291051144,1922,1678,1,0.95,BLACK,BLACK,True,0,0.0015000005078036338,BLACK,True,CORRECT,1.9932879000007233,1993.2879000007233
3,20260325_121052,D,J,False,AUTOMATION1,2,381,681,fixed_delta,0.03626602127557052,0.01404684716676857,,,,,0.47335212231049806,1704,1896,1,0.95,WHITE,WHITE,True,0,0.0015000005078036338,WHITE,True,CORRECT,0.8493016000011266,849.3016000011266
3,20260325_121052,D,J,False,AUTOMATION1,2,382,682,fixed_delta,0.03626602127557052,0.01404684716676857,,,,,0.5200795689284018,1872,1728,1,0.95,BLACK,BLACK,True,0,0.0016000012692529708,BLACK,True,CORRECT,0.7289113000006182,728.9113000006182
3,20260325_121052,D,J,False,AUTOMATION1,2,383,683,fixed_delta,0.03626602127557052,0.01404684716676857,,,,,0.5168709078670546,1861,1739,1,0.95,BLACK,BLACK,True,0,0.0013999997463542968,BLACK,True,CORRECT,2.475342699999601,2475.342699999601
3,20260325_121052,D,J,False,AUTOMATION1,2,384,684,fixed_delta,0.03626602127557052,0.01404684716676857,,,,,0.5439208027622231,1958,1642,1,0.95,BLACK,BLACK,True,0,0.0024000000848900527,BLACK,True,CORRECT,1.4491842000006727,1449.1842000006727
3,20260325_121052,D,J,False,AUTOMATION1,2,385,685,fixed_delta,0.03626602127557052,0.01404684716676857,,,,,0.4778274556484642,1720,1880,1,0.95,WHITE,WHITE,True,0,0.0015000005078036338,WHITE,True,CORRECT,0.8794522999996843,879.4522999996843
3,20260325_121052,D,J,False,AUTOMATION1,2,386,686,fixed_delta,0.03626602127557052,0.01404684716676857,,,,,0.462174089467264,1664,1936,1,0.95,WHITE,WHITE,True,0,0.0017000002117129043,WHITE,True,CORRECT,0.728885700000319,728.885700000319
3,20260325_121052,D,J,False,AUTOMATION1,2,387,687,fixed_delta,0.03626602127557052,0.01404684716676857,,,,,0.568603015979319,2047,1553,1,0.95,BLACK,BLACK,True,0,0.0012999989849049598,BLACK,True,CORRECT,1.5494294000000082,1549.4294000000082
3,20260325_121052,D,J,False,AUTOMATION1,2,388,688,fixed_delta,0.03626602127557052,0.01404684716676857,,,,,0.536160534958806,1930,1670,1,0.95,BLACK,BLACK,True,0,0.0018999999156221747,BLACK,True,CORRECT,1.1450019999992946,1145.0019999992946
3,20260325_121052,D,J,False,AUTOMATION1,2,389,689,fixed_delta,0.03626602127557052,0.01404684716676857,,,,,0.46372262018045546,1669,1931,1,0.95,WHITE,WHITE,True,0,0.0015999994502635673,WHITE,True,CORRECT,4.477977500000634,4477.977500000634
3,20260325_121052,D,J,False,AUTOMATION1,2,390,690,fixed_delta,0.03626602127557052,0.01404684716676857,,,,,0.4607235322991163,1659,1941,1,0.95,WHITE,WHITE,True,0,0.0017999991541728377,WHITE,True,CORRECT,1.1545043000005535,1154.5043000005535
3,20260325_121052,D,J,False,AUTOMATION1,2,391,691,fixed_delta,0.03626602127557052,0.01404684716676857,,,,,0.5330483574814848,1919,1681,1,0.95,BLACK,BLACK,True,0,0.0017000002117129043,BLACK,True,CORRECT,1.8245130000013887,1824.5130000013887
3,20260325_121052,D,J,False,AUTOMATION1,2,392,692,fixed_delta,0.03626602127557052,0.01404684716676857,,,,,0.46240007969902186,1665,1935,1,0.95,WHITE,WHITE,True,0,0.0017999991541728377,WHITE,True,CORRECT,0.8229386000002705,822.9386000002705
3,20260325_121052,D,J,False,AUTOMATION1,2,393,693,fixed_delta,0.03626602127557052,0.01404684716676857,,,,,0.4797652342493705,1727,1873,1,0.95,WHITE,WHITE,True,0,0.0016000012692529708,WHITE,True,CORRECT,1.719208600001366,1719.208600001366
3,20260325_121052,D,J,False,AUTOMATION1,2,394,694,fixed_delta,0.03626602127557052,0.01404684716676857,,,,,0.5395237290784176,1942,1658,1,0.95,BLACK,BLACK,True,0,0.0014999986888142303,BLACK,True,CORRECT,1.1246132999986003,1124.6132999986003
3,20260325_121052,D,J,False,AUTOMATION1,2,395,695,fixed_delta,0.03626602127557052,0.01404684716676857,,,,,0.5407292966817819,1947,1653,1,0.95,BLACK,BLACK,True,0,0.0013999997463542968,BLACK,True,CORRECT,7.94652810000116,7946.52810000116
3,20260325_121052,D,J,False,AUTOMATION1,2,396,696,fixed_delta,0.03626602127557052,0.01404684716676857,,,,,0.47203692746502157,1699,1901,1,0.95,WHITE,WHITE,True,0,0.0013000008038943633,WHITE,True,CORRECT,1.1207740000008926,1120.7740000008926
3,20260325_121052,D,J,False,AUTOMATION1,2,397,697,fixed_delta,0.03626602127557052,0.01404684716676857,,,,,0.4524081107805318,1629,1971,1,0.95,WHITE,WHITE,True,0,0.0014000015653437003,WHITE,True,CORRECT,1.1167445000010048,1116.7445000010048
3,20260325_121052,D,J,False,AUTOMATION1,2,398,698,fixed_delta,0.03626602127557052,0.01404684716676857,,,,,0.5360805576176121,1930,1670,1,0.95,BLACK,BLACK,True,0,0.0017000002117129043,BLACK,True,CORRECT,1.4559580000004644,1455.9580000004644
3,20260325_121052,D,J,False,AUTOMATION1,2,399,699,fixed_delta,0.03626602127557052,0.01404684716676857,,,,,0.5457104896560321,1965,1635,1,0.95,BLACK,BLACK,True,0,0.0016000012692529708,BLACK,True,CORRECT,1.0322500000002037,1032.2500000002037
3,20260325_121052,D,J,False,AUTOMATION1,2,400,700,fixed_delta,0.03626602127557052,0.01404684716676857,,,,,0.5329322494061101,1919,1681,1,0.95,BLACK,BLACK,True,0,0.0024000000848900527,BLACK,True,CORRECT,0.8548425999997562,854.8425999997562
3,20260325_121052,D,J,False,AUTOMATION1,2,401,701,fixed_delta,0.03626602127557052,0.01404684716676857,,,,,0.45510150838396335,1638,1962,1,0.95,WHITE,WHITE,True,0,0.0015000005078036338,WHITE,True,CORRECT,2.383175500001016,2383.175500001016
3,20260325_121052,D,J,False,AUTOMATION1,2,402,702,fixed_delta,0.03626602127557052,0.01404684716676857,,,,,0.5162243630886058,1858,1742,1,0.95,BLACK,BLACK,True,0,0.002099999619531445,BLACK,True,CORRECT,1.093130100000053,1093.130100000053
3,20260325_121052,D,J,False,AUTOMATION1,2,403,703,fixed_delta,0.03626602127557052,0.01404684716676857,,,,,0.529131739839313,1905,1695,1,0.95,BLACK,BLACK,True,0,0.0018999999156221747,BLACK,True,CORRECT,1.967442299999675,1967.442299999675
3,20260325_121052,D,J,False,AUTOMATION1,2,404,704,fixed_delta,0.03626602127557052,0.01404684716676857,,,,,0.5252535224723834,1891,1709,1,0.95,BLACK,BLACK,True,0,0.0015000005078036338,BLACK,True,CORRECT,7.966183700000329,7966.183700000329
3,20260325_121052,D,J,False,AUTOMATION1,2,405,705,fixed_delta,0.03626602127557052,0.01404684716676857,,,,,0.4777927496956893,1720,1880,1,0.95,WHITE,WHITE,True,0,0.0016000012692529708,WHITE,True,CORRECT,1.3787162999997236,1378.7162999997236
3,20260325_121052,D,J,False,AUTOMATION1,2,406,706,fixed_delta,0.03626602127557052,0.01404684716676857,,,,,0.5477484139262263,1972,1628,1,0.95,BLACK,BLACK,True,0,0.0017999991541728377,BLACK,True,CORRECT,2.344793700000082,2344.793700000082
3,20260325_121052,D,J,False,AUTOMATION1,2,407,707,fixed_delta,0.03626602127557052,0.01404684716676857,,,,,0.4547996448367272,1637,1963,1,0.95,WHITE,WHITE,True,0,0.002099999619531445,WHITE,True,CORRECT,0.9151166999999987,915.1166999999987
3,20260325_121052,D,J,False,AUTOMATION1,2,408,708,fixed_delta,0.03626602127557052,0.01404684716676857,,,,,0.5095900355041378,1835,1765,1,0.95,BLACK,BLACK,True,0,0.0017000002117129043,BLACK,True,CORRECT,0.6568446000001131,656.8446000001131
3,20260325_121052,D,J,False,AUTOMATION1,2,409,709,fixed_delta,0.03626602127557052,0.01404684716676857,,,,,0.5040669427369393,1815,1785,1,0.95,BLACK,BLACK,True,0,0.0014000015653437003,BLACK,True,CORRECT,0.8655602000017097,865.5602000017097
3,20260325_121052,D,J,False,AUTOMATION1,2,410,710,fixed_delta,0.03626602127557052,0.01404684716676857,,,,,0.45316905236678123,1631,1969,1,0.95,WHITE,WHITE,True,0,0.0015000005078036338,WHITE,True,CORRECT,1.12831929999993,1128.31929999993
3,20260325_121052,D,J,False,AUTOMATION1,2,411,711,fixed_delta,0.03626602127557052,0.01404684716676857,,,,,0.45183672336321684,1627,1973,1,0.95,WHITE,BLACK,False,0,0.0018999999156221747,BLACK,False,INCORRECT,1.32218919999832,1322.18919999832
3,20260325_121052,D,J,False,AUTOMATION1,2,412,712,fixed_delta,0.03626602127557052,0.01404684716676857,,,,,0.5294777885546756,1906,1694,1,0.95,BLACK,BLACK,True,0,0.002099999619531445,BLACK,True,CORRECT,2.5807320999992953,2580.7320999992953
3,20260325_121052,D,J,False,AUTOMATION1,2,413,713,fixed_delta,0.03626602127557052,0.01404684716676857,,,,,0.5339547601012619,1922,1678,1,0.95,BLACK,BLACK,True,0,0.0015000005078036338,BLACK,True,CORRECT,1.1739264999996522,1173.9264999996522
3,20260325_121052,D,J,False,AUTOMATION1,2,414,714,fixed_delta,0.03626602127557052,0.01404684716676857,,,,,0.45582194207888915,1641,1959,1,0.95,WHITE,WHITE,True,0,0.0015000005078036338,WHITE,True,CORRECT,1.3066771000012523,1306.6771000012523
3,20260325_121052,D,J,False,AUTOMATION1,2,415,715,fixed_delta,0.03626602127557052,0.01404684716676857,,,,,0.540542795623372,1946,1654,1,0.95,BLACK,BLACK,True,0,0.0018999999156221747,BLACK,True,CORRECT,0.957647300001554,957.647300001554
