participant_id,run_timestamp,key_black,key_white,keymap_flip,block,block_idx,trial,global_trial,difficulty_mode,delta_fixed_mean,delta_fixed_sd,delta_stair_realised,delta_stair_mean,delta_step_down_used,delta_step_up_used,vblack_prop,n_vblack,n_vwhite,auto_on,aid_accuracy_setting,stimulus,aid_label,aid_correct,aid_onset_ms,aid_onset_ms_rel,response,correct,feedback,rt_s,rt_ms
5,20260325_140546,D,J,False,AUTOMATION2,2,1,301,fixed_delta,0.03841730837928436,0.012782208620853738,,,,,0.5411632202086206,1948,1652,1,0.65,BLACK,BLACK,True,0,0.0026000016077887267,BLACK,True,CORRECT,3.5051289000002726,3505.1289000002726
5,20260325_140546,D,J,False,AUTOMATION2,2,2,302,fixed_delta,0.03841730837928436,0.012782208620853738,,,,,0.5004601786836249,1802,1798,1,0.65,BLACK,BLACK,True,0,0.0017000002117129043,WHITE,False,INCORRECT,1.8458204999988084,1845.8204999988084
5,20260325_140546,D,J,False,AUTOMATION2,2,3,303,fixed_delta,0.03841730837928436,0.012782208620853738,,,,,0.5524064191192618,1989,1611,1,0.65,BLACK,BLACK,True,0,0.0017000002117129043,BLACK,True,CORRECT,1.3096793999993679,1309.679399999368
5,20260325_140546,D,J,False,AUTOMATION2,2,4,304,fixed_delta,0.03841730837928436,0.012782208620853738,,,,,0.45073542679882095,1623,1977,1,0.65,WHITE,WHITE,True,0,0.001999998858082108,WHITE,True,CORRECT,0.8337685999995301,833.7685999995301
5,20260325_140546,D,J,False,AUTOMATION2,2,5,305,fixed_delta,0.03841730837928436,0.012782208620853738,,,,,0.54060166153411,1946,1654,1,0.65,BLACK,BLACK,True,0,0.0017000002117129043,BLACK,True,CORRECT,0.9909384000002319,990.9384000002319
5,20260325_140546,D,J,False,AUTOMATION2,2,6,306,fixed_delta,0.03841730837928436,0.012782208620853738,,,,,0.5171191461953258,1862,1738,1,0.65,BLACK,BLACK,True,0,0.0016000012692529708,BLACK,True,CORRECT,2.3500810000005004,2350.0810000005004
5,20260325_140546,D,J,False,AUTOMATION2,2,7,307,fixed_delta,0.03841730837928436,0.012782208620853738,,,,,0.5642079911685814,2031,1569,1,0.65,BLACK,WHITE,False,0,0.0015999994502635673,WHITE,False,INCORRECT,3.2108172999996896,3210.8172999996896
5,20260325_140546,D,J,False,AUTOMATION2,2,8,308,fixed_delta,0.03841730837928436,0.012782208620853738,,,,,0.4716359534877991,1698,1902,1,0.65,WHITE,WHITE,True,0,0.0018999999156221747,WHITE,True,CORRECT,0.841935000000376,841.935000000376
5,20260325_140546,D,J,False,AUTOMATION2,2,9,309,fixed_delta,0.03841730837928436,0.012782208620853738,,,,,0.46645289439618465,1679,1921,1,0.65,WHITE,WHITE,True,0,0.0013000008038943633,WHITE,True,CORRECT,0.7668546000004426,766.8546000004426
5,20260325_140546,D,J,False,AUTOMATION2,2,10,310,fixed_delta,0.03841730837928436,0.012782208620853738,,,,,0.517436539304355,1863,1737,1,0.65,BLACK,BLACK,True,0,0.0015000005078036338,BLACK,True,CORRECT,0.8484081999995396,848.4081999995396
5,20260325_140546,D,J,False,AUTOMATION2,2,11,311,fixed_delta,0.03841730837928436,0.012782208620853738,,,,,0.46235633573777996,1664,1936,1,0.65,WHITE,WHITE,True,0,0.0017000002117129043,WHITE,True,CORRECT,1.4834339000008185,1483.4339000008185
5,20260325_140546,D,J,False,AUTOMATION2,2,12,312,fixed_delta,0.03841730837928436,0.012782208620853738,,,,,0.5505242564928187,1982,1618,1,0.65,BLACK,WHITE,False,0,0.0017999991541728377,BLACK,True,CORRECT,1.3934696999986045,1393.4696999986045
5,20260325_140546,D,J,False,AUTOMATION2,2,13,313,fixed_delta,0.03841730837928436,0.012782208620853738,,,,,0.5367817203330091,1932,1668,1,0.65,BLACK,WHITE,False,0,0.0013000008038943633,WHITE,False,INCORRECT,1.508339199999682,1508.339199999682
5,20260325_140546,D,J,False,AUTOMATION2,2,14,314,fixed_delta,0.03841730837928436,0.012782208620853738,,,,,0.4610163695668231,1660,1940,1,0.65,WHITE,WHITE,True,0,0.0014000015653437003,WHITE,True,CORRECT,0.7423525000012887,742.3525000012887
5,20260325_140546,D,J,False,AUTOMATION2,2,15,315,fixed_delta,0.03841730837928436,0.012782208620853738,,,,,0.45334338988730843,1632,1968,1,0.65,WHITE,BLACK,False,0,0.0017000002117129043,BLACK,False,INCORRECT,2.7918012000009185,2791.8012000009185
5,20260325_140546,D,J,False,AUTOMATION2,2,16,316,fixed_delta,0.03841730837928436,0.012782208620853738,,,,,0.5295121789683115,1906,1694,1,0.65,BLACK,BLACK,True,0,0.0014999986888142303,BLACK,True,CORRECT,1.1219798999991326,1121.9798999991326
5,20260325_140546,D,J,False,AUTOMATION2,2,17,317,fixed_delta,0.03841730837928436,0.012782208620853738,,,,,0.5486807685175572,1975,1625,1,0.65,BLACK,BLACK,True,0,0.0015000005078036338,WHITE,False,INCORRECT,1.297600899999452,1297.600899999452
5,20260325_140546,D,J,False,AUTOMATION2,2,18,318,fixed_delta,0.03841730837928436,0.012782208620853738,,,,,0.527164293768143,1898,1702,1,0.65,BLACK,BLACK,True,0,0.0015000005078036338,WHITE,False,INCORRECT,0.6980108000007021,698.0108000007021
5,20260325_140546,D,J,False,AUTOMATION2,2,19,319,fixed_delta,0.03841730837928436,0.012782208620853738,,,,,0.5522201950499924,1988,1612,1,0.65,BLACK,BLACK,True,0,0.0015000005078036338,BLACK,True,CORRECT,1.110932600000524,1110.932600000524
5,20260325_140546,D,J,False,AUTOMATION2,2,20,320,fixed_delta,0.03841730837928436,0.012782208620853738,,,,,0.5308871457374945,1911,1689,1,0.65,BLACK,BLACK,True,0,0.0016000012692529708,BLACK,True,CORRECT,1.785507200000211,1785.507200000211
5,20260325_140546,D,J,False,AUTOMATION2,2,21,321,fixed_delta,0.03841730837928436,0.012782208620853738,,,,,0.5343538446996731,1924,1676,1,0.65,BLACK,BLACK,True,0,0.0014999986888142303,BLACK,True,CORRECT,1.3412554999995336,1341.2554999995336
5,20260325_140546,D,J,False,AUTOMATION2,2,22,322,fixed_delta,0.03841730837928436,0.012782208620853738,,,,,0.5360816413701425,1930,1670,1,0.65,BLACK,WHITE,False,0,0.0013000008038943633,WHITE,False,INCORRECT,1.2015671000008297,1201.5671000008297
5,20260325_140546,D,J,False,AUTOMATION2,2,23,323,fixed_delta,0.03841730837928436,0.012782208620853738,,,,,0.515263673495976,1855,1745,1,0.65,BLACK,BLACK,True,0,0.0013999997463542968,WHITE,False,INCORRECT,1.1791881000008289,1179.1881000008289
5,20260325_140546,D,J,False,AUTOMATION2,2,24,324,fixed_delta,0.03841730837928436,0.012782208620853738,,,,,0.5497797625721458,1979,1621,1,0.65,BLACK,WHITE,False,0,0.0013999997463542968,BLACK,True,CORRECT,1.493895200001134,1493.895200001134
5,20260325_140546,D,J,False,AUTOMATION2,2,25,325,fixed_delta,0.03841730837928436,0.012782208620853738,,,,,0.5635586593250616,2029,1571,1,0.65,BLACK,BLACK,True,0,0.0017000002117129043,BLACK,True,CORRECT,1.9276793000008183,1927.6793000008183
5,20260325_140546,D,J,False,AUTOMATION2,2,26,326,fixed_delta,0.03841730837928436,0.012782208620853738,,,,,0.45445472546272414,1636,1964,1,0.65,WHITE,BLACK,False,0,0.0015000005078036338,WHITE,True,CORRECT,0.6870118000006187,687.0118000006187
5,20260325_140546,D,J,False,AUTOMATION2,2,27,327,fixed_delta,0.03841730837928436,0.012782208620853738,,,,,0.47968328697562435,1727,1873,1,0.65,WHITE,BLACK,False,0,0.0018999999156221747,BLACK,False,INCORRECT,0.9206367999995564,920.6367999995564
5,20260325_140546,D,J,False,AUTOMATION2,2,28,328,fixed_delta,0.03841730837928436,0.012782208620853738,,,,,0.46861460363494867,1687,1913,1,0.65,WHITE,WHITE,True,0,0.0020000006770715117,WHITE,True,CORRECT,0.9463168000002042,946.3168000002042
5,20260325_140546,D,J,False,AUTOMATION2,2,29,329,fixed_delta,0.03841730837928436,0.012782208620853738,,,,,0.4599521875347147,1656,1944,1,0.65,WHITE,WHITE,True,0,0.0015000005078036338,WHITE,True,CORRECT,0.8898255000003701,889.8255000003701
5,20260325_140546,D,J,False,AUTOMATION2,2,30,330,fixed_delta,0.03841730837928436,0.012782208620853738,,,,,0.5245948105958733,1889,1711,1,0.65,BLACK,BLACK,True,0,0.0017000002117129043,BLACK,True,CORRECT,0.7359101000001829,735.9101000001829
5,20260325_140546,D,J,False,AUTOMATION2,2,31,331,fixed_delta,0.03841730837928436,0.012782208620853738,,,,,0.45925864444826175,1653,1947,1,0.65,WHITE,WHITE,True,0,0.0015000005078036338,WHITE,True,CORRECT,0.6637257000002137,663.7257000002137
5,20260325_140546,D,J,False,AUTOMATION2,2,32,332,fixed_delta,0.03841730837928436,0.012782208620853738,,,,,0.45333781177186505,1632,1968,1,0.65,WHITE,BLACK,False,0,0.0013000008038943633,BLACK,False,INCORRECT,1.579263900001024,1579.263900001024
5,20260325_140546,D,J,False,AUTOMATION2,2,33,333,fixed_delta,0.03841730837928436,0.012782208620853738,,,,,0.5569988440067364,2005,1595,1,0.65,BLACK,WHITE,False,0,0.0013000008038943633,BLACK,True,CORRECT,1.146602900000289,1146.602900000289
5,20260325_140546,D,J,False,AUTOMATION2,2,34,334,fixed_delta,0.03841730837928436,0.012782208620853738,,,,,0.5349763427808945,1926,1674,1,0.65,BLACK,BLACK,True,0,0.0013999997463542968,BLACK,True,CORRECT,1.2297337999989395,1229.7337999989395
5,20260325_140546,D,J,False,AUTOMATION2,2,35,335,fixed_delta,0.03841730837928436,0.012782208620853738,,,,,0.4516392402942831,1626,1974,1,0.65,WHITE,WHITE,True,0,0.0013999997463542968,WHITE,True,CORRECT,0.7078261999995448,707.8261999995448
5,20260325_140546,D,J,False,AUTOMATION2,2,36,336,fixed_delta,0.03841730837928436,0.012782208620853738,,,,,0.5277848352637512,1900,1700,1,0.65,BLACK,BLACK,True,0,0.0015000005078036338,BLACK,True,CORRECT,0.7741110999995726,774.1110999995726
5,20260325_140546,D,J,False,AUTOMATION2,2,37,337,fixed_delta,0.03841730837928436,0.012782208620853738,,,,,0.5262021429801977,1894,1706,1,0.65,BLACK,WHITE,False,0,0.002200000380980782,BLACK,True,CORRECT,0.718166900000142,718.166900000142
5,20260325_140546,D,J,False,AUTOMATION2,2,38,338,fixed_delta,0.03841730837928436,0.012782208620853738,,,,,0.5402249194056473,1945,1655,1,0.65,BLACK,WHITE,False,0,0.0015000005078036338,WHITE,False,INCORRECT,1.079671800000142,1079.671800000142
5,20260325_140546,D,J,False,AUTOMATION2,2,39,339,fixed_delta,0.03841730837928436,0.012782208620853738,,,,,0.4689456499899751,1688,1912,1,0.65,WHITE,WHITE,True,0,0.0015999994502635673,WHITE,True,CORRECT,0.9074175999994623,907.4175999994623
5,20260325_140546,D,J,False,AUTOMATION2,2,40,340,fixed_delta,0.03841730837928436,0.012782208620853738,,,,,0.46195891843540954,1663,1937,1,0.65,WHITE,BLACK,False,0,0.0015000005078036338,WHITE,True,CORRECT,0.7408924999999726,740.8924999999726
5,20260325_140546,D,J,False,AUTOMATION2,2,41,341,fixed_delta,0.03841730837928436,0.012782208620853738,,,,,0.4576057689565486,1647,1953,1,0.65,WHITE,WHITE,True,0,0.0016000012692529708,WHITE,True,CORRECT,0.6453739000007772,645.3739000007772
5,20260325_140546,D,J,False,AUTOMATION2,2,42,342,fixed_delta,0.03841730837928436,0.012782208620853738,,,,,0.5205176120713277,1874,1726,1,0.65,BLACK,BLACK,True,0,0.0015000005078036338,BLACK,True,CORRECT,1.023613600000317,1023.6136000003171
5,20260325_140546,D,J,False,AUTOMATION2,2,43,343,fixed_delta,0.03841730837928436,0.012782208620853738,,,,,0.5154092152044883,1855,1745,1,0.65,BLACK,BLACK,True,0,0.0016999983927235007,WHITE,False,INCORRECT,0.771203999998761,771.203999998761
5,20260325_140546,D,J,False,AUTOMATION2,2,44,344,fixed_delta,0.03841730837928436,0.012782208620853738,,,,,0.4855912435606141,1748,1852,1,0.65,WHITE,WHITE,True,0,0.0014999986888142303,WHITE,True,CORRECT,2.136189299999387,2136.189299999387
5,20260325_140546,D,J,False,AUTOMATION2,2,45,345,fixed_delta,0.03841730837928436,0.012782208620853738,,,,,0.5477318764205863,1972,1628,1,0.65,BLACK,BLACK,True,0,0.0015000005078036338,BLACK,True,CORRECT,0.8270184000011795,827.0184000011795
5,20260325_140546,D,J,False,AUTOMATION2,2,46,346,fixed_delta,0.03841730837928436,0.012782208620853738,,,,,0.524553784615816,1888,1712,1,0.65,BLACK,BLACK,True,0,0.0015999994502635673,BLACK,True,CORRECT,1.9159079999990354,1915.9079999990354
5,20260325_140546,D,J,False,AUTOMATION2,2,47,347,fixed_delta,0.03841730837928436,0.012782208620853738,,,,,0.460089231696975,1656,1944,1,0.65,WHITE,BLACK,False,0,0.0017000002117129043,WHITE,True,CORRECT,0.7740735999996105,774.0735999996105
5,20260325_140546,D,J,False,AUTOMATION2,2,48,348,fixed_delta,0.03841730837928436,0.012782208620853738,,,,,0.5623610632401093,2024,1576,1,0.65,BLACK,WHITE,False,0,0.0015000005078036338,BLACK,True,CORRECT,0.9262926999999763,926.2926999999763
5,20260325_140546,D,J,False,AUTOMATION2,2,49,349,fixed_delta,0.03841730837928436,0.012782208620853738,,,,,0.554047420554724,1995,1605,1,0.65,BLACK,WHITE,False,0,0.0013999997463542968,WHITE,False,INCORRECT,2.008457100000669,2008.457100000669
5,20260325_140546,D,J,False,AUTOMATION2,2,50,350,fixed_delta,0.03841730837928436,0.012782208620853738,,,,,0.45552856570353295,1640,1960,1,0.65,WHITE,WHITE,True,0,0.002200000380980782,WHITE,True,CORRECT,0.7972831000006408,797.2831000006408
5,20260325_140546,D,J,False,AUTOMATION2,2,51,351,fixed_delta,0.03841730837928436,0.012782208620853738,,,,,0.4686935909491364,1687,1913,1,0.65,WHITE,BLACK,False,0,0.0018000009731622413,WHITE,True,CORRECT,0.8826870000011695,882.6870000011695
5,20260325_140546,D,J,False,AUTOMATION2,2,52,352,fixed_delta,0.03841730837928436,0.012782208620853738,,,,,0.5477437013285025,1972,1628,1,0.65,BLACK,WHITE,False,0,0.0017999991541728377,BLACK,True,CORRECT,0.6915920000010374,691.5920000010374
5,20260325_140546,D,J,False,AUTOMATION2,2,53,353,fixed_delta,0.03841730837928436,0.012782208620853738,,,,,0.5532850961221455,1992,1608,1,0.65,BLACK,WHITE,False,0,0.0013000026228837669,BLACK,True,CORRECT,0.8347786000013002,834.7786000013002
5,20260325_140546,D,J,False,AUTOMATION2,2,54,354,fixed_delta,0.03841730837928436,0.012782208620853738,,,,,0.4503247489952675,1621,1979,1,0.65,WHITE,BLACK,False,0,0.0015000005078036338,WHITE,True,CORRECT,0.682155700000294,682.155700000294
5,20260325_140546,D,J,False,AUTOMATION2,2,55,355,fixed_delta,0.03841730837928436,0.012782208620853738,,,,,0.543839867657033,1958,1642,1,0.65,BLACK,WHITE,False,0,0.001400003384333104,BLACK,True,CORRECT,0.6935490000032587,693.5490000032587
5,20260325_140546,D,J,False,AUTOMATION2,2,56,356,fixed_delta,0.03841730837928436,0.012782208620853738,,,,,0.5347082247479624,1925,1675,1,0.65,BLACK,BLACK,True,0,0.0015999976312741637,WHITE,False,INCORRECT,1.590765699998883,1590.765699998883
5,20260325_140546,D,J,False,AUTOMATION2,2,57,357,fixed_delta,0.03841730837928436,0.012782208620853738,,,,,0.5441267461664814,1959,1641,1,0.65,BLACK,WHITE,False,0,0.0016000012692529708,WHITE,False,INCORRECT,2.7263964000012493,2726.3964000012493
5,20260325_140546,D,J,False,AUTOMATION2,2,58,358,fixed_delta,0.03841730837928436,0.012782208620853738,,,,,0.4491373017085163,1617,1983,1,0.65,WHITE,WHITE,True,0,0.0016999983927235007,WHITE,True,CORRECT,0.6380290999986755,638.0290999986755
5,20260325_140546,D,J,False,AUTOMATION2,2,59,359,fixed_delta,0.03841730837928436,0.012782208620853738,,,,,0.5180674869453187,1865,1735,1,0.65,BLACK,BLACK,True,0,0.0016999983927235007,WHITE,False,INCORRECT,0.7747875999993994,774.7875999993994
5,20260325_140546,D,J,False,AUTOMATION2,2,60,360,fixed_delta,0.03841730837928436,0.012782208620853738,,,,,0.5502438085326786,1981,1619,1,0.65,BLACK,BLACK,True,0,0.0014999968698248267,BLACK,True,CORRECT,0.7694348999975773,769.4348999975773
5,20260325_140546,D,J,False,AUTOMATION2,2,61,361,fixed_delta,0.03841730837928436,0.012782208620853738,,,,,0.46421368812117597,1671,1929,1,0.65,WHITE,WHITE,True,0,0.0012999989849049598,WHITE,True,CORRECT,0.6126034000008076,612.6034000008076
5,20260325_140546,D,J,False,AUTOMATION2,2,62,362,fixed_delta,0.03841730837928436,0.012782208620853738,,,,,0.54852806250595,1975,1625,1,0.65,BLACK,BLACK,True,0,0.0013999997463542968,BLACK,True,CORRECT,1.4138824000001478,1413.8824000001478
5,20260325_140546,D,J,False,AUTOMATION2,2,63,363,fixed_delta,0.03841730837928436,0.012782208620853738,,,,,0.4519654384060876,1627,1973,1,0.65,WHITE,WHITE,True,0,0.0018999999156221747,WHITE,True,CORRECT,0.7269833999998809,726.9833999998809
5,20260325_140546,D,J,False,AUTOMATION2,2,64,364,fixed_delta,0.03841730837928436,0.012782208620853738,,,,,0.5391157711246916,1941,1659,1,0.65,BLACK,WHITE,False,0,0.0018999999156221747,WHITE,False,INCORRECT,0.7002862000008463,700.2862000008463
5,20260325_140546,D,J,False,AUTOMATION2,2,65,365,fixed_delta,0.03841730837928436,0.012782208620853738,,,,,0.4551281879648841,1638,1962,1,0.65,WHITE,WHITE,True,0,0.0015000005078036338,WHITE,True,CORRECT,0.6009455999992497,600.9455999992497
5,20260325_140546,D,J,False,AUTOMATION2,2,66,366,fixed_delta,0.03841730837928436,0.012782208620853738,,,,,0.46153152847349255,1662,1938,1,0.65,WHITE,WHITE,True,0,0.0013999997463542968,WHITE,True,CORRECT,0.6237320999971416,623.7320999971416
5,20260325_140546,D,J,False,AUTOMATION2,2,67,367,fixed_delta,0.03841730837928436,0.012782208620853738,,,,,0.44730534880309847,1610,1990,1,0.65,WHITE,BLACK,False,0,0.0016999983927235007,WHITE,True,CORRECT,0.5519702999990841,551.9702999990841
5,20260325_140546,D,J,False,AUTOMATION2,2,68,368,fixed_delta,0.03841730837928436,0.012782208620853738,,,,,0.5132561557852534,1848,1752,1,0.65,BLACK,BLACK,True,0,0.0015999976312741637,WHITE,False,INCORRECT,0.6699966999985918,669.9966999985918
5,20260325_140546,D,J,False,AUTOMATION2,2,69,369,fixed_delta,0.03841730837928436,0.012782208620853738,,,,,0.46311696583749107,1667,1933,1,0.65,WHITE,WHITE,True,0,0.0016000012692529708,WHITE,True,CORRECT,0.6802700000007462,680.2700000007462
5,20260325_140546,D,J,False,AUTOMATION2,2,70,370,fixed_delta,0.03841730837928436,0.012782208620853738,,,,,0.5400040700656503,1944,1656,1,0.65,BLACK,WHITE,False,0,0.0017999991541728377,BLACK,True,CORRECT,0.6516264999991108,651.6264999991108
5,20260325_140546,D,J,False,AUTOMATION2,2,71,371,fixed_delta,0.03841730837928436,0.012782208620853738,,,,,0.4457903510613208,1605,1995,1,0.65,WHITE,WHITE,True,0,0.0013999997463542968,WHITE,True,CORRECT,0.8018200999977125,801.8200999977125
5,20260325_140546,D,J,False,AUTOMATION2,2,72,372,fixed_delta,0.03841730837928436,0.012782208620853738,,,,,0.4504709442736502,1622,1978,1,0.65,WHITE,WHITE,True,0,0.0016000012692529708,WHITE,True,CORRECT,1.0062146000018402,1006.2146000018402
5,20260325_140546,D,J,False,AUTOMATION2,2,73,373,fixed_delta,0.03841730837928436,0.012782208620853738,,,,,0.4402058413899142,1585,2015,1,0.65,WHITE,WHITE,True,0,0.0015000005078036338,WHITE,True,CORRECT,0.7436870999990788,743.6870999990788
5,20260325_140546,D,J,False,AUTOMATION2,2,74,374,fixed_delta,0.03841730837928436,0.012782208620853738,,,,,0.4570584136746044,1645,1955,1,0.65,WHITE,BLACK,False,0,0.0015999976312741637,WHITE,True,CORRECT,0.7449080999977014,744.9080999977014
5,20260325_140546,D,J,False,AUTOMATION2,2,75,375,fixed_delta,0.03841730837928436,0.012782208620853738,,,,,0.45837951122460907,1650,1950,1,0.65,WHITE,WHITE,True,0,0.0015000005078036338,WHITE,True,CORRECT,0.6865179000014905,686.5179000014905
5,20260325_140546,D,J,False,AUTOMATION2,2,76,376,fixed_delta,0.03841730837928436,0.012782208620853738,,,,,0.5294515523630973,1906,1694,1,0.65,BLACK,WHITE,False,0,0.0017999991541728377,BLACK,True,CORRECT,0.9128176999984134,912.8176999984134
5,20260325_140546,D,J,False,AUTOMATION2,2,77,377,fixed_delta,0.03841730837928436,0.012782208620853738,,,,,0.5291322627802997,1905,1695,1,0.65,BLACK,WHITE,False,0,0.0013999997463542968,BLACK,True,CORRECT,0.6690546999998332,669.0546999998332
5,20260325_140546,D,J,False,AUTOMATION2,2,78,378,fixed_delta,0.03841730837928436,0.012782208620853738,,,,,0.45869091504802995,1651,1949,1,0.65,WHITE,WHITE,True,0,0.0015000005078036338,WHITE,True,CORRECT,0.8395325999990746,839.5325999990746
5,20260325_140546,D,J,False,AUTOMATION2,2,79,379,fixed_delta,0.03841730837928436,0.012782208620853738,,,,,0.4423918163774154,1593,2007,1,0.65,WHITE,WHITE,True,0,0.0016000012692529708,WHITE,True,CORRECT,1.3137658999985433,1313.7658999985433
5,20260325_140546,D,J,False,AUTOMATION2,2,80,380,fixed_delta,0.03841730837928436,0.012782208620853738,,,,,0.4606037192335634,1658,1942,1,0.65,WHITE,BLACK,False,0,0.0015000005078036338,BLACK,False,INCORRECT,0.6765011999996204,676.5011999996204
5,20260325_140546,D,J,False,AUTOMATION2,2,81,381,fixed_delta,0.03841730837928436,0.012782208620853738,,,,,0.547722756561512,1972,1628,1,0.65,BLACK,WHITE,False,0,0.0015999976312741637,BLACK,True,CORRECT,0.79944279999836,799.44279999836
5,20260325_140546,D,J,False,AUTOMATION2,2,82,382,fixed_delta,0.03841730837928436,0.012782208620853738,,,,,0.5385329734016476,1939,1661,1,0.65,BLACK,WHITE,False,0,0.0014999968698248267,BLACK,True,CORRECT,1.2216882999964582,1221.6882999964582
5,20260325_140546,D,J,False,AUTOMATION2,2,83,383,fixed_delta,0.03841730837928436,0.012782208620853738,,,,,0.5287454985430283,1903,1697,1,0.65,BLACK,BLACK,True,0,0.001400003384333104,BLACK,True,CORRECT,0.6393912000021373,639.3912000021373
5,20260325_140546,D,J,False,AUTOMATION2,2,84,384,fixed_delta,0.03841730837928436,0.012782208620853738,,,,,0.45810735393106267,1649,1951,1,0.65,WHITE,BLACK,False,0,0.0015000005078036338,WHITE,True,CORRECT,1.1516307000019879,1151.6307000019879
5,20260325_140546,D,J,False,AUTOMATION2,2,85,385,fixed_delta,0.03841730837928436,0.012782208620853738,,,,,0.45457769713868973,1636,1964,1,0.65,WHITE,WHITE,True,0,0.0015000005078036338,WHITE,True,CORRECT,0.8623110000007728,862.3110000007728
5,20260325_140546,D,J,False,AUTOMATION2,2,86,386,fixed_delta,0.03841730837928436,0.012782208620853738,,,,,0.5377164480255598,1936,1664,1,0.65,BLACK,WHITE,False,0,0.0015999976312741637,BLACK,True,CORRECT,0.9890094000002136,989.0094000002136
5,20260325_140546,D,J,False,AUTOMATION2,2,87,387,fixed_delta,0.03841730837928436,0.012782208620853738,,,,,0.4535839312340108,1633,1967,1,0.65,WHITE,BLACK,False,0,0.0016000012692529708,WHITE,True,CORRECT,0.7496017000012216,749.6017000012216
5,20260325_140546,D,J,False,AUTOMATION2,2,88,388,fixed_delta,0.03841730837928436,0.012782208620853738,,,,,0.5451984644020774,1963,1637,1,0.65,BLACK,WHITE,False,0,0.0013999997463542968,BLACK,True,CORRECT,0.9778463000002375,977.8463000002375
5,20260325_140546,D,J,False,AUTOMATION2,2,89,389,fixed_delta,0.03841730837928436,0.012782208620853738,,,,,0.4719430757984449,1699,1901,1,0.65,WHITE,BLACK,False,0,0.0018999999156221747,WHITE,True,CORRECT,0.7344190000003437,734.4190000003437
5,20260325_140546,D,J,False,AUTOMATION2,2,90,390,fixed_delta,0.03841730837928436,0.012782208620853738,,,,,0.44346519199748113,1596,2004,1,0.65,WHITE,BLACK,False,0,0.0015999976312741637,WHITE,True,CORRECT,0.7793771999968158,779.3771999968158
5,20260325_140546,D,J,False,AUTOMATION2,2,91,391,fixed_delta,0.03841730837928436,0.012782208620853738,,,,,0.5408893174408073,1947,1653,1,0.65,BLACK,BLACK,True,0,0.0017000020307023078,BLACK,True,CORRECT,0.9816253999997571,981.6253999997571
5,20260325_140546,D,J,False,AUTOMATION2,2,92,392,fixed_delta,0.03841730837928436,0.012782208620853738,,,,,0.45017444138070173,1621,1979,1,0.65,WHITE,WHITE,True,0,0.0013999997463542968,WHITE,True,CORRECT,0.7139534999987518,713.9534999987518
5,20260325_140546,D,J,False,AUTOMATION2,2,93,393,fixed_delta,0.03841730837928436,0.012782208620853738,,,,,0.4652075129267792,1675,1925,1,0.65,WHITE,WHITE,True,0,0.0013999997463542968,WHITE,True,CORRECT,1.0815250999985437,1081.5250999985437
5,20260325_140546,D,J,False,AUTOMATION2,2,94,394,fixed_delta,0.03841730837928436,0.012782208620853738,,,,,0.4567219150664899,1644,1956,1,0.65,WHITE,BLACK,False,0,0.0015999976312741637,WHITE,True,CORRECT,0.7376579999981914,737.6579999981914
5,20260325_140546,D,J,False,AUTOMATION2,2,95,395,fixed_delta,0.03841730837928436,0.012782208620853738,,,,,0.45195489803948685,1627,1973,1,0.65,WHITE,WHITE,True,0,0.0013000026228837669,WHITE,True,CORRECT,1.406115800000407,1406.115800000407
5,20260325_140546,D,J,False,AUTOMATION2,2,96,396,fixed_delta,0.03841730837928436,0.012782208620853738,,,,,0.5360176204923466,1930,1670,1,0.65,BLACK,BLACK,True,0,0.0015000005078036338,BLACK,True,CORRECT,0.7883564000003389,788.3564000003389
5,20260325_140546,D,J,False,AUTOMATION2,2,97,397,fixed_delta,0.03841730837928436,0.012782208620853738,,,,,0.5305697129308076,1910,1690,1,0.65,BLACK,BLACK,True,0,0.0018999999156221747,BLACK,True,CORRECT,0.6906396000013046,690.6396000013046
5,20260325_140546,D,J,False,AUTOMATION2,2,98,398,fixed_delta,0.03841730837928436,0.012782208620853738,,,,,0.4687701799723074,1688,1912,1,0.65,WHITE,WHITE,True,0,0.0013999997463542968,WHITE,True,CORRECT,0.656823199999053,656.823199999053
5,20260325_140546,D,J,False,AUTOMATION2,2,99,399,fixed_delta,0.03841730837928436,0.012782208620853738,,,,,0.5401203300360886,1944,1656,1,0.65,BLACK,BLACK,True,0,0.0016000012692529708,BLACK,True,CORRECT,0.9595953000025474,959.5953000025474
5,20260325_140546,D,J,False,AUTOMATION2,2,100,400,fixed_delta,0.03841730837928436,0.012782208620853738,,,,,0.4478938951256062,1612,1988,1,0.65,WHITE,BLACK,False,0,0.0021999985619913787,WHITE,True,CORRECT,0.6647641999988991,664.7641999988991
5,20260325_140546,D,J,False,AUTOMATION2,2,101,401,fixed_delta,0.03841730837928436,0.012782208620853738,,,,,0.5214064776174165,1877,1723,1,0.65,BLACK,BLACK,True,0,0.0018999999156221747,BLACK,True,CORRECT,0.8262665999973251,826.2665999973251
5,20260325_140546,D,J,False,AUTOMATION2,2,102,402,fixed_delta,0.03841730837928436,0.012782208620853738,,,,,0.5615848704882613,2022,1578,1,0.65,BLACK,BLACK,True,0,0.0020000006770715117,BLACK,True,CORRECT,0.7983983000012813,798.3983000012813
5,20260325_140546,D,J,False,AUTOMATION2,2,103,403,fixed_delta,0.03841730837928436,0.012782208620853738,,,,,0.5336001744897687,1921,1679,1,0.65,BLACK,WHITE,False,0,0.0012999989849049598,WHITE,False,INCORRECT,0.910273600002256,910.273600002256
5,20260325_140546,D,J,False,AUTOMATION2,2,104,404,fixed_delta,0.03841730837928436,0.012782208620853738,,,,,0.45814905028832814,1649,1951,1,0.65,WHITE,BLACK,False,0,0.0016000012692529708,WHITE,True,CORRECT,0.6588800999998057,658.8800999998057
5,20260325_140546,D,J,False,AUTOMATION2,2,105,405,fixed_delta,0.03841730837928436,0.012782208620853738,,,,,0.462687793023372,1666,1934,1,0.65,WHITE,BLACK,False,0,0.0018999999156221747,WHITE,True,CORRECT,1.382283799997822,1382.283799997822
5,20260325_140546,D,J,False,AUTOMATION2,2,106,406,fixed_delta,0.03841730837928436,0.012782208620853738,,,,,0.525853837000096,1893,1707,1,0.65,BLACK,BLACK,True,0,0.0013999997463542968,BLACK,True,CORRECT,1.0500265999980911,1050.0265999980911
5,20260325_140546,D,J,False,AUTOMATION2,2,107,407,fixed_delta,0.03841730837928436,0.012782208620853738,,,,,0.532850260273518,1918,1682,1,0.65,BLACK,BLACK,True,0,0.0016000012692529708,BLACK,True,CORRECT,0.941828600000008,941.828600000008
5,20260325_140546,D,J,False,AUTOMATION2,2,108,408,fixed_delta,0.03841730837928436,0.012782208620853738,,,,,0.5259586810850616,1893,1707,1,0.65,BLACK,BLACK,True,0,0.0015999976312741637,BLACK,True,CORRECT,1.9634851999981038,1963.4851999981038
5,20260325_140546,D,J,False,AUTOMATION2,2,109,409,fixed_delta,0.03841730837928436,0.012782208620853738,,,,,0.5276089449547201,1899,1701,1,0.65,BLACK,WHITE,False,0,0.0021999985619913787,WHITE,False,INCORRECT,0.7843590999982553,784.3590999982553
5,20260325_140546,D,J,False,AUTOMATION2,2,110,410,fixed_delta,0.03841730837928436,0.012782208620853738,,,,,0.5265958705376658,1896,1704,1,0.65,BLACK,BLACK,True,0,0.0015000005078036338,WHITE,False,INCORRECT,0.8764585999997507,876.4585999997507
5,20260325_140546,D,J,False,AUTOMATION2,2,111,411,fixed_delta,0.03841730837928436,0.012782208620853738,,,,,0.5587710466677889,2012,1588,1,0.65,BLACK,BLACK,True,0,0.0018999999156221747,BLACK,True,CORRECT,1.4558555000003253,1455.8555000003253
5,20260325_140546,D,J,False,AUTOMATION2,2,112,412,fixed_delta,0.03841730837928436,0.012782208620853738,,,,,0.5469879022579072,1969,1631,1,0.65,BLACK,WHITE,False,0,0.0013999997463542968,WHITE,False,INCORRECT,0.9967414999991888,996.7414999991888
5,20260325_140546,D,J,False,AUTOMATION2,2,113,413,fixed_delta,0.03841730837928436,0.012782208620853738,,,,,0.46191078206513414,1663,1937,1,0.65,WHITE,WHITE,True,0,0.0017000020307023078,WHITE,True,CORRECT,0.7502076999990095,750.2076999990095
5,20260325_140546,D,J,False,AUTOMATION2,2,114,414,fixed_delta,0.03841730837928436,0.012782208620853738,,,,,0.5240954756292712,1887,1713,1,0.65,BLACK,WHITE,False,0,0.0013999997463542968,WHITE,False,INCORRECT,1.789734000001772,1789.734000001772
5,20260325_140546,D,J,False,AUTOMATION2,2,115,415,fixed_delta,0.03841730837928436,0.012782208620853738,,,,,0.4624975138125528,1665,1935,1,0.65,WHITE,WHITE,True,0,0.0017999991541728377,WHITE,True,CORRECT,1.0895834999973886,1089.5834999973886
5,20260325_140546,D,J,False,AUTOMATION2,2,116,416,fixed_delta,0.03841730837928436,0.012782208620853738,,,,,0.4669128298385427,1681,1919,1,0.65,WHITE,WHITE,True,0,0.0016999983927235007,WHITE,True,CORRECT,0.711039099998743,711.039099998743
5,20260325_140546,D,J,False,AUTOMATION2,2,117,417,fixed_delta,0.03841730837928436,0.012782208620853738,,,,,0.5291077385128214,1905,1695,1,0.65,BLACK,BLACK,True,0,0.0017999991541728377,BLACK,True,CORRECT,1.2527655999983835,1252.7655999983835
5,20260325_140546,D,J,False,AUTOMATION2,2,118,418,fixed_delta,0.03841730837928436,0.012782208620853738,,,,,0.5395009119938781,1942,1658,1,0.65,BLACK,BLACK,True,0,0.0012999989849049598,BLACK,True,CORRECT,1.0837953999980527,1083.7953999980527
5,20260325_140546,D,J,False,AUTOMATION2,2,119,419,fixed_delta,0.03841730837928436,0.012782208620853738,,,,,0.4754011974934399,1711,1889,1,0.65,WHITE,BLACK,False,0,0.0015000005078036338,WHITE,True,CORRECT,1.1512046000025293,1151.2046000025293
5,20260325_140546,D,J,False,AUTOMATION2,2,120,420,fixed_delta,0.03841730837928436,0.012782208620853738,,,,,0.4447225785381967,1601,1999,1,0.65,WHITE,WHITE,True,0,0.0016000012692529708,WHITE,True,CORRECT,0.8118562999989081,811.8562999989081
5,20260325_140546,D,J,False,AUTOMATION2,2,121,421,fixed_delta,0.03841730837928436,0.012782208620853738,,,,,0.5484952781880842,1975,1625,1,0.65,BLACK,BLACK,True,0,0.0018999999156221747,BLACK,True,CORRECT,0.9167144999992161,916.7144999992161
5,20260325_140546,D,J,False,AUTOMATION2,2,122,422,fixed_delta,0.03841730837928436,0.012782208620853738,,,,,0.4596865369687789,1655,1945,1,0.65,WHITE,BLACK,False,0,0.0020000006770715117,WHITE,True,CORRECT,1.0115230000010342,1011.5230000010342
5,20260325_140546,D,J,False,AUTOMATION2,2,123,423,fixed_delta,0.03841730837928436,0.012782208620853738,,,,,0.4505125597550665,1622,1978,1,0.65,WHITE,WHITE,True,0,0.0012000018614344299,WHITE,True,CORRECT,0.6842457999991893,684.2457999991893
5,20260325_140546,D,J,False,AUTOMATION2,2,124,424,fixed_delta,0.03841730837928436,0.012782208620853738,,,,,0.5651584985683443,2035,1565,1,0.65,BLACK,BLACK,True,0,0.0015000005078036338,BLACK,True,CORRECT,0.671157900000253,671.157900000253
5,20260325_140546,D,J,False,AUTOMATION2,2,125,425,fixed_delta,0.03841730837928436,0.012782208620853738,,,,,0.5511597443759821,1984,1616,1,0.65,BLACK,WHITE,False,0,0.0016000012692529708,BLACK,True,CORRECT,1.0726524000019708,1072.6524000019708
5,20260325_140546,D,J,False,AUTOMATION2,2,126,426,fixed_delta,0.03841730837928436,0.012782208620853738,,,,,0.47561871954137686,1712,1888,1,0.65,WHITE,WHITE,True,0,0.0015000005078036338,WHITE,True,CORRECT,0.6826474999979837,682.6474999979837
5,20260325_140546,D,J,False,AUTOMATION2,2,127,427,fixed_delta,0.03841730837928436,0.012782208620853738,,,,,0.5344265370835739,1924,1676,1,0.65,BLACK,BLACK,True,0,0.0013999997463542968,BLACK,True,CORRECT,0.8605721999992966,860.5721999992966
5,20260325_140546,D,J,False,AUTOMATION2,2,128,428,fixed_delta,0.03841730837928436,0.012782208620853738,,,,,0.5302978424138137,1909,1691,1,0.65,BLACK,WHITE,False,0,0.0013999997463542968,BLACK,True,CORRECT,0.721900700002152,721.900700002152
5,20260325_140546,D,J,False,AUTOMATION2,2,129,429,fixed_delta,0.03841730837928436,0.012782208620853738,,,,,0.4668167623767791,1681,1919,1,0.65,WHITE,WHITE,True,0,0.0016000012692529708,WHITE,True,CORRECT,0.9109838000003947,910.9838000003947
5,20260325_140546,D,J,False,AUTOMATION2,2,130,430,fixed_delta,0.03841730837928436,0.012782208620853738,,,,,0.5717067449669512,2058,1542,1,0.65,BLACK,WHITE,False,0,0.0015000005078036338,BLACK,True,CORRECT,0.72094030000153,720.94030000153
5,20260325_140546,D,J,False,AUTOMATION2,2,131,431,fixed_delta,0.03841730837928436,0.012782208620853738,,,,,0.4529482242229306,1631,1969,1,0.65,WHITE,WHITE,True,0,0.0017999991541728377,WHITE,True,CORRECT,0.7136480000008305,713.6480000008305
5,20260325_140546,D,J,False,AUTOMATION2,2,132,432,fixed_delta,0.03841730837928436,0.012782208620853738,,,,,0.4812178005357236,1732,1868,1,0.65,WHITE,BLACK,False,0,0.0015000005078036338,WHITE,True,CORRECT,3.3453487000006135,3345.3487000006135
5,20260325_140546,D,J,False,AUTOMATION2,2,133,433,fixed_delta,0.03841730837928436,0.012782208620853738,,,,,0.5280034404129099,1901,1699,1,0.65,BLACK,BLACK,True,0,0.0016000012692529708,BLACK,True,CORRECT,0.8459891000020434,845.9891000020434
5,20260325_140546,D,J,False,AUTOMATION2,2,134,434,fixed_delta,0.03841730837928436,0.012782208620853738,,,,,0.4941981198746648,1779,1821,1,0.65,WHITE,WHITE,True,0,0.0016000012692529708,WHITE,True,CORRECT,0.7027502000019012,702.7502000019012
5,20260325_140546,D,J,False,AUTOMATION2,2,135,435,fixed_delta,0.03841730837928436,0.012782208620853738,,,,,0.4862816548893598,1751,1849,1,0.65,WHITE,WHITE,True,0,0.0013999997463542968,WHITE,True,CORRECT,1.7453817000023264,1745.3817000023264
5,20260325_140546,D,J,False,AUTOMATION2,2,136,436,fixed_delta,0.03841730837928436,0.012782208620853738,,,,,0.5542961347425104,1995,1605,1,0.65,BLACK,BLACK,True,0,0.0016000012692529708,BLACK,True,CORRECT,0.7545484000002034,754.5484000002034
5,20260325_140546,D,J,False,AUTOMATION2,2,137,437,fixed_delta,0.03841730837928436,0.012782208620853738,,,,,0.5500231213228254,1980,1620,1,0.65,BLACK,BLACK,True,0,0.0015000005078036338,BLACK,True,CORRECT,0.6619343999991543,661.9343999991543
5,20260325_140546,D,J,False,AUTOMATION2,2,138,438,fixed_delta,0.03841730837928436,0.012782208620853738,,,,,0.43109438441992926,1552,2048,1,0.65,WHITE,WHITE,True,0,0.0018999999156221747,WHITE,True,CORRECT,0.6481373999995412,648.1373999995412
5,20260325_140546,D,J,False,AUTOMATION2,2,139,439,fixed_delta,0.03841730837928436,0.012782208620853738,,,,,0.5298087988793138,1907,1693,1,0.65,BLACK,BLACK,True,0,0.0013999997463542968,BLACK,True,CORRECT,0.8034778000001097,803.4778000001097
5,20260325_140546,D,J,False,AUTOMATION2,2,140,440,fixed_delta,0.03841730837928436,0.012782208620853738,,,,,0.5392095097877758,1941,1659,1,0.65,BLACK,WHITE,False,0,0.0013999997463542968,WHITE,False,INCORRECT,2.287506199998461,2287.506199998461
5,20260325_140546,D,J,False,AUTOMATION2,2,141,441,fixed_delta,0.03841730837928436,0.012782208620853738,,,,,0.4617889342770942,1662,1938,1,0.65,WHITE,WHITE,True,0,0.0015000005078036338,WHITE,True,CORRECT,1.2781842000003962,1278.1842000003962
5,20260325_140546,D,J,False,AUTOMATION2,2,142,442,fixed_delta,0.03841730837928436,0.012782208620853738,,,,,0.558563212190339,2011,1589,1,0.65,BLACK,BLACK,True,0,0.0017000020307023078,BLACK,True,CORRECT,0.6991611000012199,699.1611000012199
5,20260325_140546,D,J,False,AUTOMATION2,2,143,443,fixed_delta,0.03841730837928436,0.012782208620853738,,,,,0.541847805778001,1951,1649,1,0.65,BLACK,BLACK,True,0,0.0015000005078036338,BLACK,True,CORRECT,1.3890604999978677,1389.0604999978677
5,20260325_140546,D,J,False,AUTOMATION2,2,144,444,fixed_delta,0.03841730837928436,0.012782208620853738,,,,,0.5205425728467482,1874,1726,1,0.65,BLACK,WHITE,False,0,0.0017999991541728377,WHITE,False,INCORRECT,1.0372749999987718,1037.2749999987718
5,20260325_140546,D,J,False,AUTOMATION2,2,145,445,fixed_delta,0.03841730837928436,0.012782208620853738,,,,,0.5317977922410577,1914,1686,1,0.65,BLACK,WHITE,False,0,0.0016000012692529708,WHITE,False,INCORRECT,1.2441333000024315,1244.1333000024315
5,20260325_140546,D,J,False,AUTOMATION2,2,146,446,fixed_delta,0.03841730837928436,0.012782208620853738,,,,,0.4486255910814741,1615,1985,1,0.65,WHITE,BLACK,False,0,0.0012999989849049598,WHITE,True,CORRECT,0.6826661000013701,682.6661000013701
5,20260325_140546,D,J,False,AUTOMATION2,2,147,447,fixed_delta,0.03841730837928436,0.012782208620853738,,,,,0.5541988021460624,1995,1605,1,0.65,BLACK,WHITE,False,0,0.0016000012692529708,BLACK,True,CORRECT,0.6405554000011762,640.5554000011762
5,20260325_140546,D,J,False,AUTOMATION2,2,148,448,fixed_delta,0.03841730837928436,0.012782208620853738,,,,,0.5493190441158026,1978,1622,1,0.65,BLACK,BLACK,True,0,0.0014999968698248267,BLACK,True,CORRECT,1.7986892999979318,1798.6892999979318
5,20260325_140546,D,J,False,AUTOMATION2,2,149,449,fixed_delta,0.03841730837928436,0.012782208620853738,,,,,0.5455267938538435,1964,1636,1,0.65,BLACK,WHITE,False,0,0.0016000012692529708,BLACK,True,CORRECT,0.7407594000032987,740.7594000032987
5,20260325_140546,D,J,False,AUTOMATION2,2,150,450,fixed_delta,0.03841730837928436,0.012782208620853738,,,,,0.4606174767640693,1658,1942,1,0.65,WHITE,WHITE,True,0,0.0014999968698248267,WHITE,True,CORRECT,0.8634022999976878,863.4022999976878
5,20260325_140546,D,J,False,AUTOMATION2,2,151,451,fixed_delta,0.03841730837928436,0.012782208620853738,,,,,0.523455671989804,1884,1716,1,0.65,BLACK,BLACK,True,0,0.0012999989849049598,BLACK,True,CORRECT,0.626529400000436,626.529400000436
5,20260325_140546,D,J,False,AUTOMATION2,2,152,452,fixed_delta,0.03841730837928436,0.012782208620853738,,,,,0.46916497544552815,1689,1911,1,0.65,WHITE,WHITE,True,0,0.0016000012692529708,WHITE,True,CORRECT,0.6718525000032969,671.8525000032969
5,20260325_140546,D,J,False,AUTOMATION2,2,153,453,fixed_delta,0.03841730837928436,0.012782208620853738,,,,,0.5550893482216843,1998,1602,1,0.65,BLACK,WHITE,False,0,0.0017000020307023078,BLACK,True,CORRECT,0.711350700003095,711.350700003095
5,20260325_140546,D,J,False,AUTOMATION2,2,154,454,fixed_delta,0.03841730837928436,0.012782208620853738,,,,,0.4500800833133668,1620,1980,1,0.65,WHITE,WHITE,True,0,0.0013999997463542968,WHITE,True,CORRECT,0.6123487000004388,612.3487000004388
5,20260325_140546,D,J,False,AUTOMATION2,2,155,455,fixed_delta,0.03841730837928436,0.012782208620853738,,,,,0.5277686624426751,1900,1700,1,0.65,BLACK,WHITE,False,0,0.0016000012692529708,BLACK,True,CORRECT,0.76111149999997,761.11149999997
5,20260325_140546,D,J,False,AUTOMATION2,2,156,456,fixed_delta,0.03841730837928436,0.012782208620853738,,,,,0.5348223324528755,1925,1675,1,0.65,BLACK,BLACK,True,0,0.0018000027921516448,BLACK,True,CORRECT,0.8773706000029051,877.3706000029051
5,20260325_140546,D,J,False,AUTOMATION2,2,157,457,fixed_delta,0.03841730837928436,0.012782208620853738,,,,,0.4684343440965289,1686,1914,1,0.65,WHITE,BLACK,False,0,0.0016000012692529708,WHITE,True,CORRECT,0.6934646000008797,693.4646000008797
5,20260325_140546,D,J,False,AUTOMATION2,2,158,458,fixed_delta,0.03841730837928436,0.012782208620853738,,,,,0.5424897699470225,1953,1647,1,0.65,BLACK,BLACK,True,0,0.0018999999156221747,BLACK,True,CORRECT,0.7834942000008596,783.4942000008596
5,20260325_140546,D,J,False,AUTOMATION2,2,159,459,fixed_delta,0.03841730837928436,0.012782208620853738,,,,,0.4632842750660627,1668,1932,1,0.65,WHITE,WHITE,True,0,0.0016000012692529708,WHITE,True,CORRECT,0.6552360999994562,655.2360999994562
5,20260325_140546,D,J,False,AUTOMATION2,2,160,460,fixed_delta,0.03841730837928436,0.012782208620853738,,,,,0.5364647995993316,1931,1669,1,0.65,BLACK,WHITE,False,0,0.0015000005078036338,WHITE,False,INCORRECT,1.8080450000015844,1808.0450000015844
5,20260325_140546,D,J,False,AUTOMATION2,2,161,461,fixed_delta,0.03841730837928436,0.012782208620853738,,,,,0.5226995792866577,1882,1718,1,0.65,BLACK,BLACK,True,0,0.0015000005078036338,BLACK,True,CORRECT,0.7163231999984419,716.3231999984419
5,20260325_140546,D,J,False,AUTOMATION2,2,162,462,fixed_delta,0.03841730837928436,0.012782208620853738,,,,,0.5460557053802106,1966,1634,1,0.65,BLACK,BLACK,True,0,0.0017999991541728377,WHITE,False,INCORRECT,1.2287963000017044,1228.7963000017044
5,20260325_140546,D,J,False,AUTOMATION2,2,163,463,fixed_delta,0.03841730837928436,0.012782208620853738,,,,,0.4641311720069676,1671,1929,1,0.65,WHITE,WHITE,True,0,0.0013999997463542968,WHITE,True,CORRECT,0.9369987000027322,936.9987000027322
5,20260325_140546,D,J,False,AUTOMATION2,2,164,464,fixed_delta,0.03841730837928436,0.012782208620853738,,,,,0.45362898127442014,1633,1967,1,0.65,WHITE,WHITE,True,0,0.0016000012692529708,WHITE,True,CORRECT,0.6407085999999254,640.7085999999254
5,20260325_140546,D,J,False,AUTOMATION2,2,165,465,fixed_delta,0.03841730837928436,0.012782208620853738,,,,,0.5460508696158874,1966,1634,1,0.65,BLACK,BLACK,True,0,0.0013999997463542968,BLACK,True,CORRECT,0.8598897999982,859.8897999982
5,20260325_140546,D,J,False,AUTOMATION2,2,166,466,fixed_delta,0.03841730837928436,0.012782208620853738,,,,,0.5340645803833254,1923,1677,1,0.65,BLACK,WHITE,False,0,0.0013999997463542968,WHITE,False,INCORRECT,0.6273078000012902,627.3078000012902
5,20260325_140546,D,J,False,AUTOMATION2,2,167,467,fixed_delta,0.03841730837928436,0.012782208620853738,,,,,0.5627343575996296,2026,1574,1,0.65,BLACK,BLACK,True,0,0.0015000005078036338,BLACK,True,CORRECT,1.2370641000015894,1237.0641000015894
5,20260325_140546,D,J,False,AUTOMATION2,2,168,468,fixed_delta,0.03841730837928436,0.012782208620853738,,,,,0.5403880290992681,1945,1655,1,0.65,BLACK,BLACK,True,0,0.0015000005078036338,BLACK,True,CORRECT,1.0741749000007985,1074.1749000007985
5,20260325_140546,D,J,False,AUTOMATION2,2,169,469,fixed_delta,0.03841730837928436,0.012782208620853738,,,,,0.5460275119828296,1966,1634,1,0.65,BLACK,BLACK,True,0,0.0016000012692529708,WHITE,False,INCORRECT,0.9080766000006406,908.0766000006406
5,20260325_140546,D,J,False,AUTOMATION2,2,170,470,fixed_delta,0.03841730837928436,0.012782208620853738,,,,,0.4562355072251363,1642,1958,1,0.65,WHITE,WHITE,True,0,0.0018000027921516448,WHITE,True,CORRECT,0.7106007000002137,710.6007000002137
5,20260325_140546,D,J,False,AUTOMATION2,2,171,471,fixed_delta,0.03841730837928436,0.012782208620853738,,,,,0.4642392305429155,1671,1929,1,0.65,WHITE,WHITE,True,0,0.0015000005078036338,WHITE,True,CORRECT,0.6860087999993993,686.0087999993993
5,20260325_140546,D,J,False,AUTOMATION2,2,172,472,fixed_delta,0.03841730837928436,0.012782208620853738,,,,,0.5244518295870865,1888,1712,1,0.65,BLACK,BLACK,True,0,0.0014999968698248267,BLACK,True,CORRECT,0.7600337999974727,760.0337999974727
5,20260325_140546,D,J,False,AUTOMATION2,2,173,473,fixed_delta,0.03841730837928436,0.012782208620853738,,,,,0.5388401912515264,1940,1660,1,0.65,BLACK,BLACK,True,0,0.0015999976312741637,WHITE,False,INCORRECT,0.759321399997134,759.321399997134
5,20260325_140546,D,J,False,AUTOMATION2,2,174,474,fixed_delta,0.03841730837928436,0.012782208620853738,,,,,0.5405334508139176,1946,1654,1,0.65,BLACK,BLACK,True,0,0.0017999991541728377,BLACK,True,CORRECT,1.057508300000336,1057.508300000336
5,20260325_140546,D,J,False,AUTOMATION2,2,175,475,fixed_delta,0.03841730837928436,0.012782208620853738,,,,,0.4663267085036291,1679,1921,1,0.65,WHITE,WHITE,True,0,0.0018999999156221747,WHITE,True,CORRECT,0.5838507000007667,583.8507000007667
5,20260325_140546,D,J,False,AUTOMATION2,2,176,476,fixed_delta,0.03841730837928436,0.012782208620853738,,,,,0.455110928761036,1638,1962,1,0.65,WHITE,BLACK,False,0,0.0016000012692529708,WHITE,True,CORRECT,0.6284584000022733,628.4584000022733
5,20260325_140546,D,J,False,AUTOMATION2,2,177,477,fixed_delta,0.03841730837928436,0.012782208620853738,,,,,0.45414582789090796,1635,1965,1,0.65,WHITE,BLACK,False,0,0.0018999999156221747,WHITE,True,CORRECT,1.0318693000008352,1031.8693000008352
5,20260325_140546,D,J,False,AUTOMATION2,2,178,478,fixed_delta,0.03841730837928436,0.012782208620853738,,,,,0.46362920287696957,1669,1931,1,0.65,WHITE,BLACK,False,0,0.0012999989849049598,WHITE,True,CORRECT,0.6229987000006076,622.9987000006076
5,20260325_140546,D,J,False,AUTOMATION2,2,179,479,fixed_delta,0.03841730837928436,0.012782208620853738,,,,,0.5428485853881161,1954,1646,1,0.65,BLACK,BLACK,True,0,0.0017000020307023078,BLACK,True,CORRECT,0.7333127000019886,733.3127000019886
5,20260325_140546,D,J,False,AUTOMATION2,2,180,480,fixed_delta,0.03841730837928436,0.012782208620853738,,,,,0.4865688055496267,1752,1848,1,0.65,WHITE,WHITE,True,0,0.0016999983927235007,BLACK,False,INCORRECT,0.8213513000009698,821.3513000009698
5,20260325_140546,D,J,False,AUTOMATION2,2,181,481,fixed_delta,0.03841730837928436,0.012782208620853738,,,,,0.4378923053551005,1576,2024,1,0.65,WHITE,BLACK,False,0,0.0013999997463542968,WHITE,True,CORRECT,1.2468641000014031,1246.8641000014031
5,20260325_140546,D,J,False,AUTOMATION2,2,182,482,fixed_delta,0.03841730837928436,0.012782208620853738,,,,,0.5210838793255408,1876,1724,1,0.65,BLACK,BLACK,True,0,0.0016999983927235007,BLACK,True,CORRECT,1.0178099000004295,1017.8099000004295
5,20260325_140546,D,J,False,AUTOMATION2,2,183,483,fixed_delta,0.03841730837928436,0.012782208620853738,,,,,0.5123852746181329,1845,1755,1,0.65,BLACK,BLACK,True,0,0.0020000006770715117,WHITE,False,INCORRECT,1.0346809000002395,1034.6809000002395
5,20260325_140546,D,J,False,AUTOMATION2,2,184,484,fixed_delta,0.03841730837928436,0.012782208620853738,,,,,0.4698198070162538,1691,1909,1,0.65,WHITE,WHITE,True,0,0.0013999997463542968,WHITE,True,CORRECT,1.4086136000005354,1408.6136000005354
5,20260325_140546,D,J,False,AUTOMATION2,2,185,485,fixed_delta,0.03841730837928436,0.012782208620853738,,,,,0.5428519800529922,1954,1646,1,0.65,BLACK,BLACK,True,0,0.0014999968698248267,BLACK,True,CORRECT,0.6417297999978473,641.7297999978473
5,20260325_140546,D,J,False,AUTOMATION2,2,186,486,fixed_delta,0.03841730837928436,0.012782208620853738,,,,,0.4720723265198502,1699,1901,1,0.65,WHITE,WHITE,True,0,0.0017000020307023078,WHITE,True,CORRECT,0.7236531000016839,723.6531000016839
5,20260325_140546,D,J,False,AUTOMATION2,2,187,487,fixed_delta,0.03841730837928436,0.012782208620853738,,,,,0.4766921683344355,1716,1884,1,0.65,WHITE,WHITE,True,0,0.0013999997463542968,WHITE,True,CORRECT,0.9199474999986705,919.9474999986705
5,20260325_140546,D,J,False,AUTOMATION2,2,188,488,fixed_delta,0.03841730837928436,0.012782208620853738,,,,,0.44839336153073794,1614,1986,1,0.65,WHITE,WHITE,True,0,0.0012999989849049598,WHITE,True,CORRECT,0.7821010000006936,782.1010000006936
5,20260325_140546,D,J,False,AUTOMATION2,2,189,489,fixed_delta,0.03841730837928436,0.012782208620853738,,,,,0.4658681649006418,1677,1923,1,0.65,WHITE,WHITE,True,0,0.0020000006770715117,WHITE,True,CORRECT,0.6959511999993993,695.9511999993993
5,20260325_140546,D,J,False,AUTOMATION2,2,190,490,fixed_delta,0.03841730837928436,0.012782208620853738,,,,,0.4667212613072192,1680,1920,1,0.65,WHITE,BLACK,False,0,0.0016999983927235007,WHITE,True,CORRECT,1.3840071000013268,1384.0071000013268
5,20260325_140546,D,J,False,AUTOMATION2,2,191,491,fixed_delta,0.03841730837928436,0.012782208620853738,,,,,0.5349852585086377,1926,1674,1,0.65,BLACK,BLACK,True,0,0.0015000005078036338,BLACK,True,CORRECT,0.8394293000019388,839.4293000019388
5,20260325_140546,D,J,False,AUTOMATION2,2,192,492,fixed_delta,0.03841730837928436,0.012782208620853738,,,,,0.485422522291395,1748,1852,1,0.65,WHITE,WHITE,True,0,0.0017000020307023078,WHITE,True,CORRECT,0.7330118000027142,733.0118000027142
5,20260325_140546,D,J,False,AUTOMATION2,2,193,493,fixed_delta,0.03841730837928436,0.012782208620853738,,,,,0.46308529126465325,1667,1933,1,0.65,WHITE,WHITE,True,0,0.0012999989849049598,WHITE,True,CORRECT,1.038966199997958,1038.966199997958
5,20260325_140546,D,J,False,AUTOMATION2,2,194,494,fixed_delta,0.03841730837928436,0.012782208620853738,,,,,0.5316000361181256,1914,1686,1,0.65,BLACK,BLACK,True,0,0.0015000005078036338,BLACK,True,CORRECT,0.9860392999980832,986.0392999980832
5,20260325_140546,D,J,False,AUTOMATION2,2,195,495,fixed_delta,0.03841730837928436,0.012782208620853738,,,,,0.4499551773415998,1620,1980,1,0.65,WHITE,BLACK,False,0,0.0019999970390927047,WHITE,True,CORRECT,0.7569964999966032,756.9964999966032
5,20260325_140546,D,J,False,AUTOMATION2,2,196,496,fixed_delta,0.03841730837928436,0.012782208620853738,,,,,0.4604702876107197,1658,1942,1,0.65,WHITE,BLACK,False,0,0.0015999976312741637,WHITE,True,CORRECT,1.2806788999987475,1280.6788999987475
5,20260325_140546,D,J,False,AUTOMATION2,2,197,497,fixed_delta,0.03841730837928436,0.012782208620853738,,,,,0.47457221211164086,1708,1892,1,0.65,WHITE,WHITE,True,0,0.0015000005078036338,WHITE,True,CORRECT,1.9365290999994613,1936.5290999994613
5,20260325_140546,D,J,False,AUTOMATION2,2,198,498,fixed_delta,0.03841730837928436,0.012782208620853738,,,,,0.5325472841144687,1917,1683,1,0.65,BLACK,BLACK,True,0,0.0016000012692529708,BLACK,True,CORRECT,1.7267818000000261,1726.7818000000261
5,20260325_140546,D,J,False,AUTOMATION2,2,199,499,fixed_delta,0.03841730837928436,0.012782208620853738,,,,,0.5312941903544681,1913,1687,1,0.65,BLACK,BLACK,True,0,0.0016000012692529708,BLACK,True,CORRECT,0.9843003999994835,984.3003999994835
5,20260325_140546,D,J,False,AUTOMATION2,2,200,500,fixed_delta,0.03841730837928436,0.012782208620853738,,,,,0.5597212850552183,2015,1585,1,0.65,BLACK,WHITE,False,0,0.0015000005078036338,BLACK,True,CORRECT,0.7749567999999272,774.9567999999272
5,20260325_140546,D,J,False,AUTOMATION2,2,201,501,fixed_delta,0.03841730837928436,0.012782208620853738,,,,,0.44775173930415435,1612,1988,1,0.65,WHITE,WHITE,True,0,0.0018999999156221747,WHITE,True,CORRECT,0.654787600000418,654.787600000418
5,20260325_140546,D,J,False,AUTOMATION2,2,202,502,fixed_delta,0.03841730837928436,0.012782208620853738,,,,,0.46569343502095306,1676,1924,1,0.65,WHITE,WHITE,True,0,0.0015000005078036338,BLACK,False,INCORRECT,0.6720702000020538,672.0702000020538
5,20260325_140546,D,J,False,AUTOMATION2,2,203,503,fixed_delta,0.03841730837928436,0.012782208620853738,,,,,0.5458194742993462,1965,1635,1,0.65,BLACK,BLACK,True,0,0.0018999999156221747,BLACK,True,CORRECT,1.1675705000016023,1167.5705000016023
5,20260325_140546,D,J,False,AUTOMATION2,2,204,504,fixed_delta,0.03841730837928436,0.012782208620853738,,,,,0.5472367956443713,1970,1630,1,0.65,BLACK,BLACK,True,0,0.0016999983927235007,BLACK,True,CORRECT,2.501705499998934,2501.705499998934
5,20260325_140546,D,J,False,AUTOMATION2,2,205,505,fixed_delta,0.03841730837928436,0.012782208620853738,,,,,0.45817965883879286,1649,1951,1,0.65,WHITE,WHITE,True,0,0.0015000005078036338,WHITE,True,CORRECT,0.7861298999996507,786.1298999996507
5,20260325_140546,D,J,False,AUTOMATION2,2,206,506,fixed_delta,0.03841730837928436,0.012782208620853738,,,,,0.5304607486027992,1910,1690,1,0.65,BLACK,WHITE,False,0,0.0013999997463542968,BLACK,True,CORRECT,0.8442706000023463,844.2706000023463
5,20260325_140546,D,J,False,AUTOMATION2,2,207,507,fixed_delta,0.03841730837928436,0.012782208620853738,,,,,0.5087875535882667,1832,1768,1,0.65,BLACK,BLACK,True,0,0.0016999983927235007,WHITE,False,INCORRECT,3.362210100000084,3362.210100000084
5,20260325_140546,D,J,False,AUTOMATION2,2,208,508,fixed_delta,0.03841730837928436,0.012782208620853738,,,,,0.4436937651259534,1597,2003,1,0.65,WHITE,WHITE,True,0,0.0015000005078036338,WHITE,True,CORRECT,0.7724354999991192,772.4354999991192
5,20260325_140546,D,J,False,AUTOMATION2,2,209,509,fixed_delta,0.03841730837928436,0.012782208620853738,,,,,0.5387090182667498,1939,1661,1,0.65,BLACK,WHITE,False,0,0.0015000005078036338,BLACK,True,CORRECT,0.76340650000202,763.40650000202
5,20260325_140546,D,J,False,AUTOMATION2,2,210,510,fixed_delta,0.03841730837928436,0.012782208620853738,,,,,0.5233328328608677,1884,1716,1,0.65,BLACK,WHITE,False,0,0.0016999983927235007,BLACK,True,CORRECT,0.8659049999987474,865.9049999987474
5,20260325_140546,D,J,False,AUTOMATION2,2,211,511,fixed_delta,0.03841730837928436,0.012782208620853738,,,,,0.555313380656878,1999,1601,1,0.65,BLACK,BLACK,True,0,0.0016000012692529708,WHITE,False,INCORRECT,0.8940221000011661,894.0221000011661
5,20260325_140546,D,J,False,AUTOMATION2,2,212,512,fixed_delta,0.03841730837928436,0.012782208620853738,,,,,0.532340164010685,1916,1684,1,0.65,BLACK,BLACK,True,0,0.0015000005078036338,BLACK,True,CORRECT,0.8625581999986025,862.5581999986025
5,20260325_140546,D,J,False,AUTOMATION2,2,213,513,fixed_delta,0.03841730837928436,0.012782208620853738,,,,,0.5610117883136592,2020,1580,1,0.65,BLACK,BLACK,True,0,0.0013999997463542968,BLACK,True,CORRECT,0.8329894000016793,832.9894000016793
5,20260325_140546,D,J,False,AUTOMATION2,2,214,514,fixed_delta,0.03841730837928436,0.012782208620853738,,,,,0.46865847279051,1687,1913,1,0.65,WHITE,WHITE,True,0,0.0016000012692529708,WHITE,True,CORRECT,0.7399942000010924,739.9942000010924
5,20260325_140546,D,J,False,AUTOMATION2,2,215,515,fixed_delta,0.03841730837928436,0.012782208620853738,,,,,0.4454418568701805,1604,1996,1,0.65,WHITE,WHITE,True,0,0.0015000005078036338,WHITE,True,CORRECT,0.6689339000004111,668.9339000004111
5,20260325_140546,D,J,False,AUTOMATION2,2,216,516,fixed_delta,0.03841730837928436,0.012782208620853738,,,,,0.5378854811387029,1936,1664,1,0.65,BLACK,WHITE,False,0,0.0016999983927235007,WHITE,False,INCORRECT,0.9626649999991059,962.6649999991059
5,20260325_140546,D,J,False,AUTOMATION2,2,217,517,fixed_delta,0.03841730837928436,0.012782208620853738,,,,,0.541122499705354,1948,1652,1,0.65,BLACK,BLACK,True,0,0.0016999983927235007,WHITE,False,INCORRECT,0.6554589999977907,655.4589999977907
5,20260325_140546,D,J,False,AUTOMATION2,2,218,518,fixed_delta,0.03841730837928436,0.012782208620853738,,,,,0.45740279443241877,1647,1953,1,0.65,WHITE,WHITE,True,0,0.0016000012692529708,WHITE,True,CORRECT,0.6844438000007358,684.4438000007358
5,20260325_140546,D,J,False,AUTOMATION2,2,219,519,fixed_delta,0.03841730837928436,0.012782208620853738,,,,,0.5389564045362607,1940,1660,1,0.65,BLACK,BLACK,True,0,0.0016000012692529708,BLACK,True,CORRECT,0.7061893000027339,706.189300002734
5,20260325_140546,D,J,False,AUTOMATION2,2,220,520,fixed_delta,0.03841730837928436,0.012782208620853738,,,,,0.5463481677548008,1967,1633,1,0.65,BLACK,WHITE,False,0,0.0013000026228837669,BLACK,True,CORRECT,1.2300933000005898,1230.0933000005898
5,20260325_140546,D,J,False,AUTOMATION2,2,221,521,fixed_delta,0.03841730837928436,0.012782208620853738,,,,,0.4661675900534102,1678,1922,1,0.65,WHITE,WHITE,True,0,0.0015999976312741637,WHITE,True,CORRECT,0.6167466999977478,616.7466999977478
5,20260325_140546,D,J,False,AUTOMATION2,2,222,522,fixed_delta,0.03841730837928436,0.012782208620853738,,,,,0.46587926553667675,1677,1923,1,0.65,WHITE,WHITE,True,0,0.0013999997463542968,WHITE,True,CORRECT,0.8484485000008135,848.4485000008135
5,20260325_140546,D,J,False,AUTOMATION2,2,223,523,fixed_delta,0.03841730837928436,0.012782208620853738,,,,,0.4408212166654165,1587,2013,1,0.65,WHITE,WHITE,True,0,0.0015000005078036338,WHITE,True,CORRECT,0.7114865000003192,711.4865000003192
5,20260325_140546,D,J,False,AUTOMATION2,2,224,524,fixed_delta,0.03841730837928436,0.012782208620853738,,,,,0.5515191296142792,1985,1615,1,0.65,BLACK,BLACK,True,0,0.0017000020307023078,BLACK,True,CORRECT,0.7255474000012327,725.5474000012327
5,20260325_140546,D,J,False,AUTOMATION2,2,225,525,fixed_delta,0.03841730837928436,0.012782208620853738,,,,,0.4477630189701865,1612,1988,1,0.65,WHITE,WHITE,True,0,0.0015000005078036338,WHITE,True,CORRECT,1.1223045000006096,1122.3045000006096
5,20260325_140546,D,J,False,AUTOMATION2,2,226,526,fixed_delta,0.03841730837928436,0.012782208620853738,,,,,0.4683769881468985,1686,1914,1,0.65,WHITE,WHITE,True,0,0.0016999983927235007,WHITE,True,CORRECT,0.7037668999982998,703.7668999982998
5,20260325_140546,D,J,False,AUTOMATION2,2,227,527,fixed_delta,0.03841730837928436,0.012782208620853738,,,,,0.4603267672071196,1657,1943,1,0.65,WHITE,WHITE,True,0,0.0018999999156221747,WHITE,True,CORRECT,1.0732668000018748,1073.2668000018748
5,20260325_140546,D,J,False,AUTOMATION2,2,228,528,fixed_delta,0.03841730837928436,0.012782208620853738,,,,,0.4862034369104087,1750,1850,1,0.65,WHITE,BLACK,False,0,0.0013999997463542968,WHITE,True,CORRECT,0.8168124000003445,816.8124000003445
5,20260325_140546,D,J,False,AUTOMATION2,2,229,529,fixed_delta,0.03841730837928436,0.012782208620853738,,,,,0.5435927920778858,1957,1643,1,0.65,BLACK,BLACK,True,0,0.0012999989849049598,BLACK,True,CORRECT,1.5047945000005711,1504.7945000005711
5,20260325_140546,D,J,False,AUTOMATION2,2,230,530,fixed_delta,0.03841730837928436,0.012782208620853738,,,,,0.4575842224754438,1647,1953,1,0.65,WHITE,WHITE,True,0,0.0015000005078036338,WHITE,True,CORRECT,0.7303218999986711,730.3218999986711
5,20260325_140546,D,J,False,AUTOMATION2,2,231,531,fixed_delta,0.03841730837928436,0.012782208620853738,,,,,0.520426725751085,1874,1726,1,0.65,BLACK,BLACK,True,0,0.0012999989849049598,WHITE,False,INCORRECT,1.5015189000005194,1501.5189000005194
5,20260325_140546,D,J,False,AUTOMATION2,2,232,532,fixed_delta,0.03841730837928436,0.012782208620853738,,,,,0.46080464339779453,1659,1941,1,0.65,WHITE,WHITE,True,0,0.0015000005078036338,WHITE,True,CORRECT,0.6252566000002844,625.2566000002844
5,20260325_140546,D,J,False,AUTOMATION2,2,233,533,fixed_delta,0.03841730837928436,0.012782208620853738,,,,,0.4729859567393308,1703,1897,1,0.65,WHITE,WHITE,True,0,0.0015999976312741637,WHITE,True,CORRECT,1.0022306999999273,1002.2306999999273
5,20260325_140546,D,J,False,AUTOMATION2,2,234,534,fixed_delta,0.03841730837928436,0.012782208620853738,,,,,0.5235189071214358,1885,1715,1,0.65,BLACK,WHITE,False,0,0.0022000021999701858,BLACK,True,CORRECT,0.7914170000003651,791.4170000003651
5,20260325_140546,D,J,False,AUTOMATION2,2,235,535,fixed_delta,0.03841730837928436,0.012782208620853738,,,,,0.46935586484056735,1690,1910,1,0.65,WHITE,BLACK,False,0,0.0016000012692529708,WHITE,True,CORRECT,0.7284317000012379,728.4317000012379
5,20260325_140546,D,J,False,AUTOMATION2,2,236,536,fixed_delta,0.03841730837928436,0.012782208620853738,,,,,0.4599125056506482,1656,1944,1,0.65,WHITE,WHITE,True,0,0.0017999991541728377,WHITE,True,CORRECT,2.7306855999995605,2730.6855999995605
5,20260325_140546,D,J,False,AUTOMATION2,2,237,537,fixed_delta,0.03841730837928436,0.012782208620853738,,,,,0.46009090930784124,1656,1944,1,0.65,WHITE,BLACK,False,0,0.0016000012692529708,WHITE,True,CORRECT,1.147253200000705,1147.253200000705
5,20260325_140546,D,J,False,AUTOMATION2,2,238,538,fixed_delta,0.03841730837928436,0.012782208620853738,,,,,0.523091109833314,1883,1717,1,0.65,BLACK,BLACK,True,0,0.0020000006770715117,BLACK,True,CORRECT,1.1958063999991282,1195.8063999991282
5,20260325_140546,D,J,False,AUTOMATION2,2,239,539,fixed_delta,0.03841730837928436,0.012782208620853738,,,,,0.4591480314162956,1653,1947,1,0.65,WHITE,WHITE,True,0,0.0013999997463542968,WHITE,True,CORRECT,0.7198093000006338,719.8093000006338
5,20260325_140546,D,J,False,AUTOMATION2,2,240,540,fixed_delta,0.03841730837928436,0.012782208620853738,,,,,0.4882562048191799,1758,1842,1,0.65,WHITE,BLACK,False,0,0.0014999968698248267,WHITE,True,CORRECT,1.009958299997379,1009.9582999973791
5,20260325_140546,D,J,False,AUTOMATION2,2,241,541,fixed_delta,0.03841730837928436,0.012782208620853738,,,,,0.44821455234606505,1614,1986,1,0.65,WHITE,BLACK,False,0,0.0015000005078036338,WHITE,True,CORRECT,1.4876727999981085,1487.6727999981085
5,20260325_140546,D,J,False,AUTOMATION2,2,242,542,fixed_delta,0.03841730837928436,0.012782208620853738,,,,,0.4680865428635272,1685,1915,1,0.65,WHITE,WHITE,True,0,0.0013999997463542968,WHITE,True,CORRECT,0.5692507000021578,569.2507000021578
5,20260325_140546,D,J,False,AUTOMATION2,2,243,543,fixed_delta,0.03841730837928436,0.012782208620853738,,,,,0.54221506618028,1952,1648,1,0.65,BLACK,BLACK,True,0,0.0013999997463542968,BLACK,True,CORRECT,0.8670171999983722,867.0171999983722
5,20260325_140546,D,J,False,AUTOMATION2,2,244,544,fixed_delta,0.03841730837928436,0.012782208620853738,,,,,0.5234978550989468,1885,1715,1,0.65,BLACK,WHITE,False,0,0.0015000005078036338,WHITE,False,INCORRECT,0.850569500002166,850.569500002166
5,20260325_140546,D,J,False,AUTOMATION2,2,245,545,fixed_delta,0.03841730837928436,0.012782208620853738,,,,,0.45173023381842187,1626,1974,1,0.65,WHITE,WHITE,True,0,0.0018999999156221747,WHITE,True,CORRECT,0.6946389000004274,694.6389000004274
5,20260325_140546,D,J,False,AUTOMATION2,2,246,546,fixed_delta,0.03841730837928436,0.012782208620853738,,,,,0.542770185706413,1954,1646,1,0.65,BLACK,WHITE,False,0,0.0016000012692529708,BLACK,True,CORRECT,0.6171069000010903,617.1069000010903
5,20260325_140546,D,J,False,AUTOMATION2,2,247,547,fixed_delta,0.03841730837928436,0.012782208620853738,,,,,0.47700417489082914,1717,1883,1,0.65,WHITE,BLACK,False,0,0.0015000005078036338,WHITE,True,CORRECT,0.6251707000010356,625.1707000010356
5,20260325_140546,D,J,False,AUTOMATION2,2,248,548,fixed_delta,0.03841730837928436,0.012782208620853738,,,,,0.4515551366652601,1626,1974,1,0.65,WHITE,WHITE,True,0,0.0016999983927235007,WHITE,True,CORRECT,0.9460485999989032,946.0485999989032
5,20260325_140546,D,J,False,AUTOMATION2,2,249,549,fixed_delta,0.03841730837928436,0.012782208620853738,,,,,0.5589274167786327,2012,1588,1,0.65,BLACK,BLACK,True,0,0.0015000005078036338,BLACK,True,CORRECT,0.7709020000002056,770.9020000002056
5,20260325_140546,D,J,False,AUTOMATION2,2,250,550,fixed_delta,0.03841730837928436,0.012782208620853738,,,,,0.46239687032972726,1665,1935,1,0.65,WHITE,WHITE,True,0,0.0021000014385208488,WHITE,True,CORRECT,0.6701694000003044,670.1694000003044
5,20260325_140546,D,J,False,AUTOMATION2,2,251,551,fixed_delta,0.03841730837928436,0.012782208620853738,,,,,0.47349699373071297,1705,1895,1,0.65,WHITE,BLACK,False,0,0.0016000012692529708,WHITE,True,CORRECT,0.9415131999994628,941.5131999994628
5,20260325_140546,D,J,False,AUTOMATION2,2,252,552,fixed_delta,0.03841730837928436,0.012782208620853738,,,,,0.5111717986577105,1840,1760,1,0.65,BLACK,BLACK,True,0,0.0015000005078036338,WHITE,False,INCORRECT,2.7103623999973934,2710.3623999973934
5,20260325_140546,D,J,False,AUTOMATION2,2,253,553,fixed_delta,0.03841730837928436,0.012782208620853738,,,,,0.4651710202731836,1675,1925,1,0.65,WHITE,BLACK,False,0,0.0022000021999701858,WHITE,True,CORRECT,0.7748972000008507,774.8972000008507
5,20260325_140546,D,J,False,AUTOMATION2,2,254,554,fixed_delta,0.03841730837928436,0.012782208620853738,,,,,0.466847590625983,1681,1919,1,0.65,WHITE,WHITE,True,0,0.0015000005078036338,WHITE,True,CORRECT,1.0439225000009174,1043.9225000009174
5,20260325_140546,D,J,False,AUTOMATION2,2,255,555,fixed_delta,0.03841730837928436,0.012782208620853738,,,,,0.4580063444548942,1649,1951,1,0.65,WHITE,BLACK,False,0,0.0021000014385208488,WHITE,True,CORRECT,0.80645270000241,806.45270000241
5,20260325_140546,D,J,False,AUTOMATION2,2,256,556,fixed_delta,0.03841730837928436,0.012782208620853738,,,,,0.47060515873306363,1694,1906,1,0.65,WHITE,WHITE,True,0,0.0013999997463542968,WHITE,True,CORRECT,1.905486200001178,1905.486200001178
5,20260325_140546,D,J,False,AUTOMATION2,2,257,557,fixed_delta,0.03841730837928436,0.012782208620853738,,,,,0.47086235077393457,1695,1905,1,0.65,WHITE,BLACK,False,0,0.0015000005078036338,WHITE,True,CORRECT,1.1614573999977438,1161.4573999977438
5,20260325_140546,D,J,False,AUTOMATION2,2,258,558,fixed_delta,0.03841730837928436,0.012782208620853738,,,,,0.5649856826033262,2034,1566,1,0.65,BLACK,BLACK,True,0,0.0015000005078036338,BLACK,True,CORRECT,0.7303696000017226,730.3696000017226
5,20260325_140546,D,J,False,AUTOMATION2,2,259,559,fixed_delta,0.03841730837928436,0.012782208620853738,,,,,0.5156602349241267,1856,1744,1,0.65,BLACK,WHITE,False,0,0.0018999999156221747,WHITE,False,INCORRECT,1.5760669999981474,1576.0669999981474
5,20260325_140546,D,J,False,AUTOMATION2,2,260,560,fixed_delta,0.03841730837928436,0.012782208620853738,,,,,0.4655220693227777,1676,1924,1,0.65,WHITE,WHITE,True,0,0.0016000012692529708,WHITE,True,CORRECT,0.5744954000001599,574.4954000001599
5,20260325_140546,D,J,False,AUTOMATION2,2,261,561,fixed_delta,0.03841730837928436,0.012782208620853738,,,,,0.4610580003606519,1660,1940,1,0.65,WHITE,BLACK,False,0,0.0025000008463393897,WHITE,True,CORRECT,0.8288728000006813,828.8728000006813
5,20260325_140546,D,J,False,AUTOMATION2,2,262,562,fixed_delta,0.03841730837928436,0.012782208620853738,,,,,0.45773679761548547,1648,1952,1,0.65,WHITE,WHITE,True,0,0.0015000005078036338,WHITE,True,CORRECT,1.8628691999983857,1862.8691999983857
5,20260325_140546,D,J,False,AUTOMATION2,2,263,563,fixed_delta,0.03841730837928436,0.012782208620853738,,,,,0.46470745914660055,1673,1927,1,0.65,WHITE,WHITE,True,0,0.0017999991541728377,WHITE,True,CORRECT,0.6721034000001964,672.1034000001964
5,20260325_140546,D,J,False,AUTOMATION2,2,264,564,fixed_delta,0.03841730837928436,0.012782208620853738,,,,,0.5503238287080268,1981,1619,1,0.65,BLACK,WHITE,False,0,0.0015000005078036338,BLACK,True,CORRECT,0.6701710000015737,670.1710000015737
5,20260325_140546,D,J,False,AUTOMATION2,2,265,565,fixed_delta,0.03841730837928436,0.012782208620853738,,,,,0.4773770212538255,1719,1881,1,0.65,WHITE,WHITE,True,0,0.0018999999156221747,WHITE,True,CORRECT,0.6008058999977948,600.8058999977948
5,20260325_140546,D,J,False,AUTOMATION2,2,266,566,fixed_delta,0.03841730837928436,0.012782208620853738,,,,,0.4847183603009223,1745,1855,1,0.65,WHITE,WHITE,True,0,0.0012999989849049598,BLACK,False,INCORRECT,1.17340989999866,1173.40989999866
5,20260325_140546,D,J,False,AUTOMATION2,2,267,567,fixed_delta,0.03841730837928436,0.012782208620853738,,,,,0.4758578800750125,1713,1887,1,0.65,WHITE,WHITE,True,0,0.0016999983927235007,WHITE,True,CORRECT,0.9036672000002,903.6672000002
5,20260325_140546,D,J,False,AUTOMATION2,2,268,568,fixed_delta,0.03841730837928436,0.012782208620853738,,,,,0.5260805487065847,1894,1706,1,0.65,BLACK,WHITE,False,0,0.0018999999156221747,BLACK,True,CORRECT,1.1519612000010966,1151.9612000010966
5,20260325_140546,D,J,False,AUTOMATION2,2,269,569,fixed_delta,0.03841730837928436,0.012782208620853738,,,,,0.5315811653195434,1914,1686,1,0.65,BLACK,WHITE,False,0,0.0015000005078036338,WHITE,False,INCORRECT,2.484535899999173,2484.535899999173
5,20260325_140546,D,J,False,AUTOMATION2,2,270,570,fixed_delta,0.03841730837928436,0.012782208620853738,,,,,0.5412373238151624,1948,1652,1,0.65,BLACK,WHITE,False,0,0.0017000020307023078,BLACK,True,CORRECT,0.7972097000019858,797.2097000019858
5,20260325_140546,D,J,False,AUTOMATION2,2,271,571,fixed_delta,0.03841730837928436,0.012782208620853738,,,,,0.44707049532921217,1609,1991,1,0.65,WHITE,BLACK,False,0,0.0017999991541728377,WHITE,True,CORRECT,0.8020252999995137,802.0252999995137
5,20260325_140546,D,J,False,AUTOMATION2,2,272,572,fixed_delta,0.03841730837928436,0.012782208620853738,,,,,0.4804390825243896,1730,1870,1,0.65,WHITE,BLACK,False,0,0.0015999976312741637,WHITE,True,CORRECT,1.5000117999989016,1500.0117999989016
5,20260325_140546,D,J,False,AUTOMATION2,2,273,573,fixed_delta,0.03841730837928436,0.012782208620853738,,,,,0.5353695631419747,1927,1673,1,0.65,BLACK,BLACK,True,0,0.0012999989849049598,BLACK,True,CORRECT,2.529619699998875,2529.619699998875
5,20260325_140546,D,J,False,AUTOMATION2,2,274,574,fixed_delta,0.03841730837928436,0.012782208620853738,,,,,0.45772986173688135,1648,1952,1,0.65,WHITE,WHITE,True,0,0.0015000005078036338,WHITE,True,CORRECT,0.9185389999984181,918.5389999984181
5,20260325_140546,D,J,False,AUTOMATION2,2,275,575,fixed_delta,0.03841730837928436,0.012782208620853738,,,,,0.45173033167595017,1626,1974,1,0.65,WHITE,BLACK,False,0,0.0013999997463542968,WHITE,True,CORRECT,0.8833955000009155,883.3955000009155
5,20260325_140546,D,J,False,AUTOMATION2,2,276,576,fixed_delta,0.03841730837928436,0.012782208620853738,,,,,0.45626922690643906,1643,1957,1,0.65,WHITE,WHITE,True,0,0.0015999976312741637,WHITE,True,CORRECT,2.285472600000503,2285.472600000503
5,20260325_140546,D,J,False,AUTOMATION2,2,277,577,fixed_delta,0.03841730837928436,0.012782208620853738,,,,,0.5554285901589477,2000,1600,1,0.65,BLACK,WHITE,False,0,0.0013999997463542968,BLACK,True,CORRECT,0.8319736000012199,831.9736000012199
5,20260325_140546,D,J,False,AUTOMATION2,2,278,578,fixed_delta,0.03841730837928436,0.012782208620853738,,,,,0.4654389046708955,1676,1924,1,0.65,WHITE,WHITE,True,0,0.0015000005078036338,WHITE,True,CORRECT,1.781266300000425,1781.266300000425
5,20260325_140546,D,J,False,AUTOMATION2,2,279,579,fixed_delta,0.03841730837928436,0.012782208620853738,,,,,0.4705050156988272,1694,1906,1,0.65,WHITE,WHITE,True,0,0.0015000005078036338,WHITE,True,CORRECT,1.5406441000013729,1540.6441000013729
5,20260325_140546,D,J,False,AUTOMATION2,2,280,580,fixed_delta,0.03841730837928436,0.012782208620853738,,,,,0.4604657660386529,1658,1942,1,0.65,WHITE,WHITE,True,0,0.0015999976312741637,WHITE,True,CORRECT,1.1283858999995573,1128.3858999995573
5,20260325_140546,D,J,False,AUTOMATION2,2,281,581,fixed_delta,0.03841730837928436,0.012782208620853738,,,,,0.5093936325039208,1834,1766,1,0.65,BLACK,BLACK,True,0,0.0016000012692529708,WHITE,False,INCORRECT,1.7103134999997565,1710.3134999997565
5,20260325_140546,D,J,False,AUTOMATION2,2,282,582,fixed_delta,0.03841730837928436,0.012782208620853738,,,,,0.44802055082771036,1613,1987,1,0.65,WHITE,WHITE,True,0,0.0012999989849049598,WHITE,True,CORRECT,0.6071683999980451,607.1683999980451
5,20260325_140546,D,J,False,AUTOMATION2,2,283,583,fixed_delta,0.03841730837928436,0.012782208620853738,,,,,0.5500141899820431,1980,1620,1,0.65,BLACK,WHITE,False,0,0.0013999997463542968,BLACK,True,CORRECT,0.8228242000004684,822.8242000004684
5,20260325_140546,D,J,False,AUTOMATION2,2,284,584,fixed_delta,0.03841730837928436,0.012782208620853738,,,,,0.4547279324676032,1637,1963,1,0.65,WHITE,WHITE,True,0,0.0013999997463542968,WHITE,True,CORRECT,0.6673753000031866,667.3753000031866
5,20260325_140546,D,J,False,AUTOMATION2,2,285,585,fixed_delta,0.03841730837928436,0.012782208620853738,,,,,0.513873221678463,1850,1750,1,0.65,BLACK,BLACK,True,0,0.0015000005078036338,BLACK,True,CORRECT,1.1265180000009423,1126.5180000009423
5,20260325_140546,D,J,False,AUTOMATION2,2,286,586,fixed_delta,0.03841730837928436,0.012782208620853738,,,,,0.5523545807884886,1988,1612,1,0.65,BLACK,BLACK,True,0,0.0018999999156221747,BLACK,True,CORRECT,0.7064318000011554,706.4318000011554
5,20260325_140546,D,J,False,AUTOMATION2,2,287,587,fixed_delta,0.03841730837928436,0.012782208620853738,,,,,0.44180795152605995,1591,2009,1,0.65,WHITE,BLACK,False,0,0.0014999968698248267,WHITE,True,CORRECT,1.0797338999982458,1079.7338999982458
5,20260325_140546,D,J,False,AUTOMATION2,2,288,588,fixed_delta,0.03841730837928436,0.012782208620853738,,,,,0.45430535135880035,1635,1965,1,0.65,WHITE,WHITE,True,0,0.0016000012692529708,WHITE,True,CORRECT,0.7017320999984804,701.7320999984804
5,20260325_140546,D,J,False,AUTOMATION2,2,289,589,fixed_delta,0.03841730837928436,0.012782208620853738,,,,,0.5423962098685656,1953,1647,1,0.65,BLACK,WHITE,False,0,0.0020000006770715117,BLACK,True,CORRECT,0.6856822000008833,685.6822000008833
5,20260325_140546,D,J,False,AUTOMATION2,2,290,590,fixed_delta,0.03841730837928436,0.012782208620853738,,,,,0.5281179285686289,1901,1699,1,0.65,BLACK,BLACK,True,0,0.0016000012692529708,BLACK,True,CORRECT,0.74837430000116,748.37430000116
5,20260325_140546,D,J,False,AUTOMATION2,2,291,591,fixed_delta,0.03841730837928436,0.012782208620853738,,,,,0.4555334657633415,1640,1960,1,0.65,WHITE,WHITE,True,0,0.0015999976312741637,BLACK,False,INCORRECT,0.8683801999977732,868.3801999977732
5,20260325_140546,D,J,False,AUTOMATION2,2,292,592,fixed_delta,0.03841730837928436,0.012782208620853738,,,,,0.5407012677808316,1947,1653,1,0.65,BLACK,BLACK,True,0,0.0012999989849049598,BLACK,True,CORRECT,0.6250801999995019,625.0801999995019
5,20260325_140546,D,J,False,AUTOMATION2,2,293,593,fixed_delta,0.03841730837928436,0.012782208620853738,,,,,0.5189477586428073,1868,1732,1,0.65,BLACK,BLACK,True,0,0.0015000005078036338,BLACK,True,CORRECT,0.7454131000013149,745.4131000013149
5,20260325_140546,D,J,False,AUTOMATION2,2,294,594,fixed_delta,0.03841730837928436,0.012782208620853738,,,,,0.4580677531727102,1649,1951,1,0.65,WHITE,BLACK,False,0,0.0014999968698248267,WHITE,True,CORRECT,1.048065699997096,1048.065699997096
5,20260325_140546,D,J,False,AUTOMATION2,2,295,595,fixed_delta,0.03841730837928436,0.012782208620853738,,,,,0.48302384893255856,1739,1861,1,0.65,WHITE,WHITE,True,0,0.0016999983927235007,WHITE,True,CORRECT,0.7046761999990849,704.6761999990849
5,20260325_140546,D,J,False,AUTOMATION2,2,296,596,fixed_delta,0.03841730837928436,0.012782208620853738,,,,,0.5258023573904054,1893,1707,1,0.65,BLACK,WHITE,False,0,0.0017000020307023078,WHITE,False,INCORRECT,1.9523042000000714,1952.3042000000714
5,20260325_140546,D,J,False,AUTOMATION2,2,297,597,fixed_delta,0.03841730837928436,0.012782208620853738,,,,,0.46699863615648657,1681,1919,1,0.65,WHITE,WHITE,True,0,0.0016999983927235007,WHITE,True,CORRECT,2.2517209999969054,2251.7209999969054
5,20260325_140546,D,J,False,AUTOMATION2,2,298,598,fixed_delta,0.03841730837928436,0.012782208620853738,,,,,0.4537948887367963,1634,1966,1,0.65,WHITE,WHITE,True,0,0.0017999991541728377,WHITE,True,CORRECT,1.000588599999901,1000.5885999999009
5,20260325_140546,D,J,False,AUTOMATION2,2,299,599,fixed_delta,0.03841730837928436,0.012782208620853738,,,,,0.4440224280796457,1598,2002,1,0.65,WHITE,WHITE,True,0,0.0015000005078036338,WHITE,True,CORRECT,0.712849700001243,712.849700001243
5,20260325_140546,D,J,False,AUTOMATION2,2,300,600,fixed_delta,0.03841730837928436,0.012782208620853738,,,,,0.4941130339219214,1779,1821,1,0.65,WHITE,WHITE,True,0,0.0016000012692529708,WHITE,True,CORRECT,0.8037092000013217,803.7092000013217
5,20260325_140546,D,J,False,AUTOMATION2,2,301,601,fixed_delta,0.03841730837928436,0.012782208620853738,,,,,0.463621569738983,1669,1931,1,0.65,WHITE,BLACK,False,0,0.0013999997463542968,WHITE,True,CORRECT,1.503788900001382,1503.788900001382
5,20260325_140546,D,J,False,AUTOMATION2,2,302,602,fixed_delta,0.03841730837928436,0.012782208620853738,,,,,0.5626036178856584,2025,1575,1,0.65,BLACK,BLACK,True,0,0.0016000012692529708,BLACK,True,CORRECT,0.7836403000001155,783.6403000001155
5,20260325_140546,D,J,False,AUTOMATION2,2,303,603,fixed_delta,0.03841730837928436,0.012782208620853738,,,,,0.5435323604518402,1957,1643,1,0.65,BLACK,WHITE,False,0,0.0016000012692529708,WHITE,False,INCORRECT,0.804283999998006,804.283999998006
5,20260325_140546,D,J,False,AUTOMATION2,2,304,604,fixed_delta,0.03841730837928436,0.012782208620853738,,,,,0.46635825950070037,1679,1921,1,0.65,WHITE,BLACK,False,0,0.0015999976312741637,WHITE,True,CORRECT,1.1814785999995365,1181.4785999995365
5,20260325_140546,D,J,False,AUTOMATION2,2,305,605,fixed_delta,0.03841730837928436,0.012782208620853738,,,,,0.5413635761371468,1949,1651,1,0.65,BLACK,BLACK,True,0,0.0015000005078036338,BLACK,True,CORRECT,2.60868919999848,2608.68919999848
5,20260325_140546,D,J,False,AUTOMATION2,2,306,606,fixed_delta,0.03841730837928436,0.012782208620853738,,,,,0.4675545239056208,1683,1917,1,0.65,WHITE,BLACK,False,0,0.0013000026228837669,WHITE,True,CORRECT,0.8685920999996597,868.5920999996597
5,20260325_140546,D,J,False,AUTOMATION2,2,307,607,fixed_delta,0.03841730837928436,0.012782208620853738,,,,,0.5399706447110898,1944,1656,1,0.65,BLACK,BLACK,True,0,0.0015000005078036338,BLACK,True,CORRECT,0.8770479000013438,877.0479000013438
5,20260325_140546,D,J,False,AUTOMATION2,2,308,608,fixed_delta,0.03841730837928436,0.012782208620853738,,,,,0.479217059474781,1725,1875,1,0.65,WHITE,BLACK,False,0,0.0013999997463542968,WHITE,True,CORRECT,0.7391534999987925,739.1534999987925
5,20260325_140546,D,J,False,AUTOMATION2,2,309,609,fixed_delta,0.03841730837928436,0.012782208620853738,,,,,0.47440370622751216,1708,1892,1,0.65,WHITE,WHITE,True,0,0.0015999976312741637,WHITE,True,CORRECT,0.8154834999986633,815.4834999986633
5,20260325_140546,D,J,False,AUTOMATION2,2,310,610,fixed_delta,0.03841730837928436,0.012782208620853738,,,,,0.5318495037998885,1915,1685,1,0.65,BLACK,BLACK,True,0,0.0015000005078036338,BLACK,True,CORRECT,1.1542732999987493,1154.2732999987493
5,20260325_140546,D,J,False,AUTOMATION2,2,311,611,fixed_delta,0.03841730837928436,0.012782208620853738,,,,,0.4458688311633901,1605,1995,1,0.65,WHITE,WHITE,True,0,0.0016000012692529708,BLACK,False,INCORRECT,0.8040498000009393,804.0498000009393
5,20260325_140546,D,J,False,AUTOMATION2,2,312,612,fixed_delta,0.03841730837928436,0.012782208620853738,,,,,0.4751447583623451,1711,1889,1,0.65,WHITE,WHITE,True,0,0.0015000005078036338,WHITE,True,CORRECT,0.6536352000002807,653.6352000002807
5,20260325_140546,D,J,False,AUTOMATION2,2,313,613,fixed_delta,0.03841730837928436,0.012782208620853738,,,,,0.45184486994380196,1627,1973,1,0.65,WHITE,WHITE,True,0,0.0013000026228837669,WHITE,True,CORRECT,0.6727000000028056,672.7000000028056
5,20260325_140546,D,J,False,AUTOMATION2,2,314,614,fixed_delta,0.03841730837928436,0.012782208620853738,,,,,0.4714551760951183,1697,1903,1,0.65,WHITE,WHITE,True,0,0.0015999976312741637,BLACK,False,INCORRECT,0.9764237999988836,976.4237999988836
5,20260325_140546,D,J,False,AUTOMATION2,2,315,615,fixed_delta,0.03841730837928436,0.012782208620853738,,,,,0.4300935877696748,1548,2052,1,0.65,WHITE,BLACK,False,0,0.0015000005078036338,WHITE,True,CORRECT,0.6228896000029636,622.8896000029636
5,20260325_140546,D,J,False,AUTOMATION2,2,316,616,fixed_delta,0.03841730837928436,0.012782208620853738,,,,,0.5345481328207272,1924,1676,1,0.65,BLACK,BLACK,True,0,0.0016999983927235007,BLACK,True,CORRECT,0.6604738999994879,660.4738999994879
5,20260325_140546,D,J,False,AUTOMATION2,2,317,617,fixed_delta,0.03841730837928436,0.012782208620853738,,,,,0.45363036765998505,1633,1967,1,0.65,WHITE,WHITE,True,0,0.0013000026228837669,WHITE,True,CORRECT,0.8505399000023317,850.5399000023317
5,20260325_140546,D,J,False,AUTOMATION2,2,318,618,fixed_delta,0.03841730837928436,0.012782208620853738,,,,,0.46511935663725673,1674,1926,1,0.65,WHITE,WHITE,True,0,0.0013999997463542968,WHITE,True,CORRECT,0.9793873999988136,979.3873999988136
5,20260325_140546,D,J,False,AUTOMATION2,2,319,619,fixed_delta,0.03841730837928436,0.012782208620853738,,,,,0.5333601950074142,1920,1680,1,0.65,BLACK,BLACK,True,0,0.0015000005078036338,BLACK,True,CORRECT,0.6859753000026103,685.9753000026103
5,20260325_140546,D,J,False,AUTOMATION2,2,320,620,fixed_delta,0.03841730837928436,0.012782208620853738,,,,,0.4637724278076363,1670,1930,1,0.65,WHITE,BLACK,False,0,0.0013999997463542968,WHITE,True,CORRECT,0.908160200000566,908.160200000566
5,20260325_140546,D,J,False,AUTOMATION2,2,321,621,fixed_delta,0.03841730837928436,0.012782208620853738,,,,,0.46590533731228523,1677,1923,1,0.65,WHITE,BLACK,False,0,0.0017999991541728377,WHITE,True,CORRECT,0.7771400000019639,777.1400000019639
5,20260325_140546,D,J,False,AUTOMATION2,2,322,622,fixed_delta,0.03841730837928436,0.012782208620853738,,,,,0.4397884700143805,1583,2017,1,0.65,WHITE,WHITE,True,0,0.0013999997463542968,WHITE,True,CORRECT,0.6215621000010287,621.5621000010287
5,20260325_140546,D,J,False,AUTOMATION2,2,323,623,fixed_delta,0.03841730837928436,0.012782208620853738,,,,,0.4440792390874081,1599,2001,1,0.65,WHITE,WHITE,True,0,0.0016000012692529708,WHITE,True,CORRECT,0.8891146000023582,889.1146000023582
5,20260325_140546,D,J,False,AUTOMATION2,2,324,624,fixed_delta,0.03841730837928436,0.012782208620853738,,,,,0.5468345575959594,1969,1631,1,0.65,BLACK,BLACK,True,0,0.0015000005078036338,BLACK,True,CORRECT,0.7077074000007997,707.7074000007997
5,20260325_140546,D,J,False,AUTOMATION2,2,325,625,fixed_delta,0.03841730837928436,0.012782208620853738,,,,,0.5242690461094569,1887,1713,1,0.65,BLACK,BLACK,True,0,0.0015000005078036338,BLACK,True,CORRECT,0.5703858999986551,570.3858999986551
5,20260325_140546,D,J,False,AUTOMATION2,2,326,626,fixed_delta,0.03841730837928436,0.012782208620853738,,,,,0.48158693271518627,1734,1866,1,0.65,WHITE,WHITE,True,0,0.0015000005078036338,WHITE,True,CORRECT,0.7007550000016636,700.7550000016636
5,20260325_140546,D,J,False,AUTOMATION2,2,327,627,fixed_delta,0.03841730837928436,0.012782208620853738,,,,,0.536261070605532,1931,1669,1,0.65,BLACK,BLACK,True,0,0.0017999991541728377,BLACK,True,CORRECT,0.7307222000017646,730.7222000017646
5,20260325_140546,D,J,False,AUTOMATION2,2,328,628,fixed_delta,0.03841730837928436,0.012782208620853738,,,,,0.5347521109431838,1925,1675,1,0.65,BLACK,BLACK,True,0,0.0016000012692529708,BLACK,True,CORRECT,0.8155547999995179,815.5547999995179
5,20260325_140546,D,J,False,AUTOMATION2,2,329,629,fixed_delta,0.03841730837928436,0.012782208620853738,,,,,0.5333267319322602,1920,1680,1,0.65,BLACK,BLACK,True,0,0.0012999989849049598,WHITE,False,INCORRECT,0.9081583000006503,908.1583000006503
5,20260325_140546,D,J,False,AUTOMATION2,2,330,630,fixed_delta,0.03841730837928436,0.012782208620853738,,,,,0.5250458580017922,1890,1710,1,0.65,BLACK,BLACK,True,0,0.0015000005078036338,BLACK,True,CORRECT,1.0528210000011313,1052.8210000011313
5,20260325_140546,D,J,False,AUTOMATION2,2,331,631,fixed_delta,0.03841730837928436,0.012782208620853738,,,,,0.46958436276948506,1691,1909,1,0.65,WHITE,WHITE,True,0,0.0013999997463542968,WHITE,True,CORRECT,1.1210687999991933,1121.0687999991933
5,20260325_140546,D,J,False,AUTOMATION2,2,332,632,fixed_delta,0.03841730837928436,0.012782208620853738,,,,,0.4729699965719417,1703,1897,1,0.65,WHITE,BLACK,False,0,0.0016000012692529708,BLACK,False,INCORRECT,0.6361410999998043,636.1410999998043
5,20260325_140546,D,J,False,AUTOMATION2,2,333,633,fixed_delta,0.03841730837928436,0.012782208620853738,,,,,0.4688280776269123,1688,1912,1,0.65,WHITE,WHITE,True,0,0.0015000005078036338,WHITE,True,CORRECT,0.6145520999998553,614.5520999998553
5,20260325_140546,D,J,False,AUTOMATION2,2,334,634,fixed_delta,0.03841730837928436,0.012782208620853738,,,,,0.5505004033924847,1982,1618,1,0.65,BLACK,WHITE,False,0,0.0016000012692529708,BLACK,True,CORRECT,0.7296779000025708,729.6779000025708
5,20260325_140546,D,J,False,AUTOMATION2,2,335,635,fixed_delta,0.03841730837928436,0.012782208620853738,,,,,0.47021050061763847,1693,1907,1,0.65,WHITE,WHITE,True,0,0.0016000012692529708,WHITE,True,CORRECT,0.7865486000009696,786.5486000009696
5,20260325_140546,D,J,False,AUTOMATION2,2,336,636,fixed_delta,0.03841730837928436,0.012782208620853738,,,,,0.45545159435860094,1640,1960,1,0.65,WHITE,BLACK,False,0,0.0015000005078036338,WHITE,True,CORRECT,0.7860694999981206,786.0694999981206
5,20260325_140546,D,J,False,AUTOMATION2,2,337,637,fixed_delta,0.03841730837928436,0.012782208620853738,,,,,0.5540403578436359,1995,1605,1,0.65,BLACK,WHITE,False,0,0.0015999976312741637,BLACK,True,CORRECT,0.7505646999998135,750.5646999998135
5,20260325_140546,D,J,False,AUTOMATION2,2,338,638,fixed_delta,0.03841730837928436,0.012782208620853738,,,,,0.47298879870956323,1703,1897,1,0.65,WHITE,BLACK,False,0,0.0013999997463542968,WHITE,True,CORRECT,0.6043725999988965,604.3725999988965
5,20260325_140546,D,J,False,AUTOMATION2,2,339,639,fixed_delta,0.03841730837928436,0.012782208620853738,,,,,0.5334350870009609,1920,1680,1,0.65,BLACK,BLACK,True,0,0.0015000005078036338,WHITE,False,INCORRECT,2.6191236000013305,2619.1236000013305
5,20260325_140546,D,J,False,AUTOMATION2,2,340,640,fixed_delta,0.03841730837928436,0.012782208620853738,,,,,0.5561817465290669,2002,1598,1,0.65,BLACK,WHITE,False,0,0.0020999978005420417,BLACK,True,CORRECT,0.7935004999999364,793.5004999999364
5,20260325_140546,D,J,False,AUTOMATION2,2,341,641,fixed_delta,0.03841730837928436,0.012782208620853738,,,,,0.5377945307483658,1936,1664,1,0.65,BLACK,BLACK,True,0,0.0013999997463542968,WHITE,False,INCORRECT,1.3212324000014632,1321.2324000014632
5,20260325_140546,D,J,False,AUTOMATION2,2,342,642,fixed_delta,0.03841730837928436,0.012782208620853738,,,,,0.47318197313554994,1703,1897,1,0.65,WHITE,WHITE,True,0,0.0015000005078036338,WHITE,True,CORRECT,0.7844803000007232,784.4803000007232
5,20260325_140546,D,J,False,AUTOMATION2,2,343,643,fixed_delta,0.03841730837928436,0.012782208620853738,,,,,0.46916419385692454,1689,1911,1,0.65,WHITE,WHITE,True,0,0.0018999999156221747,WHITE,True,CORRECT,0.7787279000003764,778.7279000003764
5,20260325_140546,D,J,False,AUTOMATION2,2,344,644,fixed_delta,0.03841730837928436,0.012782208620853738,,,,,0.5489050365476813,1976,1624,1,0.65,BLACK,WHITE,False,0,0.0015999976312741637,BLACK,True,CORRECT,0.7752354999975068,775.2354999975068
5,20260325_140546,D,J,False,AUTOMATION2,2,345,645,fixed_delta,0.03841730837928436,0.012782208620853738,,,,,0.5319885370085914,1915,1685,1,0.65,BLACK,WHITE,False,0,0.0016000012692529708,BLACK,True,CORRECT,1.451588100000663,1451.588100000663
5,20260325_140546,D,J,False,AUTOMATION2,2,346,646,fixed_delta,0.03841730837928436,0.012782208620853738,,,,,0.46185807970993326,1663,1937,1,0.65,WHITE,WHITE,True,0,0.0016000012692529708,WHITE,True,CORRECT,0.7449478000016825,744.9478000016825
5,20260325_140546,D,J,False,AUTOMATION2,2,347,647,fixed_delta,0.03841730837928436,0.012782208620853738,,,,,0.5464564411573478,1967,1633,1,0.65,BLACK,BLACK,True,0,0.0014999968698248267,BLACK,True,CORRECT,0.7387174999967101,738.7174999967101
5,20260325_140546,D,J,False,AUTOMATION2,2,348,648,fixed_delta,0.03841730837928436,0.012782208620853738,,,,,0.5203080130810345,1873,1727,1,0.65,BLACK,BLACK,True,0,0.0015000005078036338,BLACK,True,CORRECT,1.4587639000019408,1458.7639000019408
5,20260325_140546,D,J,False,AUTOMATION2,2,349,649,fixed_delta,0.03841730837928436,0.012782208620853738,,,,,0.5232772547173322,1884,1716,1,0.65,BLACK,WHITE,False,0,0.0013999997463542968,WHITE,False,INCORRECT,0.7611413999984507,761.1413999984507
5,20260325_140546,D,J,False,AUTOMATION2,2,350,650,fixed_delta,0.03841730837928436,0.012782208620853738,,,,,0.5482373028681422,1974,1626,1,0.65,BLACK,WHITE,False,0,0.0012999989849049598,BLACK,True,CORRECT,3.1394385999992664,3139.4385999992664
5,20260325_140546,D,J,False,AUTOMATION2,2,351,651,fixed_delta,0.03841730837928436,0.012782208620853738,,,,,0.4727280009951281,1702,1898,1,0.65,WHITE,WHITE,True,0,0.0022000021999701858,WHITE,True,CORRECT,1.0238699000001361,1023.8699000001361
5,20260325_140546,D,J,False,AUTOMATION2,2,352,652,fixed_delta,0.03841730837928436,0.012782208620853738,,,,,0.5276179147587292,1899,1701,1,0.65,BLACK,BLACK,True,0,0.0015000005078036338,WHITE,False,INCORRECT,1.4595523999996658,1459.5523999996658
5,20260325_140546,D,J,False,AUTOMATION2,2,353,653,fixed_delta,0.03841730837928436,0.012782208620853738,,,,,0.5549800779396901,1998,1602,1,0.65,BLACK,BLACK,True,0,0.0018999999156221747,WHITE,False,INCORRECT,2.152367700000468,2152.367700000468
5,20260325_140546,D,J,False,AUTOMATION2,2,354,654,fixed_delta,0.03841730837928436,0.012782208620853738,,,,,0.5477360673515791,1972,1628,1,0.65,BLACK,BLACK,True,0,0.0015000005078036338,BLACK,True,CORRECT,2.2839026000001468,2283.902600000147
5,20260325_140546,D,J,False,AUTOMATION2,2,355,655,fixed_delta,0.03841730837928436,0.012782208620853738,,,,,0.435404490970894,1567,2033,1,0.65,WHITE,WHITE,True,0,0.0013999997463542968,WHITE,True,CORRECT,0.6940059999978985,694.0059999978985
5,20260325_140546,D,J,False,AUTOMATION2,2,356,656,fixed_delta,0.03841730837928436,0.012782208620853738,,,,,0.4720220252664291,1699,1901,1,0.65,WHITE,WHITE,True,0,0.0016000012692529708,WHITE,True,CORRECT,3.059442500001751,3059.442500001751
5,20260325_140546,D,J,False,AUTOMATION2,2,357,657,fixed_delta,0.03841730837928436,0.012782208620853738,,,,,0.43609472391138476,1570,2030,1,0.65,WHITE,BLACK,False,0,0.0017999991541728377,WHITE,True,CORRECT,0.7311937000013131,731.1937000013131
5,20260325_140546,D,J,False,AUTOMATION2,2,358,658,fixed_delta,0.03841730837928436,0.012782208620853738,,,,,0.44054788932731287,1586,2014,1,0.65,WHITE,WHITE,True,0,0.0015000005078036338,WHITE,True,CORRECT,0.9278640000011364,927.8640000011364
5,20260325_140546,D,J,False,AUTOMATION2,2,359,659,fixed_delta,0.03841730837928436,0.012782208620853738,,,,,0.5240080621165393,1886,1714,1,0.65,BLACK,WHITE,False,0,0.0016999983927235007,WHITE,False,INCORRECT,0.6513317999997525,651.3317999997525
5,20260325_140546,D,J,False,AUTOMATION2,2,360,660,fixed_delta,0.03841730837928436,0.012782208620853738,,,,,0.5414665227494067,1949,1651,1,0.65,BLACK,BLACK,True,0,0.0013999997463542968,BLACK,True,CORRECT,0.7638259000013932,763.8259000013932
5,20260325_140546,D,J,False,AUTOMATION2,2,361,661,fixed_delta,0.03841730837928436,0.012782208620853738,,,,,0.47488858346769824,1710,1890,1,0.65,WHITE,WHITE,True,0,0.0015999976312741637,WHITE,True,CORRECT,0.5552711999989697,555.2711999989697
5,20260325_140546,D,J,False,AUTOMATION2,2,362,662,fixed_delta,0.03841730837928436,0.012782208620853738,,,,,0.45915727654617483,1653,1947,1,0.65,WHITE,BLACK,False,0,0.0017999991541728377,WHITE,True,CORRECT,0.9199848999996902,919.9848999996902
5,20260325_140546,D,J,False,AUTOMATION2,2,363,663,fixed_delta,0.03841730837928436,0.012782208620853738,,,,,0.5322848942138931,1916,1684,1,0.65,BLACK,BLACK,True,0,0.0020000006770715117,BLACK,True,CORRECT,2.445021799998358,2445.021799998358
5,20260325_140546,D,J,False,AUTOMATION2,2,364,664,fixed_delta,0.03841730837928436,0.012782208620853738,,,,,0.4312997094816949,1553,2047,1,0.65,WHITE,BLACK,False,0,0.0013999997463542968,WHITE,True,CORRECT,0.892119799998909,892.119799998909
5,20260325_140546,D,J,False,AUTOMATION2,2,365,665,fixed_delta,0.03841730837928436,0.012782208620853738,,,,,0.4473176509213792,1610,1990,1,0.65,WHITE,BLACK,False,0,0.0012999989849049598,WHITE,True,CORRECT,1.7084990999974252,1708.4990999974252
5,20260325_140546,D,J,False,AUTOMATION2,2,366,666,fixed_delta,0.03841730837928436,0.012782208620853738,,,,,0.5412804093548427,1949,1651,1,0.65,BLACK,WHITE,False,0,0.0014999968698248267,BLACK,True,CORRECT,1.3113296999981685,1311.3296999981685
5,20260325_140546,D,J,False,AUTOMATION2,2,367,667,fixed_delta,0.03841730837928436,0.012782208620853738,,,,,0.5414137228255417,1949,1651,1,0.65,BLACK,WHITE,False,0,0.0015000005078036338,BLACK,True,CORRECT,1.2476266000012401,1247.6266000012401
5,20260325_140546,D,J,False,AUTOMATION2,2,368,668,fixed_delta,0.03841730837928436,0.012782208620853738,,,,,0.47617113506911185,1714,1886,1,0.65,WHITE,WHITE,True,0,0.0016999983927235007,WHITE,True,CORRECT,0.89358749999883,893.58749999883
5,20260325_140546,D,J,False,AUTOMATION2,2,369,669,fixed_delta,0.03841730837928436,0.012782208620853738,,,,,0.4523687317904748,1629,1971,1,0.65,WHITE,BLACK,False,0,0.0012999989849049598,WHITE,True,CORRECT,0.6128452000011748,612.8452000011748
5,20260325_140546,D,J,False,AUTOMATION2,2,370,670,fixed_delta,0.03841730837928436,0.012782208620853738,,,,,0.5314159690513633,1913,1687,1,0.65,BLACK,WHITE,False,0,0.0015000005078036338,BLACK,True,CORRECT,1.006780499999877,1006.7804999998771
5,20260325_140546,D,J,False,AUTOMATION2,2,371,671,fixed_delta,0.03841730837928436,0.012782208620853738,,,,,0.44692663322976806,1609,1991,1,0.65,WHITE,WHITE,True,0,0.0017000020307023078,WHITE,True,CORRECT,0.5686721000020043,568.6721000020043
5,20260325_140546,D,J,False,AUTOMATION2,2,372,672,fixed_delta,0.03841730837928436,0.012782208620853738,,,,,0.4453850607102526,1603,1997,1,0.65,WHITE,BLACK,False,0,0.0015000005078036338,WHITE,True,CORRECT,0.7438298000015493,743.8298000015493
5,20260325_140546,D,J,False,AUTOMATION2,2,373,673,fixed_delta,0.03841730837928436,0.012782208620853738,,,,,0.5808283819792492,2091,1509,1,0.65,BLACK,BLACK,True,0,0.0016999983927235007,BLACK,True,CORRECT,0.6494078999967314,649.4078999967314
5,20260325_140546,D,J,False,AUTOMATION2,2,374,674,fixed_delta,0.03841730837928436,0.012782208620853738,,,,,0.4708448932122552,1695,1905,1,0.65,WHITE,BLACK,False,0,0.0012000018614344299,WHITE,True,CORRECT,0.7393708000017796,739.3708000017796
5,20260325_140546,D,J,False,AUTOMATION2,2,375,675,fixed_delta,0.03841730837928436,0.012782208620853738,,,,,0.45775809457842526,1648,1952,1,0.65,WHITE,WHITE,True,0,0.0014999968698248267,WHITE,True,CORRECT,0.8518543999998656,851.8543999998656
5,20260325_140546,D,J,False,AUTOMATION2,2,376,676,fixed_delta,0.03841730837928436,0.012782208620853738,,,,,0.45665410659968414,1644,1956,1,0.65,WHITE,WHITE,True,0,0.0013999997463542968,WHITE,True,CORRECT,0.6166125999989163,616.6125999989163
5,20260325_140546,D,J,False,AUTOMATION2,2,377,677,fixed_delta,0.03841730837928436,0.012782208620853738,,,,,0.5483909915226468,1974,1626,1,0.65,BLACK,BLACK,True,0,0.0013999997463542968,BLACK,True,CORRECT,0.593226400000276,593.226400000276
5,20260325_140546,D,J,False,AUTOMATION2,2,378,678,fixed_delta,0.03841730837928436,0.012782208620853738,,,,,0.4515249537793371,1625,1975,1,0.65,WHITE,BLACK,False,0,0.0017999991541728377,WHITE,True,CORRECT,0.6602189000004728,660.2189000004728
5,20260325_140546,D,J,False,AUTOMATION2,2,379,679,fixed_delta,0.03841730837928436,0.012782208620853738,,,,,0.4776218350739792,1719,1881,1,0.65,WHITE,WHITE,True,0,0.0013999997463542968,WHITE,True,CORRECT,1.1729975000016566,1172.9975000016566
5,20260325_140546,D,J,False,AUTOMATION2,2,380,680,fixed_delta,0.03841730837928436,0.012782208620853738,,,,,0.4781857096219235,1721,1879,1,0.65,WHITE,BLACK,False,0,0.0013000026228837669,BLACK,False,INCORRECT,2.229361000001518,2229.361000001518
5,20260325_140546,D,J,False,AUTOMATION2,2,381,681,fixed_delta,0.03841730837928436,0.012782208620853738,,,,,0.47838336445042373,1722,1878,1,0.65,WHITE,WHITE,True,0,0.0019000035536009818,WHITE,True,CORRECT,1.242267500001617,1242.267500001617
5,20260325_140546,D,J,False,AUTOMATION2,2,382,682,fixed_delta,0.03841730837928436,0.012782208620853738,,,,,0.45479788133899013,1637,1963,1,0.65,WHITE,WHITE,True,0,0.0015000005078036338,WHITE,True,CORRECT,0.880206800000451,880.206800000451
5,20260325_140546,D,J,False,AUTOMATION2,2,383,683,fixed_delta,0.03841730837928436,0.012782208620853738,,,,,0.5525510901045515,1989,1611,1,0.65,BLACK,BLACK,True,0,0.0013999997463542968,BLACK,True,CORRECT,0.6421977999998489,642.1977999998489
5,20260325_140546,D,J,False,AUTOMATION2,2,384,684,fixed_delta,0.03841730837928436,0.012782208620853738,,,,,0.5194502910141978,1870,1730,1,0.65,BLACK,BLACK,True,0,0.0015000005078036338,WHITE,False,INCORRECT,0.8220433999995294,822.0433999995294
5,20260325_140546,D,J,False,AUTOMATION2,2,385,685,fixed_delta,0.03841730837928436,0.012782208620853738,,,,,0.5424578933687285,1953,1647,1,0.65,BLACK,BLACK,True,0,0.0017999991541728377,WHITE,False,INCORRECT,1.4508405000015046,1450.8405000015046
5,20260325_140546,D,J,False,AUTOMATION2,2,386,686,fixed_delta,0.03841730837928436,0.012782208620853738,,,,,0.5387490429309377,1939,1661,1,0.65,BLACK,WHITE,False,0,0.0017000020307023078,WHITE,False,INCORRECT,1.5914077999987057,1591.4077999987057
5,20260325_140546,D,J,False,AUTOMATION2,2,387,687,fixed_delta,0.03841730837928436,0.012782208620853738,,,,,0.45674288583657036,1644,1956,1,0.65,WHITE,WHITE,True,0,0.0015999976312741637,WHITE,True,CORRECT,0.9137351999997918,913.7351999997918
5,20260325_140546,D,J,False,AUTOMATION2,2,388,688,fixed_delta,0.03841730837928436,0.012782208620853738,,,,,0.446244001000602,1606,1994,1,0.65,WHITE,WHITE,True,0,0.0016000012692529708,WHITE,True,CORRECT,0.8213419000021531,821.3419000021531
5,20260325_140546,D,J,False,AUTOMATION2,2,389,689,fixed_delta,0.03841730837928436,0.012782208620853738,,,,,0.5443231199931282,1960,1640,1,0.65,BLACK,WHITE,False,0,0.0016000012692529708,BLACK,True,CORRECT,1.2399910999993153,1239.9910999993153
5,20260325_140546,D,J,False,AUTOMATION2,2,390,690,fixed_delta,0.03841730837928436,0.012782208620853738,,,,,0.5296829409385507,1907,1693,1,0.65,BLACK,BLACK,True,0,0.0012000018614344299,BLACK,True,CORRECT,2.131905000002007,2131.905000002007
5,20260325_140546,D,J,False,AUTOMATION2,2,391,691,fixed_delta,0.03841730837928436,0.012782208620853738,,,,,0.5343053563394565,1923,1677,1,0.65,BLACK,BLACK,True,0,0.0017999991541728377,BLACK,True,CORRECT,0.9225193999991461,922.5193999991461
5,20260325_140546,D,J,False,AUTOMATION2,2,392,692,fixed_delta,0.03841730837928436,0.012782208620853738,,,,,0.5468019857412634,1968,1632,1,0.65,BLACK,WHITE,False,0,0.0017999991541728377,WHITE,False,INCORRECT,1.0297823999972024,1029.7823999972024
5,20260325_140546,D,J,False,AUTOMATION2,2,393,693,fixed_delta,0.03841730837928436,0.012782208620853738,,,,,0.4667222564801437,1680,1920,1,0.65,WHITE,BLACK,False,0,0.0016000012692529708,WHITE,True,CORRECT,0.7013845000001311,701.3845000001311
5,20260325_140546,D,J,False,AUTOMATION2,2,394,694,fixed_delta,0.03841730837928436,0.012782208620853738,,,,,0.543338634266943,1956,1644,1,0.65,BLACK,BLACK,True,0,0.0012999989849049598,WHITE,False,INCORRECT,1.1148218999987876,1114.8218999987876
5,20260325_140546,D,J,False,AUTOMATION2,2,395,695,fixed_delta,0.03841730837928436,0.012782208620853738,,,,,0.5591715249403904,2013,1587,1,0.65,BLACK,WHITE,False,0,0.0016000012692529708,BLACK,True,CORRECT,4.930838000000222,4930.838000000222
5,20260325_140546,D,J,False,AUTOMATION2,2,396,696,fixed_delta,0.03841730837928436,0.012782208620853738,,,,,0.5436140698883986,1957,1643,1,0.65,BLACK,BLACK,True,0,0.0015000005078036338,BLACK,True,CORRECT,0.718415899998945,718.415899998945
5,20260325_140546,D,J,False,AUTOMATION2,2,397,697,fixed_delta,0.03841730837928436,0.012782208620853738,,,,,0.4661766881029343,1678,1922,1,0.65,WHITE,BLACK,False,0,0.0016999983927235007,WHITE,True,CORRECT,0.5528861999991932,552.8861999991932
5,20260325_140546,D,J,False,AUTOMATION2,2,398,698,fixed_delta,0.03841730837928436,0.012782208620853738,,,,,0.47560897444477235,1712,1888,1,0.65,WHITE,BLACK,False,0,0.0017999991541728377,WHITE,True,CORRECT,0.6250340999977197,625.0340999977197
5,20260325_140546,D,J,False,AUTOMATION2,2,399,699,fixed_delta,0.03841730837928436,0.012782208620853738,,,,,0.4697539825449205,1691,1909,1,0.65,WHITE,WHITE,True,0,0.0016000012692529708,WHITE,True,CORRECT,1.5821039000002202,1582.1039000002202
5,20260325_140546,D,J,False,AUTOMATION2,2,400,700,fixed_delta,0.03841730837928436,0.012782208620853738,,,,,0.46723735827138063,1682,1918,1,0.65,WHITE,WHITE,True,0,0.0015000005078036338,WHITE,True,CORRECT,0.5592021999982535,559.2021999982535
5,20260325_140546,D,J,False,AUTOMATION2,2,401,701,fixed_delta,0.03841730837928436,0.012782208620853738,,,,,0.45199589106397026,1627,1973,1,0.65,WHITE,WHITE,True,0,0.0017000020307023078,WHITE,True,CORRECT,0.7302415000012843,730.2415000012843
5,20260325_140546,D,J,False,AUTOMATION2,2,402,702,fixed_delta,0.03841730837928436,0.012782208620853738,,,,,0.5521282854446434,1988,1612,1,0.65,BLACK,BLACK,True,0,0.0012999989849049598,BLACK,True,CORRECT,0.7469874000016716,746.9874000016716
5,20260325_140546,D,J,False,AUTOMATION2,2,403,703,fixed_delta,0.03841730837928436,0.012782208620853738,,,,,0.45378912359355306,1634,1966,1,0.65,WHITE,BLACK,False,0,0.0016000012692529708,WHITE,True,CORRECT,0.8153233000011824,815.3233000011824
5,20260325_140546,D,J,False,AUTOMATION2,2,404,704,fixed_delta,0.03841730837928436,0.012782208620853738,,,,,0.5387963775517942,1940,1660,1,0.65,BLACK,WHITE,False,0,0.0014999968698248267,BLACK,True,CORRECT,1.4514240999997128,1451.4240999997128
5,20260325_140546,D,J,False,AUTOMATION2,2,405,705,fixed_delta,0.03841730837928436,0.012782208620853738,,,,,0.5517312309082829,1986,1614,1,0.65,BLACK,BLACK,True,0,0.0015999976312741637,BLACK,True,CORRECT,0.6814644000005501,681.4644000005501
5,20260325_140546,D,J,False,AUTOMATION2,2,406,706,fixed_delta,0.03841730837928436,0.012782208620853738,,,,,0.5312392718875464,1912,1688,1,0.65,BLACK,BLACK,True,0,0.0014999968698248267,WHITE,False,INCORRECT,0.7753035999994609,775.3035999994609
5,20260325_140546,D,J,False,AUTOMATION2,2,407,707,fixed_delta,0.03841730837928436,0.012782208620853738,,,,,0.4701440912583879,1693,1907,1,0.65,WHITE,WHITE,True,0,0.0020000006770715117,WHITE,True,CORRECT,0.9496706999998423,949.6706999998423
5,20260325_140546,D,J,False,AUTOMATION2,2,408,708,fixed_delta,0.03841730837928436,0.012782208620853738,,,,,0.5331088974142301,1919,1681,1,0.65,BLACK,BLACK,True,0,0.0016000012692529708,BLACK,True,CORRECT,0.6867401000017708,686.7401000017708
5,20260325_140546,D,J,False,AUTOMATION2,2,409,709,fixed_delta,0.03841730837928436,0.012782208620853738,,,,,0.5311676933785905,1912,1688,1,0.65,BLACK,WHITE,False,0,0.0017000020307023078,WHITE,False,INCORRECT,0.7740333000001556,774.0333000001556
5,20260325_140546,D,J,False,AUTOMATION2,2,410,710,fixed_delta,0.03841730837928436,0.012782208620853738,,,,,0.4782519629540837,1722,1878,1,0.65,WHITE,WHITE,True,0,0.0016999983927235007,WHITE,True,CORRECT,0.8176969000014651,817.6969000014651
5,20260325_140546,D,J,False,AUTOMATION2,2,411,711,fixed_delta,0.03841730837928436,0.012782208620853738,,,,,0.5423560972279833,1952,1648,1,0.65,BLACK,WHITE,False,0,0.0017000020307023078,WHITE,False,INCORRECT,1.4098678000009386,1409.8678000009386
5,20260325_140546,D,J,False,AUTOMATION2,2,412,712,fixed_delta,0.03841730837928436,0.012782208620853738,,,,,0.5331095380771815,1919,1681,1,0.65,BLACK,BLACK,True,0,0.0018999999156221747,BLACK,True,CORRECT,1.2290522000002966,1229.0522000002966
