participant_id,run_timestamp,key_black,key_white,keymap_flip,block,block_idx,trial,global_trial,difficulty_mode,delta_fixed_mean,delta_fixed_sd,delta_stair_realised,delta_stair_mean,delta_step_down_used,delta_step_up_used,vblack_prop,n_vblack,n_vwhite,auto_on,aid_accuracy_setting,stimulus,aid_label,aid_correct,aid_onset_ms,aid_onset_ms_rel,response,correct,feedback,rt_s,rt_ms
5,20260325_140546,D,J,False,MANUAL,3,1,801,fixed_delta,0.03841730837928436,0.012782208620853738,,,,,0.5384076887287765,1938,1662,0,,BLACK,,,0,,WHITE,False,INCORRECT,1.0924829999967187,1092.4829999967187
5,20260325_140546,D,J,False,MANUAL,3,2,802,fixed_delta,0.03841730837928436,0.012782208620853738,,,,,0.5334166085562617,1920,1680,0,,BLACK,,,0,,WHITE,False,INCORRECT,1.2558478999999352,1255.8478999999352
5,20260325_140546,D,J,False,MANUAL,3,3,803,fixed_delta,0.03841730837928436,0.012782208620853738,,,,,0.468043990131104,1685,1915,0,,WHITE,,,0,,WHITE,True,CORRECT,0.9928053999974509,992.8053999974509
5,20260325_140546,D,J,False,MANUAL,3,4,804,fixed_delta,0.03841730837928436,0.012782208620853738,,,,,0.4560623267185834,1642,1958,0,,WHITE,,,0,,WHITE,True,CORRECT,0.665206899997429,665.206899997429
5,20260325_140546,D,J,False,MANUAL,3,5,805,fixed_delta,0.03841730837928436,0.012782208620853738,,,,,0.43411453562145547,1563,2037,0,,WHITE,,,0,,WHITE,True,CORRECT,0.7796679999992193,779.6679999992193
5,20260325_140546,D,J,False,MANUAL,3,6,806,fixed_delta,0.03841730837928436,0.012782208620853738,,,,,0.47501324465491795,1710,1890,0,,WHITE,,,0,,BLACK,False,INCORRECT,0.6724407999972755,672.4407999972755
5,20260325_140546,D,J,False,MANUAL,3,7,807,fixed_delta,0.03841730837928436,0.012782208620853738,,,,,0.4685976775728128,1687,1913,0,,WHITE,,,0,,WHITE,True,CORRECT,0.671289700003399,671.289700003399
5,20260325_140546,D,J,False,MANUAL,3,8,808,fixed_delta,0.03841730837928436,0.012782208620853738,,,,,0.5338961598288777,1922,1678,0,,BLACK,,,0,,BLACK,True,CORRECT,0.7325549999986833,732.5549999986833
5,20260325_140546,D,J,False,MANUAL,3,9,809,fixed_delta,0.03841730837928436,0.012782208620853738,,,,,0.4761889637720142,1714,1886,0,,WHITE,,,0,,WHITE,True,CORRECT,0.7060495000005176,706.0495000005176
5,20260325_140546,D,J,False,MANUAL,3,10,810,fixed_delta,0.03841730837928436,0.012782208620853738,,,,,0.5377203522886455,1936,1664,0,,BLACK,,,0,,BLACK,True,CORRECT,0.6982778000019607,698.2778000019607
5,20260325_140546,D,J,False,MANUAL,3,11,811,fixed_delta,0.03841730837928436,0.012782208620853738,,,,,0.4675216966623982,1683,1917,0,,WHITE,,,0,,WHITE,True,CORRECT,0.9338781000005838,933.8781000005838
5,20260325_140546,D,J,False,MANUAL,3,12,812,fixed_delta,0.03841730837928436,0.012782208620853738,,,,,0.46088819715831114,1659,1941,0,,WHITE,,,0,,WHITE,True,CORRECT,1.0878826000007393,1087.8826000007393
5,20260325_140546,D,J,False,MANUAL,3,13,813,fixed_delta,0.03841730837928436,0.012782208620853738,,,,,0.5341732399738809,1923,1677,0,,BLACK,,,0,,WHITE,False,INCORRECT,0.9570973999980197,957.0973999980197
5,20260325_140546,D,J,False,MANUAL,3,14,814,fixed_delta,0.03841730837928436,0.012782208620853738,,,,,0.4584581341998791,1650,1950,0,,WHITE,,,0,,WHITE,True,CORRECT,2.1655881000006048,2165.5881000006048
5,20260325_140546,D,J,False,MANUAL,3,15,815,fixed_delta,0.03841730837928436,0.012782208620853738,,,,,0.43841758693573807,1578,2022,0,,WHITE,,,0,,WHITE,True,CORRECT,0.8534507000003941,853.4507000003941
5,20260325_140546,D,J,False,MANUAL,3,16,816,fixed_delta,0.03841730837928436,0.012782208620853738,,,,,0.45587902286605164,1641,1959,0,,WHITE,,,0,,WHITE,True,CORRECT,1.7780983000011474,1778.0983000011474
5,20260325_140546,D,J,False,MANUAL,3,17,817,fixed_delta,0.03841730837928436,0.012782208620853738,,,,,0.46734467944433244,1682,1918,0,,WHITE,,,0,,WHITE,True,CORRECT,1.7884565999993356,1788.4565999993356
5,20260325_140546,D,J,False,MANUAL,3,18,818,fixed_delta,0.03841730837928436,0.012782208620853738,,,,,0.5246642883229803,1889,1711,0,,BLACK,,,0,,WHITE,False,INCORRECT,1.161525999999867,1161.525999999867
5,20260325_140546,D,J,False,MANUAL,3,19,819,fixed_delta,0.03841730837928436,0.012782208620853738,,,,,0.5435854189836413,1957,1643,0,,BLACK,,,0,,BLACK,True,CORRECT,0.8062210000025516,806.2210000025516
5,20260325_140546,D,J,False,MANUAL,3,20,820,fixed_delta,0.03841730837928436,0.012782208620853738,,,,,0.459035832118033,1653,1947,0,,WHITE,,,0,,WHITE,True,CORRECT,0.7049998000002233,704.9998000002233
5,20260325_140546,D,J,False,MANUAL,3,21,821,fixed_delta,0.03841730837928436,0.012782208620853738,,,,,0.5202606957548223,1873,1727,0,,BLACK,,,0,,BLACK,True,CORRECT,0.748498799999652,748.498799999652
5,20260325_140546,D,J,False,MANUAL,3,22,822,fixed_delta,0.03841730837928436,0.012782208620853738,,,,,0.5411236830294962,1948,1652,0,,BLACK,,,0,,BLACK,True,CORRECT,0.7627780000002531,762.7780000002531
5,20260325_140546,D,J,False,MANUAL,3,23,823,fixed_delta,0.03841730837928436,0.012782208620853738,,,,,0.5391544276043828,1941,1659,0,,BLACK,,,0,,BLACK,True,CORRECT,0.7580904999995255,758.0904999995255
5,20260325_140546,D,J,False,MANUAL,3,24,824,fixed_delta,0.03841730837928436,0.012782208620853738,,,,,0.5467844914632438,1968,1632,0,,BLACK,,,0,,BLACK,True,CORRECT,1.1139011999985087,1113.9011999985087
5,20260325_140546,D,J,False,MANUAL,3,25,825,fixed_delta,0.03841730837928436,0.012782208620853738,,,,,0.5123892838008309,1845,1755,0,,BLACK,,,0,,BLACK,True,CORRECT,0.8516075000006822,851.6075000006822
5,20260325_140546,D,J,False,MANUAL,3,26,826,fixed_delta,0.03841730837928436,0.012782208620853738,,,,,0.5471846870394236,1970,1630,0,,BLACK,,,0,,WHITE,False,INCORRECT,1.9063261000010243,1906.3261000010243
5,20260325_140546,D,J,False,MANUAL,3,27,827,fixed_delta,0.03841730837928436,0.012782208620853738,,,,,0.4599588571461086,1656,1944,0,,WHITE,,,0,,WHITE,True,CORRECT,0.7486772000011115,748.6772000011115
5,20260325_140546,D,J,False,MANUAL,3,28,828,fixed_delta,0.03841730837928436,0.012782208620853738,,,,,0.4403863151412798,1585,2015,0,,WHITE,,,0,,WHITE,True,CORRECT,1.874490700000024,1874.490700000024
5,20260325_140546,D,J,False,MANUAL,3,29,829,fixed_delta,0.03841730837928436,0.012782208620853738,,,,,0.5448438917880274,1961,1639,0,,BLACK,,,0,,BLACK,True,CORRECT,1.162091900001542,1162.091900001542
5,20260325_140546,D,J,False,MANUAL,3,30,830,fixed_delta,0.03841730837928436,0.012782208620853738,,,,,0.5301820535534524,1909,1691,0,,BLACK,,,0,,BLACK,True,CORRECT,2.8270210000009683,2827.0210000009683
5,20260325_140546,D,J,False,MANUAL,3,31,831,fixed_delta,0.03841730837928436,0.012782208620853738,,,,,0.5583426587967938,2010,1590,0,,BLACK,,,0,,BLACK,True,CORRECT,0.9542118000026676,954.2118000026676
5,20260325_140546,D,J,False,MANUAL,3,32,832,fixed_delta,0.03841730837928436,0.012782208620853738,,,,,0.5470223219293044,1969,1631,0,,BLACK,,,0,,WHITE,False,INCORRECT,1.1520823999999266,1152.0823999999266
5,20260325_140546,D,J,False,MANUAL,3,33,833,fixed_delta,0.03841730837928436,0.012782208620853738,,,,,0.46364535442496096,1669,1931,0,,WHITE,,,0,,WHITE,True,CORRECT,0.774700899997697,774.700899997697
5,20260325_140546,D,J,False,MANUAL,3,34,834,fixed_delta,0.03841730837928436,0.012782208620853738,,,,,0.5506434808787212,1982,1618,0,,BLACK,,,0,,BLACK,True,CORRECT,1.3240608000014618,1324.0608000014618
5,20260325_140546,D,J,False,MANUAL,3,35,835,fixed_delta,0.03841730837928436,0.012782208620853738,,,,,0.45489208855192503,1638,1962,0,,WHITE,,,0,,WHITE,True,CORRECT,1.1313850000005914,1131.3850000005914
5,20260325_140546,D,J,False,MANUAL,3,36,836,fixed_delta,0.03841730837928436,0.012782208620853738,,,,,0.44489056217963896,1602,1998,0,,WHITE,,,0,,WHITE,True,CORRECT,0.9948339000002306,994.8339000002306
5,20260325_140546,D,J,False,MANUAL,3,37,837,fixed_delta,0.03841730837928436,0.012782208620853738,,,,,0.44596239351867184,1605,1995,0,,WHITE,,,0,,WHITE,True,CORRECT,0.7095690999994986,709.5690999994986
5,20260325_140546,D,J,False,MANUAL,3,38,838,fixed_delta,0.03841730837928436,0.012782208620853738,,,,,0.5383494556019639,1938,1662,0,,BLACK,,,0,,BLACK,True,CORRECT,0.907060099998489,907.060099998489
5,20260325_140546,D,J,False,MANUAL,3,39,839,fixed_delta,0.03841730837928436,0.012782208620853738,,,,,0.5357699392029687,1929,1671,0,,BLACK,,,0,,BLACK,True,CORRECT,2.035518200002116,2035.518200002116
5,20260325_140546,D,J,False,MANUAL,3,40,840,fixed_delta,0.03841730837928436,0.012782208620853738,,,,,0.4350478368803321,1566,2034,0,,WHITE,,,0,,WHITE,True,CORRECT,0.754918099999486,754.918099999486
5,20260325_140546,D,J,False,MANUAL,3,41,841,fixed_delta,0.03841730837928436,0.012782208620853738,,,,,0.4501998216166575,1621,1979,0,,WHITE,,,0,,WHITE,True,CORRECT,1.0759768999996595,1075.9768999996595
5,20260325_140546,D,J,False,MANUAL,3,42,842,fixed_delta,0.03841730837928436,0.012782208620853738,,,,,0.4721240425365353,1700,1900,0,,WHITE,,,0,,BLACK,False,INCORRECT,1.199778400001378,1199.778400001378
5,20260325_140546,D,J,False,MANUAL,3,43,843,fixed_delta,0.03841730837928436,0.012782208620853738,,,,,0.44299818374146693,1595,2005,0,,WHITE,,,0,,WHITE,True,CORRECT,0.7669998999990639,766.9998999990639
5,20260325_140546,D,J,False,MANUAL,3,44,844,fixed_delta,0.03841730837928436,0.012782208620853738,,,,,0.5654830980632852,2036,1564,0,,BLACK,,,0,,BLACK,True,CORRECT,0.6852590999988024,685.2590999988024
5,20260325_140546,D,J,False,MANUAL,3,45,845,fixed_delta,0.03841730837928436,0.012782208620853738,,,,,0.4660011140080623,1678,1922,0,,WHITE,,,0,,WHITE,True,CORRECT,1.2402987999994366,1240.2987999994366
5,20260325_140546,D,J,False,MANUAL,3,46,846,fixed_delta,0.03841730837928436,0.012782208620853738,,,,,0.5323816168922699,1917,1683,0,,BLACK,,,0,,WHITE,False,INCORRECT,1.1227744000025268,1122.7744000025268
5,20260325_140546,D,J,False,MANUAL,3,47,847,fixed_delta,0.03841730837928436,0.012782208620853738,,,,,0.5262075900431512,1894,1706,0,,BLACK,,,0,,BLACK,True,CORRECT,1.3049787000018114,1304.9787000018114
5,20260325_140546,D,J,False,MANUAL,3,48,848,fixed_delta,0.03841730837928436,0.012782208620853738,,,,,0.44772310486506645,1612,1988,0,,WHITE,,,0,,WHITE,True,CORRECT,0.7134461999994528,713.4461999994528
5,20260325_140546,D,J,False,MANUAL,3,49,849,fixed_delta,0.03841730837928436,0.012782208620853738,,,,,0.5434717394088857,1956,1644,0,,BLACK,,,0,,BLACK,True,CORRECT,0.8060446999988926,806.0446999988926
5,20260325_140546,D,J,False,MANUAL,3,50,850,fixed_delta,0.03841730837928436,0.012782208620853738,,,,,0.5512986294410586,1985,1615,0,,BLACK,,,0,,BLACK,True,CORRECT,0.8485335000004852,848.5335000004852
5,20260325_140546,D,J,False,MANUAL,3,51,851,fixed_delta,0.03841730837928436,0.012782208620853738,,,,,0.5616197449531048,2022,1578,0,,BLACK,,,0,,BLACK,True,CORRECT,0.5920342999997956,592.0342999997956
5,20260325_140546,D,J,False,MANUAL,3,52,852,fixed_delta,0.03841730837928436,0.012782208620853738,,,,,0.4703537972340288,1693,1907,0,,WHITE,,,0,,BLACK,False,INCORRECT,3.222776000002341,3222.776000002341
5,20260325_140546,D,J,False,MANUAL,3,53,853,fixed_delta,0.03841730837928436,0.012782208620853738,,,,,0.4781757972517624,1721,1879,0,,WHITE,,,0,,WHITE,True,CORRECT,0.7051831000026141,705.1831000026141
5,20260325_140546,D,J,False,MANUAL,3,54,854,fixed_delta,0.03841730837928436,0.012782208620853738,,,,,0.45839218702038514,1650,1950,0,,WHITE,,,0,,WHITE,True,CORRECT,0.7237224000018614,723.7224000018614
5,20260325_140546,D,J,False,MANUAL,3,55,855,fixed_delta,0.03841730837928436,0.012782208620853738,,,,,0.5420745984621725,1951,1649,0,,BLACK,,,0,,BLACK,True,CORRECT,1.0058821999991778,1005.8821999991778
5,20260325_140546,D,J,False,MANUAL,3,56,856,fixed_delta,0.03841730837928436,0.012782208620853738,,,,,0.5458001519527851,1965,1635,0,,BLACK,,,0,,WHITE,False,INCORRECT,1.3790868000032788,1379.0868000032788
5,20260325_140546,D,J,False,MANUAL,3,57,857,fixed_delta,0.03841730837928436,0.012782208620853738,,,,,0.46604686936082096,1678,1922,0,,WHITE,,,0,,WHITE,True,CORRECT,0.7066228000003321,706.6228000003321
5,20260325_140546,D,J,False,MANUAL,3,58,858,fixed_delta,0.03841730837928436,0.012782208620853738,,,,,0.5547733260035164,1997,1603,0,,BLACK,,,0,,BLACK,True,CORRECT,0.7592992999998387,759.2992999998387
5,20260325_140546,D,J,False,MANUAL,3,59,859,fixed_delta,0.03841730837928436,0.012782208620853738,,,,,0.46188678739878863,1663,1937,0,,WHITE,,,0,,WHITE,True,CORRECT,1.199840100001893,1199.840100001893
5,20260325_140546,D,J,False,MANUAL,3,60,860,fixed_delta,0.03841730837928436,0.012782208620853738,,,,,0.4621668969711959,1664,1936,0,,WHITE,,,0,,WHITE,True,CORRECT,0.8820249999989755,882.0249999989755
5,20260325_140546,D,J,False,MANUAL,3,61,861,fixed_delta,0.03841730837928436,0.012782208620853738,,,,,0.43897760041564693,1580,2020,0,,WHITE,,,0,,WHITE,True,CORRECT,0.6973809000010078,697.3809000010078
5,20260325_140546,D,J,False,MANUAL,3,62,862,fixed_delta,0.03841730837928436,0.012782208620853738,,,,,0.5291150983952879,1905,1695,0,,BLACK,,,0,,BLACK,True,CORRECT,0.7850866999979189,785.0866999979189
5,20260325_140546,D,J,False,MANUAL,3,63,863,fixed_delta,0.03841730837928436,0.012782208620853738,,,,,0.5315202956632282,1913,1687,0,,BLACK,,,0,,BLACK,True,CORRECT,0.6853975999983959,685.3975999983959
5,20260325_140546,D,J,False,MANUAL,3,64,864,fixed_delta,0.03841730837928436,0.012782208620853738,,,,,0.44649067116609853,1607,1993,0,,WHITE,,,0,,WHITE,True,CORRECT,0.689186299998255,689.186299998255
5,20260325_140546,D,J,False,MANUAL,3,65,865,fixed_delta,0.03841730837928436,0.012782208620853738,,,,,0.5232302534360862,1884,1716,0,,BLACK,,,0,,BLACK,True,CORRECT,0.6976147999994282,697.6147999994282
5,20260325_140546,D,J,False,MANUAL,3,66,866,fixed_delta,0.03841730837928436,0.012782208620853738,,,,,0.46864783513739305,1687,1913,0,,WHITE,,,0,,WHITE,True,CORRECT,0.8582453999988502,858.2453999988502
5,20260325_140546,D,J,False,MANUAL,3,67,867,fixed_delta,0.03841730837928436,0.012782208620853738,,,,,0.5416524152942833,1950,1650,0,,BLACK,,,0,,BLACK,True,CORRECT,0.6682589999982156,668.2589999982156
5,20260325_140546,D,J,False,MANUAL,3,68,868,fixed_delta,0.03841730837928436,0.012782208620853738,,,,,0.5309842723875446,1912,1688,0,,BLACK,,,0,,WHITE,False,INCORRECT,0.9594661000010092,959.4661000010092
5,20260325_140546,D,J,False,MANUAL,3,69,869,fixed_delta,0.03841730837928436,0.012782208620853738,,,,,0.4469301561196875,1609,1991,0,,WHITE,,,0,,WHITE,True,CORRECT,0.6923343000016757,692.3343000016757
5,20260325_140546,D,J,False,MANUAL,3,70,870,fixed_delta,0.03841730837928436,0.012782208620853738,,,,,0.5505011642117993,1982,1618,0,,BLACK,,,0,,BLACK,True,CORRECT,0.6835864999993646,683.5864999993646
5,20260325_140546,D,J,False,MANUAL,3,71,871,fixed_delta,0.03841730837928436,0.012782208620853738,,,,,0.47311506870916226,1703,1897,0,,WHITE,,,0,,WHITE,True,CORRECT,1.3496959000003699,1349.6959000003699
5,20260325_140546,D,J,False,MANUAL,3,72,872,fixed_delta,0.03841730837928436,0.012782208620853738,,,,,0.47713798117919953,1718,1882,0,,WHITE,,,0,,WHITE,True,CORRECT,0.9643537000010838,964.3537000010838
5,20260325_140546,D,J,False,MANUAL,3,73,873,fixed_delta,0.03841730837928436,0.012782208620853738,,,,,0.45180453528383424,1626,1974,0,,WHITE,,,0,,WHITE,True,CORRECT,0.9075185000001511,907.5185000001511
5,20260325_140546,D,J,False,MANUAL,3,74,874,fixed_delta,0.03841730837928436,0.012782208620853738,,,,,0.5093911074329873,1834,1766,0,,BLACK,,,0,,BLACK,True,CORRECT,1.0113905999969575,1011.3905999969575
5,20260325_140546,D,J,False,MANUAL,3,75,875,fixed_delta,0.03841730837928436,0.012782208620853738,,,,,0.46905712557032264,1689,1911,0,,WHITE,,,0,,WHITE,True,CORRECT,1.1271941000013612,1127.1941000013612
5,20260325_140546,D,J,False,MANUAL,3,76,876,fixed_delta,0.03841730837928436,0.012782208620853738,,,,,0.5325234693557771,1917,1683,0,,BLACK,,,0,,BLACK,True,CORRECT,0.8410054000014497,841.0054000014497
5,20260325_140546,D,J,False,MANUAL,3,77,877,fixed_delta,0.03841730837928436,0.012782208620853738,,,,,0.4398202602393744,1583,2017,0,,WHITE,,,0,,WHITE,True,CORRECT,0.7556031000021903,755.6031000021903
5,20260325_140546,D,J,False,MANUAL,3,78,878,fixed_delta,0.03841730837928436,0.012782208620853738,,,,,0.5353744581495226,1927,1673,0,,BLACK,,,0,,BLACK,True,CORRECT,1.005237199999101,1005.237199999101
5,20260325_140546,D,J,False,MANUAL,3,79,879,fixed_delta,0.03841730837928436,0.012782208620853738,,,,,0.47048434682916795,1694,1906,0,,WHITE,,,0,,WHITE,True,CORRECT,0.7591604999979609,759.1604999979609
5,20260325_140546,D,J,False,MANUAL,3,80,880,fixed_delta,0.03841730837928436,0.012782208620853738,,,,,0.5376960991938349,1936,1664,0,,BLACK,,,0,,BLACK,True,CORRECT,0.8009811999982048,800.9811999982048
5,20260325_140546,D,J,False,MANUAL,3,81,881,fixed_delta,0.03841730837928436,0.012782208620853738,,,,,0.5436808163873955,1957,1643,0,,BLACK,,,0,,BLACK,True,CORRECT,1.2040914999997767,1204.0914999997767
5,20260325_140546,D,J,False,MANUAL,3,82,882,fixed_delta,0.03841730837928436,0.012782208620853738,,,,,0.4547282735623322,1637,1963,0,,WHITE,,,0,,WHITE,True,CORRECT,0.6618396000012581,661.8396000012581
5,20260325_140546,D,J,False,MANUAL,3,83,883,fixed_delta,0.03841730837928436,0.012782208620853738,,,,,0.46074428269314616,1659,1941,0,,WHITE,,,0,,WHITE,True,CORRECT,0.9308333000008133,930.8333000008133
5,20260325_140546,D,J,False,MANUAL,3,84,884,fixed_delta,0.03841730837928436,0.012782208620853738,,,,,0.47490880062231355,1710,1890,0,,WHITE,,,0,,WHITE,True,CORRECT,0.779426400000375,779.426400000375
5,20260325_140546,D,J,False,MANUAL,3,85,885,fixed_delta,0.03841730837928436,0.012782208620853738,,,,,0.448077240546257,1613,1987,0,,WHITE,,,0,,WHITE,True,CORRECT,0.809925800000201,809.925800000201
5,20260325_140546,D,J,False,MANUAL,3,86,886,fixed_delta,0.03841730837928436,0.012782208620853738,,,,,0.5513578694009245,1985,1615,0,,BLACK,,,0,,BLACK,True,CORRECT,0.601035799998499,601.035799998499
5,20260325_140546,D,J,False,MANUAL,3,87,887,fixed_delta,0.03841730837928436,0.012782208620853738,,,,,0.5225767349065799,1881,1719,0,,BLACK,,,0,,WHITE,False,INCORRECT,0.9904459999997925,990.4459999997925
5,20260325_140546,D,J,False,MANUAL,3,88,888,fixed_delta,0.03841730837928436,0.012782208620853738,,,,,0.5364078836846283,1931,1669,0,,BLACK,,,0,,BLACK,True,CORRECT,1.1136229000003368,1113.6229000003368
5,20260325_140546,D,J,False,MANUAL,3,89,889,fixed_delta,0.03841730837928436,0.012782208620853738,,,,,0.5593928964304462,2014,1586,0,,BLACK,,,0,,BLACK,True,CORRECT,0.880176599999686,880.176599999686
5,20260325_140546,D,J,False,MANUAL,3,90,890,fixed_delta,0.03841730837928436,0.012782208620853738,,,,,0.5417910820708528,1950,1650,0,,BLACK,,,0,,WHITE,False,INCORRECT,1.367358499999682,1367.358499999682
5,20260325_140546,D,J,False,MANUAL,3,91,891,fixed_delta,0.03841730837928436,0.012782208620853738,,,,,0.46472376749302663,1673,1927,0,,WHITE,,,0,,WHITE,True,CORRECT,0.7447701999990386,744.7701999990386
5,20260325_140546,D,J,False,MANUAL,3,92,892,fixed_delta,0.03841730837928436,0.012782208620853738,,,,,0.4743732181104857,1708,1892,0,,WHITE,,,0,,WHITE,True,CORRECT,0.8464082999998936,846.4082999998936
5,20260325_140546,D,J,False,MANUAL,3,93,893,fixed_delta,0.03841730837928436,0.012782208620853738,,,,,0.4378762103418836,1576,2024,0,,WHITE,,,0,,WHITE,True,CORRECT,2.814641399996617,2814.641399996617
5,20260325_140546,D,J,False,MANUAL,3,94,894,fixed_delta,0.03841730837928436,0.012782208620853738,,,,,0.5549153137121804,1998,1602,0,,BLACK,,,0,,BLACK,True,CORRECT,0.9924198000007891,992.4198000007891
5,20260325_140546,D,J,False,MANUAL,3,95,895,fixed_delta,0.03841730837928436,0.012782208620853738,,,,,0.527166925141087,1898,1702,0,,BLACK,,,0,,BLACK,True,CORRECT,1.2968522000010125,1296.8522000010125
5,20260325_140546,D,J,False,MANUAL,3,96,896,fixed_delta,0.03841730837928436,0.012782208620853738,,,,,0.5299609453209295,1908,1692,0,,BLACK,,,0,,BLACK,True,CORRECT,1.3017938000011782,1301.7938000011782
5,20260325_140546,D,J,False,MANUAL,3,97,897,fixed_delta,0.03841730837928436,0.012782208620853738,,,,,0.5492303410085446,1977,1623,0,,BLACK,,,0,,BLACK,True,CORRECT,0.6770886999984214,677.0886999984214
5,20260325_140546,D,J,False,MANUAL,3,98,898,fixed_delta,0.03841730837928436,0.012782208620853738,,,,,0.4766487231997256,1716,1884,0,,WHITE,,,0,,WHITE,True,CORRECT,0.7503117999985989,750.3117999985989
5,20260325_140546,D,J,False,MANUAL,3,99,899,fixed_delta,0.03841730837928436,0.012782208620853738,,,,,0.4690999926332824,1689,1911,0,,WHITE,,,0,,WHITE,True,CORRECT,0.7746388999985356,774.6388999985356
5,20260325_140546,D,J,False,MANUAL,3,100,900,fixed_delta,0.03841730837928436,0.012782208620853738,,,,,0.4430886091926187,1595,2005,0,,WHITE,,,0,,WHITE,True,CORRECT,0.600605200001155,600.605200001155
5,20260325_140546,D,J,False,MANUAL,3,101,901,fixed_delta,0.03841730837928436,0.012782208620853738,,,,,0.5478802624334654,1972,1628,0,,BLACK,,,0,,BLACK,True,CORRECT,0.7610124999991967,761.0124999991967
5,20260325_140546,D,J,False,MANUAL,3,102,902,fixed_delta,0.03841730837928436,0.012782208620853738,,,,,0.44432745318170946,1600,2000,0,,WHITE,,,0,,WHITE,True,CORRECT,0.720196099999157,720.196099999157
5,20260325_140546,D,J,False,MANUAL,3,103,903,fixed_delta,0.03841730837928436,0.012782208620853738,,,,,0.468533524481376,1687,1913,0,,WHITE,,,0,,WHITE,True,CORRECT,0.7977406999998493,797.7406999998493
5,20260325_140546,D,J,False,MANUAL,3,104,904,fixed_delta,0.03841730837928436,0.012782208620853738,,,,,0.44340484414192416,1596,2004,0,,WHITE,,,0,,WHITE,True,CORRECT,0.6204108999991149,620.4108999991149
5,20260325_140546,D,J,False,MANUAL,3,105,905,fixed_delta,0.03841730837928436,0.012782208620853738,,,,,0.45507684167223783,1638,1962,0,,WHITE,,,0,,BLACK,False,INCORRECT,1.1303149000013946,1130.3149000013946
5,20260325_140546,D,J,False,MANUAL,3,106,906,fixed_delta,0.03841730837928436,0.012782208620853738,,,,,0.46559207580580847,1676,1924,0,,WHITE,,,0,,WHITE,True,CORRECT,0.6318820000014966,631.8820000014966
5,20260325_140546,D,J,False,MANUAL,3,107,907,fixed_delta,0.03841730837928436,0.012782208620853738,,,,,0.4521917020285818,1628,1972,0,,WHITE,,,0,,WHITE,True,CORRECT,0.6885942000008072,688.5942000008072
5,20260325_140546,D,J,False,MANUAL,3,108,908,fixed_delta,0.03841730837928436,0.012782208620853738,,,,,0.5301529730879961,1909,1691,0,,BLACK,,,0,,WHITE,False,INCORRECT,0.7346307000007073,734.6307000007073
5,20260325_140546,D,J,False,MANUAL,3,109,909,fixed_delta,0.03841730837928436,0.012782208620853738,,,,,0.5326839120270064,1918,1682,0,,BLACK,,,0,,BLACK,True,CORRECT,0.587697200000548,587.697200000548
5,20260325_140546,D,J,False,MANUAL,3,110,910,fixed_delta,0.03841730837928436,0.012782208620853738,,,,,0.44778278437195435,1612,1988,0,,WHITE,,,0,,WHITE,True,CORRECT,0.8205875999992713,820.5875999992713
5,20260325_140546,D,J,False,MANUAL,3,111,911,fixed_delta,0.03841730837928436,0.012782208620853738,,,,,0.5378749943200962,1936,1664,0,,BLACK,,,0,,BLACK,True,CORRECT,1.0858679000011762,1085.8679000011762
5,20260325_140546,D,J,False,MANUAL,3,112,912,fixed_delta,0.03841730837928436,0.012782208620853738,,,,,0.5558513877712363,2001,1599,0,,BLACK,,,0,,BLACK,True,CORRECT,0.6614554999978282,661.4554999978282
5,20260325_140546,D,J,False,MANUAL,3,113,913,fixed_delta,0.03841730837928436,0.012782208620853738,,,,,0.4683832339761482,1686,1914,0,,WHITE,,,0,,WHITE,True,CORRECT,0.5891913999985263,589.1913999985263
5,20260325_140546,D,J,False,MANUAL,3,114,914,fixed_delta,0.03841730837928436,0.012782208620853738,,,,,0.4629674852712404,1667,1933,0,,WHITE,,,0,,WHITE,True,CORRECT,0.6429285000012896,642.9285000012896
5,20260325_140546,D,J,False,MANUAL,3,115,915,fixed_delta,0.03841730837928436,0.012782208620853738,,,,,0.4699899465888446,1692,1908,0,,WHITE,,,0,,WHITE,True,CORRECT,0.818741899998713,818.741899998713
5,20260325_140546,D,J,False,MANUAL,3,116,916,fixed_delta,0.03841730837928436,0.012782208620853738,,,,,0.5306172198444395,1910,1690,0,,BLACK,,,0,,BLACK,True,CORRECT,0.8296921000001021,829.6921000001021
5,20260325_140546,D,J,False,MANUAL,3,117,917,fixed_delta,0.03841730837928436,0.012782208620853738,,,,,0.5383224556476605,1938,1662,0,,BLACK,,,0,,BLACK,True,CORRECT,0.5750226999989536,575.0226999989536
5,20260325_140546,D,J,False,MANUAL,3,118,918,fixed_delta,0.03841730837928436,0.012782208620853738,,,,,0.5296333491973281,1907,1693,0,,BLACK,,,0,,BLACK,True,CORRECT,0.8303082999991602,830.3082999991602
5,20260325_140546,D,J,False,MANUAL,3,119,919,fixed_delta,0.03841730837928436,0.012782208620853738,,,,,0.4652257156254114,1675,1925,0,,WHITE,,,0,,WHITE,True,CORRECT,0.7478601000002527,747.8601000002527
5,20260325_140546,D,J,False,MANUAL,3,120,920,fixed_delta,0.03841730837928436,0.012782208620853738,,,,,0.5155828118288559,1856,1744,0,,BLACK,,,0,,WHITE,False,INCORRECT,1.298593899999105,1298.593899999105
5,20260325_140546,D,J,False,MANUAL,3,121,921,fixed_delta,0.03841730837928436,0.012782208620853738,,,,,0.5320344507862735,1915,1685,0,,BLACK,,,0,,WHITE,False,INCORRECT,0.7759073999986867,775.9073999986867
5,20260325_140546,D,J,False,MANUAL,3,122,922,fixed_delta,0.03841730837928436,0.012782208620853738,,,,,0.5311235510590111,1912,1688,0,,BLACK,,,0,,BLACK,True,CORRECT,0.6462433999986388,646.2433999986388
5,20260325_140546,D,J,False,MANUAL,3,123,923,fixed_delta,0.03841730837928436,0.012782208620853738,,,,,0.5698262316316416,2051,1549,0,,BLACK,,,0,,BLACK,True,CORRECT,0.5694497000004048,569.4497000004048
5,20260325_140546,D,J,False,MANUAL,3,124,924,fixed_delta,0.03841730837928436,0.012782208620853738,,,,,0.48603916621630444,1750,1850,0,,WHITE,,,0,,WHITE,True,CORRECT,0.8103668000003381,810.3668000003381
5,20260325_140546,D,J,False,MANUAL,3,125,925,fixed_delta,0.03841730837928436,0.012782208620853738,,,,,0.5611379371385333,2020,1580,0,,BLACK,,,0,,BLACK,True,CORRECT,0.788918599999306,788.918599999306
5,20260325_140546,D,J,False,MANUAL,3,126,926,fixed_delta,0.03841730837928436,0.012782208620853738,,,,,0.459356383263711,1654,1946,0,,WHITE,,,0,,WHITE,True,CORRECT,0.7330161999998381,733.0161999998381
5,20260325_140546,D,J,False,MANUAL,3,127,927,fixed_delta,0.03841730837928436,0.012782208620853738,,,,,0.5396361863110222,1943,1657,0,,BLACK,,,0,,BLACK,True,CORRECT,1.2266072000020358,1226.6072000020358
5,20260325_140546,D,J,False,MANUAL,3,128,928,fixed_delta,0.03841730837928436,0.012782208620853738,,,,,0.45798036874182,1649,1951,0,,WHITE,,,0,,WHITE,True,CORRECT,0.7838117999999668,783.8117999999668
5,20260325_140546,D,J,False,MANUAL,3,129,929,fixed_delta,0.03841730837928436,0.012782208620853738,,,,,0.4674126316648507,1683,1917,0,,WHITE,,,0,,WHITE,True,CORRECT,1.7705158999997366,1770.5158999997366
5,20260325_140546,D,J,False,MANUAL,3,130,930,fixed_delta,0.03841730837928436,0.012782208620853738,,,,,0.5155796112657305,1856,1744,0,,BLACK,,,0,,WHITE,False,INCORRECT,0.7175854000015534,717.5854000015534
5,20260325_140546,D,J,False,MANUAL,3,131,931,fixed_delta,0.03841730837928436,0.012782208620853738,,,,,0.46937877080333873,1690,1910,0,,WHITE,,,0,,WHITE,True,CORRECT,0.940598900000623,940.598900000623
5,20260325_140546,D,J,False,MANUAL,3,132,932,fixed_delta,0.03841730837928436,0.012782208620853738,,,,,0.45103502704741505,1624,1976,0,,WHITE,,,0,,WHITE,True,CORRECT,0.7097897000021476,709.7897000021476
5,20260325_140546,D,J,False,MANUAL,3,133,933,fixed_delta,0.03841730837928436,0.012782208620853738,,,,,0.5285147332356486,1903,1697,0,,BLACK,,,0,,BLACK,True,CORRECT,0.6914095000029192,691.4095000029192
5,20260325_140546,D,J,False,MANUAL,3,134,934,fixed_delta,0.03841730837928436,0.012782208620853738,,,,,0.5294307167244724,1906,1694,0,,BLACK,,,0,,BLACK,True,CORRECT,0.7489695000003849,748.9695000003849
5,20260325_140546,D,J,False,MANUAL,3,135,935,fixed_delta,0.03841730837928436,0.012782208620853738,,,,,0.47515450395856934,1711,1889,0,,WHITE,,,0,,BLACK,False,INCORRECT,0.8762392000026011,876.2392000026011
5,20260325_140546,D,J,False,MANUAL,3,136,936,fixed_delta,0.03841730837928436,0.012782208620853738,,,,,0.4514601365763282,1625,1975,0,,WHITE,,,0,,WHITE,True,CORRECT,0.5089986999992107,508.99869999921066
5,20260325_140546,D,J,False,MANUAL,3,137,937,fixed_delta,0.03841730837928436,0.012782208620853738,,,,,0.47006853821398165,1692,1908,0,,WHITE,,,0,,BLACK,False,INCORRECT,1.4699442999990424,1469.9442999990424
5,20260325_140546,D,J,False,MANUAL,3,138,938,fixed_delta,0.03841730837928436,0.012782208620853738,,,,,0.44508858675941754,1602,1998,0,,WHITE,,,0,,WHITE,True,CORRECT,0.6651963999975123,665.1963999975123
5,20260325_140546,D,J,False,MANUAL,3,139,939,fixed_delta,0.03841730837928436,0.012782208620853738,,,,,0.5261766797901624,1894,1706,0,,BLACK,,,0,,BLACK,True,CORRECT,1.475094599998556,1475.094599998556
5,20260325_140546,D,J,False,MANUAL,3,140,940,fixed_delta,0.03841730837928436,0.012782208620853738,,,,,0.46026079213329685,1657,1943,0,,WHITE,,,0,,WHITE,True,CORRECT,0.7933209000002535,793.3209000002535
5,20260325_140546,D,J,False,MANUAL,3,141,941,fixed_delta,0.03841730837928436,0.012782208620853738,,,,,0.54000577668743,1944,1656,0,,BLACK,,,0,,BLACK,True,CORRECT,0.933306499999162,933.306499999162
5,20260325_140546,D,J,False,MANUAL,3,142,942,fixed_delta,0.03841730837928436,0.012782208620853738,,,,,0.4864736760060866,1751,1849,0,,WHITE,,,0,,WHITE,True,CORRECT,0.7184467999977642,718.4467999977642
5,20260325_140546,D,J,False,MANUAL,3,143,943,fixed_delta,0.03841730837928436,0.012782208620853738,,,,,0.4792165171295384,1725,1875,0,,WHITE,,,0,,WHITE,True,CORRECT,1.0157528999989154,1015.7528999989154
5,20260325_140546,D,J,False,MANUAL,3,144,944,fixed_delta,0.03841730837928436,0.012782208620853738,,,,,0.5458264500392622,1965,1635,0,,BLACK,,,0,,BLACK,True,CORRECT,0.9264737999983481,926.4737999983481
5,20260325_140546,D,J,False,MANUAL,3,145,945,fixed_delta,0.03841730837928436,0.012782208620853738,,,,,0.5247036618175763,1889,1711,0,,BLACK,,,0,,WHITE,False,INCORRECT,1.341250299999956,1341.250299999956
5,20260325_140546,D,J,False,MANUAL,3,146,946,fixed_delta,0.03841730837928436,0.012782208620853738,,,,,0.4643429338446161,1672,1928,0,,WHITE,,,0,,WHITE,True,CORRECT,0.9132031999979517,913.2031999979517
5,20260325_140546,D,J,False,MANUAL,3,147,947,fixed_delta,0.03841730837928436,0.012782208620853738,,,,,0.545886278998299,1965,1635,0,,BLACK,,,0,,BLACK,True,CORRECT,2.1363842000027944,2136.3842000027944
5,20260325_140546,D,J,False,MANUAL,3,148,948,fixed_delta,0.03841730837928436,0.012782208620853738,,,,,0.5188283541364775,1868,1732,0,,BLACK,,,0,,WHITE,False,INCORRECT,1.0273396000011417,1027.3396000011417
5,20260325_140546,D,J,False,MANUAL,3,149,949,fixed_delta,0.03841730837928436,0.012782208620853738,,,,,0.4531300688624764,1631,1969,0,,WHITE,,,0,,WHITE,True,CORRECT,0.6892454999979236,689.2454999979236
5,20260325_140546,D,J,False,MANUAL,3,150,950,fixed_delta,0.03841730837928436,0.012782208620853738,,,,,0.5227795675884855,1882,1718,0,,BLACK,,,0,,WHITE,False,INCORRECT,0.6876351999999315,687.6351999999315
5,20260325_140546,D,J,False,MANUAL,3,151,951,fixed_delta,0.03841730837928436,0.012782208620853738,,,,,0.4450514138283648,1602,1998,0,,WHITE,,,0,,WHITE,True,CORRECT,0.5973439999979746,597.3439999979746
5,20260325_140546,D,J,False,MANUAL,3,152,952,fixed_delta,0.03841730837928436,0.012782208620853738,,,,,0.5219757309386941,1879,1721,0,,BLACK,,,0,,BLACK,True,CORRECT,0.865421200000128,865.421200000128
5,20260325_140546,D,J,False,MANUAL,3,153,953,fixed_delta,0.03841730837928436,0.012782208620853738,,,,,0.5187909846271545,1868,1732,0,,BLACK,,,0,,WHITE,False,INCORRECT,1.2526604000013322,1252.6604000013322
5,20260325_140546,D,J,False,MANUAL,3,154,954,fixed_delta,0.03841730837928436,0.012782208620853738,,,,,0.4585237077767713,1651,1949,0,,WHITE,,,0,,WHITE,True,CORRECT,0.6664651999999478,666.4651999999478
5,20260325_140546,D,J,False,MANUAL,3,155,955,fixed_delta,0.03841730837928436,0.012782208620853738,,,,,0.4619975063087133,1663,1937,0,,WHITE,,,0,,WHITE,True,CORRECT,2.475904200000514,2475.904200000514
5,20260325_140546,D,J,False,MANUAL,3,156,956,fixed_delta,0.03841730837928436,0.012782208620853738,,,,,0.5447370627918386,1961,1639,0,,BLACK,,,0,,BLACK,True,CORRECT,0.9995927999989362,999.5927999989362
5,20260325_140546,D,J,False,MANUAL,3,157,957,fixed_delta,0.03841730837928436,0.012782208620853738,,,,,0.4637300340735434,1669,1931,0,,WHITE,,,0,,WHITE,True,CORRECT,0.6157287999994878,615.7287999994878
5,20260325_140546,D,J,False,MANUAL,3,158,958,fixed_delta,0.03841730837928436,0.012782208620853738,,,,,0.46457310941705793,1672,1928,0,,WHITE,,,0,,WHITE,True,CORRECT,1.208434500000294,1208.434500000294
5,20260325_140546,D,J,False,MANUAL,3,159,959,fixed_delta,0.03841730837928436,0.012782208620853738,,,,,0.4542244926640367,1635,1965,0,,WHITE,,,0,,WHITE,True,CORRECT,0.775803000000451,775.803000000451
5,20260325_140546,D,J,False,MANUAL,3,160,960,fixed_delta,0.03841730837928436,0.012782208620853738,,,,,0.5337885872204924,1922,1678,0,,BLACK,,,0,,BLACK,True,CORRECT,0.6821610999977565,682.1610999977565
5,20260325_140546,D,J,False,MANUAL,3,161,961,fixed_delta,0.03841730837928436,0.012782208620853738,,,,,0.5325055044911008,1917,1683,0,,BLACK,,,0,,BLACK,True,CORRECT,0.6565455999989354,656.5455999989354
5,20260325_140546,D,J,False,MANUAL,3,162,962,fixed_delta,0.03841730837928436,0.012782208620853738,,,,,0.4671374654279834,1682,1918,0,,WHITE,,,0,,WHITE,True,CORRECT,0.8901991000020644,890.1991000020644
5,20260325_140546,D,J,False,MANUAL,3,163,963,fixed_delta,0.03841730837928436,0.012782208620853738,,,,,0.45919949776274843,1653,1947,0,,WHITE,,,0,,WHITE,True,CORRECT,0.9848550000024261,984.8550000024261
5,20260325_140546,D,J,False,MANUAL,3,164,964,fixed_delta,0.03841730837928436,0.012782208620853738,,,,,0.44866130030021895,1615,1985,0,,WHITE,,,0,,WHITE,True,CORRECT,0.6917699000005086,691.7699000005086
5,20260325_140546,D,J,False,MANUAL,3,165,965,fixed_delta,0.03841730837928436,0.012782208620853738,,,,,0.5381638377767456,1937,1663,0,,BLACK,,,0,,BLACK,True,CORRECT,0.8341500000024098,834.1500000024098
5,20260325_140546,D,J,False,MANUAL,3,166,966,fixed_delta,0.03841730837928436,0.012782208620853738,,,,,0.5347260618608655,1925,1675,0,,BLACK,,,0,,BLACK,True,CORRECT,0.6126503999985289,612.6503999985289
5,20260325_140546,D,J,False,MANUAL,3,167,967,fixed_delta,0.03841730837928436,0.012782208620853738,,,,,0.5438593123885986,1958,1642,0,,BLACK,,,0,,BLACK,True,CORRECT,0.6601227999999537,660.1227999999537
5,20260325_140546,D,J,False,MANUAL,3,168,968,fixed_delta,0.03841730837928436,0.012782208620853738,,,,,0.4781102045990874,1721,1879,0,,WHITE,,,0,,BLACK,False,INCORRECT,2.06162310000218,2061.62310000218
5,20260325_140546,D,J,False,MANUAL,3,169,969,fixed_delta,0.03841730837928436,0.012782208620853738,,,,,0.5421225804959253,1952,1648,0,,BLACK,,,0,,BLACK,True,CORRECT,0.6448851999994076,644.8851999994076
5,20260325_140546,D,J,False,MANUAL,3,170,970,fixed_delta,0.03841730837928436,0.012782208620853738,,,,,0.5197399338412237,1871,1729,0,,BLACK,,,0,,BLACK,True,CORRECT,1.2491936999977042,1249.1936999977042
5,20260325_140546,D,J,False,MANUAL,3,171,971,fixed_delta,0.03841730837928436,0.012782208620853738,,,,,0.5321196464515066,1916,1684,0,,BLACK,,,0,,BLACK,True,CORRECT,0.6671630000018922,667.1630000018922
5,20260325_140546,D,J,False,MANUAL,3,172,972,fixed_delta,0.03841730837928436,0.012782208620853738,,,,,0.45987248489450633,1656,1944,0,,WHITE,,,0,,BLACK,False,INCORRECT,0.6004060000013851,600.4060000013851
5,20260325_140546,D,J,False,MANUAL,3,173,973,fixed_delta,0.03841730837928436,0.012782208620853738,,,,,0.5490454955914967,1977,1623,0,,BLACK,,,0,,BLACK,True,CORRECT,1.116107000001648,1116.107000001648
5,20260325_140546,D,J,False,MANUAL,3,174,974,fixed_delta,0.03841730837928436,0.012782208620853738,,,,,0.45307587245167025,1631,1969,0,,WHITE,,,0,,WHITE,True,CORRECT,0.6569297999994888,656.9297999994888
5,20260325_140546,D,J,False,MANUAL,3,175,975,fixed_delta,0.03841730837928436,0.012782208620853738,,,,,0.47273981266098497,1702,1898,0,,WHITE,,,0,,WHITE,True,CORRECT,1.4544396999990568,1454.4396999990568
5,20260325_140546,D,J,False,MANUAL,3,176,976,fixed_delta,0.03841730837928436,0.012782208620853738,,,,,0.47608232041335546,1714,1886,0,,WHITE,,,0,,WHITE,True,CORRECT,0.7677368999975442,767.7368999975442
5,20260325_140546,D,J,False,MANUAL,3,177,977,fixed_delta,0.03841730837928436,0.012782208620853738,,,,,0.5238930241464547,1886,1714,0,,BLACK,,,0,,BLACK,True,CORRECT,0.7440973999982816,744.0973999982816
5,20260325_140546,D,J,False,MANUAL,3,178,978,fixed_delta,0.03841730837928436,0.012782208620853738,,,,,0.47217069040856596,1700,1900,0,,WHITE,,,0,,WHITE,True,CORRECT,1.6214106000006723,1621.4106000006723
5,20260325_140546,D,J,False,MANUAL,3,179,979,fixed_delta,0.03841730837928436,0.012782208620853738,,,,,0.5399301988243674,1944,1656,0,,BLACK,,,0,,BLACK,True,CORRECT,0.9948691000026884,994.8691000026884
5,20260325_140546,D,J,False,MANUAL,3,180,980,fixed_delta,0.03841730837928436,0.012782208620853738,,,,,0.5540052723402734,1994,1606,0,,BLACK,,,0,,BLACK,True,CORRECT,0.814316100000724,814.316100000724
5,20260325_140546,D,J,False,MANUAL,3,181,981,fixed_delta,0.03841730837928436,0.012782208620853738,,,,,0.4685444180692082,1687,1913,0,,WHITE,,,0,,WHITE,True,CORRECT,0.5549227999981667,554.9227999981667
5,20260325_140546,D,J,False,MANUAL,3,182,982,fixed_delta,0.03841730837928436,0.012782208620853738,,,,,0.5383640350904942,1938,1662,0,,BLACK,,,0,,BLACK,True,CORRECT,0.9345886000010069,934.5886000010069
5,20260325_140546,D,J,False,MANUAL,3,183,983,fixed_delta,0.03841730837928436,0.012782208620853738,,,,,0.5233707375065243,1884,1716,0,,BLACK,,,0,,BLACK,True,CORRECT,0.6490985999989789,649.0985999989789
5,20260325_140546,D,J,False,MANUAL,3,184,984,fixed_delta,0.03841730837928436,0.012782208620853738,,,,,0.45691517574683277,1645,1955,0,,WHITE,,,0,,WHITE,True,CORRECT,0.7889601999995648,788.9601999995648
5,20260325_140546,D,J,False,MANUAL,3,185,985,fixed_delta,0.03841730837928436,0.012782208620853738,,,,,0.5214228433339521,1877,1723,0,,BLACK,,,0,,BLACK,True,CORRECT,2.737931799998478,2737.931799998478
5,20260325_140546,D,J,False,MANUAL,3,186,986,fixed_delta,0.03841730837928436,0.012782208620853738,,,,,0.5303790424404813,1909,1691,0,,BLACK,,,0,,BLACK,True,CORRECT,0.7719084999989718,771.9084999989718
5,20260325_140546,D,J,False,MANUAL,3,187,987,fixed_delta,0.03841730837928436,0.012782208620853738,,,,,0.4564597678571824,1643,1957,0,,WHITE,,,0,,WHITE,True,CORRECT,0.7487732999979926,748.7732999979926
5,20260325_140546,D,J,False,MANUAL,3,188,988,fixed_delta,0.03841730837928436,0.012782208620853738,,,,,0.47948022979660543,1726,1874,0,,WHITE,,,0,,BLACK,False,INCORRECT,1.0441916000017955,1044.1916000017955
5,20260325_140546,D,J,False,MANUAL,3,189,989,fixed_delta,0.03841730837928436,0.012782208620853738,,,,,0.4581121408612885,1649,1951,0,,WHITE,,,0,,WHITE,True,CORRECT,0.6283842000011646,628.3842000011646
5,20260325_140546,D,J,False,MANUAL,3,190,990,fixed_delta,0.03841730837928436,0.012782208620853738,,,,,0.5379218224034122,1937,1663,0,,BLACK,,,0,,BLACK,True,CORRECT,1.8922119999988354,1892.2119999988354
5,20260325_140546,D,J,False,MANUAL,3,191,991,fixed_delta,0.03841730837928436,0.012782208620853738,,,,,0.4285279614877209,1543,2057,0,,WHITE,,,0,,WHITE,True,CORRECT,0.8891051999999036,889.1051999999036
5,20260325_140546,D,J,False,MANUAL,3,192,992,fixed_delta,0.03841730837928436,0.012782208620853738,,,,,0.5190420261785528,1869,1731,0,,BLACK,,,0,,WHITE,False,INCORRECT,1.795257900001161,1795.257900001161
5,20260325_140546,D,J,False,MANUAL,3,193,993,fixed_delta,0.03841730837928436,0.012782208620853738,,,,,0.5532729279084424,1992,1608,0,,BLACK,,,0,,BLACK,True,CORRECT,0.8880863999984285,888.0863999984285
5,20260325_140546,D,J,False,MANUAL,3,194,994,fixed_delta,0.03841730837928436,0.012782208620853738,,,,,0.4643962572912588,1672,1928,0,,WHITE,,,0,,WHITE,True,CORRECT,0.688050499997189,688.050499997189
5,20260325_140546,D,J,False,MANUAL,3,195,995,fixed_delta,0.03841730837928436,0.012782208620853738,,,,,0.5428036102422777,1954,1646,0,,BLACK,,,0,,BLACK,True,CORRECT,0.8404406999979983,840.4406999979983
5,20260325_140546,D,J,False,MANUAL,3,196,996,fixed_delta,0.03841730837928436,0.012782208620853738,,,,,0.5352167982239802,1927,1673,0,,BLACK,,,0,,BLACK,True,CORRECT,0.8051021000028413,805.1021000028413
5,20260325_140546,D,J,False,MANUAL,3,197,997,fixed_delta,0.03841730837928436,0.012782208620853738,,,,,0.4499352480847049,1620,1980,0,,WHITE,,,0,,WHITE,True,CORRECT,0.6569501999983913,656.9501999983913
5,20260325_140546,D,J,False,MANUAL,3,198,998,fixed_delta,0.03841730837928436,0.012782208620853738,,,,,0.45768125634605095,1648,1952,0,,WHITE,,,0,,WHITE,True,CORRECT,0.8915276000006997,891.5276000006997
5,20260325_140546,D,J,False,MANUAL,3,199,999,fixed_delta,0.03841730837928436,0.012782208620853738,,,,,0.46856309456880973,1687,1913,0,,WHITE,,,0,,WHITE,True,CORRECT,1.5833177999993495,1583.3177999993495
5,20260325_140546,D,J,False,MANUAL,3,200,1000,fixed_delta,0.03841730837928436,0.012782208620853738,,,,,0.5364670824201662,1931,1669,0,,BLACK,,,0,,WHITE,False,INCORRECT,0.711543299999903,711.543299999903
5,20260325_140546,D,J,False,MANUAL,3,201,1001,fixed_delta,0.03841730837928436,0.012782208620853738,,,,,0.5578571579025413,2008,1592,0,,BLACK,,,0,,BLACK,True,CORRECT,0.8710608999972465,871.0608999972465
5,20260325_140546,D,J,False,MANUAL,3,202,1002,fixed_delta,0.03841730837928436,0.012782208620853738,,,,,0.49170969075754944,1770,1830,0,,WHITE,,,0,,WHITE,True,CORRECT,0.7202733999984048,720.2733999984048
5,20260325_140546,D,J,False,MANUAL,3,203,1003,fixed_delta,0.03841730837928436,0.012782208620853738,,,,,0.5281560190466068,1901,1699,0,,BLACK,,,0,,WHITE,False,INCORRECT,2.904075300000841,2904.075300000841
5,20260325_140546,D,J,False,MANUAL,3,204,1004,fixed_delta,0.03841730837928436,0.012782208620853738,,,,,0.5404206904555553,1946,1654,0,,BLACK,,,0,,WHITE,False,INCORRECT,0.7852102999968338,785.2102999968338
5,20260325_140546,D,J,False,MANUAL,3,205,1005,fixed_delta,0.03841730837928436,0.012782208620853738,,,,,0.533066917104444,1919,1681,0,,BLACK,,,0,,WHITE,False,INCORRECT,0.8734245999985433,873.4245999985433
5,20260325_140546,D,J,False,MANUAL,3,206,1006,fixed_delta,0.03841730837928436,0.012782208620853738,,,,,0.5457511280563253,1965,1635,0,,BLACK,,,0,,WHITE,False,INCORRECT,0.87980460000108,879.80460000108
5,20260325_140546,D,J,False,MANUAL,3,207,1007,fixed_delta,0.03841730837928436,0.012782208620853738,,,,,0.5405002292189744,1946,1654,0,,BLACK,,,0,,BLACK,True,CORRECT,0.5777780999997049,577.7780999997049
5,20260325_140546,D,J,False,MANUAL,3,208,1008,fixed_delta,0.03841730837928436,0.012782208620853738,,,,,0.5387837643471514,1940,1660,0,,BLACK,,,0,,BLACK,True,CORRECT,0.6033199999983481,603.3199999983481
5,20260325_140546,D,J,False,MANUAL,3,209,1009,fixed_delta,0.03841730837928436,0.012782208620853738,,,,,0.5209050592327369,1875,1725,0,,BLACK,,,0,,BLACK,True,CORRECT,1.1702640000003157,1170.2640000003157
5,20260325_140546,D,J,False,MANUAL,3,210,1010,fixed_delta,0.03841730837928436,0.012782208620853738,,,,,0.5274902224328993,1899,1701,0,,BLACK,,,0,,BLACK,True,CORRECT,0.609141400000226,609.141400000226
5,20260325_140546,D,J,False,MANUAL,3,211,1011,fixed_delta,0.03841730837928436,0.012782208620853738,,,,,0.4492583441867343,1617,1983,0,,WHITE,,,0,,WHITE,True,CORRECT,0.8692134999982954,869.2134999982954
5,20260325_140546,D,J,False,MANUAL,3,212,1012,fixed_delta,0.03841730837928436,0.012782208620853738,,,,,0.5256487681887136,1892,1708,0,,BLACK,,,0,,BLACK,True,CORRECT,0.6920501999993576,692.0501999993576
5,20260325_140546,D,J,False,MANUAL,3,213,1013,fixed_delta,0.03841730837928436,0.012782208620853738,,,,,0.4544748469616533,1636,1964,0,,WHITE,,,0,,WHITE,True,CORRECT,0.6620841000003566,662.0841000003566
5,20260325_140546,D,J,False,MANUAL,3,214,1014,fixed_delta,0.03841730837928436,0.012782208620853738,,,,,0.4597916002480932,1655,1945,0,,WHITE,,,0,,WHITE,True,CORRECT,0.7206101999981911,720.6101999981911
5,20260325_140546,D,J,False,MANUAL,3,215,1015,fixed_delta,0.03841730837928436,0.012782208620853738,,,,,0.530362663304963,1909,1691,0,,BLACK,,,0,,BLACK,True,CORRECT,1.4034596999990754,1403.4596999990754
5,20260325_140546,D,J,False,MANUAL,3,216,1016,fixed_delta,0.03841730837928436,0.012782208620853738,,,,,0.4765002977578533,1715,1885,0,,WHITE,,,0,,WHITE,True,CORRECT,0.7339178000001993,733.9178000001993
5,20260325_140546,D,J,False,MANUAL,3,217,1017,fixed_delta,0.03841730837928436,0.012782208620853738,,,,,0.4612021499002269,1660,1940,0,,WHITE,,,0,,WHITE,True,CORRECT,0.7134420000002137,713.4420000002137
5,20260325_140546,D,J,False,MANUAL,3,218,1018,fixed_delta,0.03841730837928436,0.012782208620853738,,,,,0.5580855053307756,2009,1591,0,,BLACK,,,0,,BLACK,True,CORRECT,0.9174614999974438,917.4614999974438
5,20260325_140546,D,J,False,MANUAL,3,219,1019,fixed_delta,0.03841730837928436,0.012782208620853738,,,,,0.4718580451621066,1699,1901,0,,WHITE,,,0,,WHITE,True,CORRECT,0.8276648999999452,827.6648999999452
5,20260325_140546,D,J,False,MANUAL,3,220,1020,fixed_delta,0.03841730837928436,0.012782208620853738,,,,,0.4772009427464461,1718,1882,0,,WHITE,,,0,,WHITE,True,CORRECT,0.9422852999996394,942.2852999996394
5,20260325_140546,D,J,False,MANUAL,3,221,1021,fixed_delta,0.03841730837928436,0.012782208620853738,,,,,0.5119064399641349,1843,1757,0,,BLACK,,,0,,BLACK,True,CORRECT,0.8319857999995293,831.9857999995293
5,20260325_140546,D,J,False,MANUAL,3,222,1022,fixed_delta,0.03841730837928436,0.012782208620853738,,,,,0.45080259595372285,1623,1977,0,,WHITE,,,0,,BLACK,False,INCORRECT,0.9313365999987582,931.3365999987582
5,20260325_140546,D,J,False,MANUAL,3,223,1023,fixed_delta,0.03841730837928436,0.012782208620853738,,,,,0.531763102821162,1914,1686,0,,BLACK,,,0,,BLACK,True,CORRECT,0.8581641999990097,858.1641999990097
5,20260325_140546,D,J,False,MANUAL,3,224,1024,fixed_delta,0.03841730837928436,0.012782208620853738,,,,,0.5434813112251642,1957,1643,0,,BLACK,,,0,,BLACK,True,CORRECT,0.7469014000016614,746.9014000016614
5,20260325_140546,D,J,False,MANUAL,3,225,1025,fixed_delta,0.03841730837928436,0.012782208620853738,,,,,0.47841666203884287,1722,1878,0,,WHITE,,,0,,WHITE,True,CORRECT,1.4201020000000426,1420.1020000000426
5,20260325_140546,D,J,False,MANUAL,3,226,1026,fixed_delta,0.03841730837928436,0.012782208620853738,,,,,0.5188392128706099,1868,1732,0,,BLACK,,,0,,BLACK,True,CORRECT,0.9751604000011866,975.1604000011866
5,20260325_140546,D,J,False,MANUAL,3,227,1027,fixed_delta,0.03841730837928436,0.012782208620853738,,,,,0.4564243507033275,1643,1957,0,,WHITE,,,0,,WHITE,True,CORRECT,0.7050878000009106,705.0878000009106
5,20260325_140546,D,J,False,MANUAL,3,228,1028,fixed_delta,0.03841730837928436,0.012782208620853738,,,,,0.5405065031724484,1946,1654,0,,BLACK,,,0,,BLACK,True,CORRECT,1.3870292999999947,1387.0292999999947
5,20260325_140546,D,J,False,MANUAL,3,229,1029,fixed_delta,0.03841730837928436,0.012782208620853738,,,,,0.5327413508771481,1918,1682,0,,BLACK,,,0,,BLACK,True,CORRECT,0.8339869000010367,833.9869000010367
5,20260325_140546,D,J,False,MANUAL,3,230,1030,fixed_delta,0.03841730837928436,0.012782208620853738,,,,,0.4646403827709031,1673,1927,0,,WHITE,,,0,,WHITE,True,CORRECT,0.6780988999998954,678.0988999998954
5,20260325_140546,D,J,False,MANUAL,3,231,1031,fixed_delta,0.03841730837928436,0.012782208620853738,,,,,0.5408366052961584,1947,1653,0,,BLACK,,,0,,BLACK,True,CORRECT,0.674135599998408,674.135599998408
5,20260325_140546,D,J,False,MANUAL,3,232,1032,fixed_delta,0.03841730837928436,0.012782208620853738,,,,,0.4725987139587888,1701,1899,0,,WHITE,,,0,,WHITE,True,CORRECT,0.9790456999980961,979.0456999980961
5,20260325_140546,D,J,False,MANUAL,3,233,1033,fixed_delta,0.03841730837928436,0.012782208620853738,,,,,0.5269697330650261,1897,1703,0,,BLACK,,,0,,WHITE,False,INCORRECT,1.3970223000033002,1397.0223000033002
5,20260325_140546,D,J,False,MANUAL,3,234,1034,fixed_delta,0.03841730837928436,0.012782208620853738,,,,,0.4653878790773296,1675,1925,0,,WHITE,,,0,,WHITE,True,CORRECT,0.7086396000013337,708.6396000013337
5,20260325_140546,D,J,False,MANUAL,3,235,1035,fixed_delta,0.03841730837928436,0.012782208620853738,,,,,0.4558445508445801,1641,1959,0,,WHITE,,,0,,WHITE,True,CORRECT,0.6320508999997401,632.0508999997401
5,20260325_140546,D,J,False,MANUAL,3,236,1036,fixed_delta,0.03841730837928436,0.012782208620853738,,,,,0.5151234578154436,1854,1746,0,,BLACK,,,0,,BLACK,True,CORRECT,1.48939049999899,1489.39049999899
5,20260325_140546,D,J,False,MANUAL,3,237,1037,fixed_delta,0.03841730837928436,0.012782208620853738,,,,,0.4639851684148434,1670,1930,0,,WHITE,,,0,,WHITE,True,CORRECT,0.6606393000001844,660.6393000001844
5,20260325_140546,D,J,False,MANUAL,3,238,1038,fixed_delta,0.03841730837928436,0.012782208620853738,,,,,0.4589977529881789,1652,1948,0,,WHITE,,,0,,WHITE,True,CORRECT,0.8376648999983445,837.6648999983445
5,20260325_140546,D,J,False,MANUAL,3,239,1039,fixed_delta,0.03841730837928436,0.012782208620853738,,,,,0.45392824696429074,1634,1966,0,,WHITE,,,0,,WHITE,True,CORRECT,0.6964451999992889,696.4451999992889
5,20260325_140546,D,J,False,MANUAL,3,240,1040,fixed_delta,0.03841730837928436,0.012782208620853738,,,,,0.45396017080367407,1634,1966,0,,WHITE,,,0,,WHITE,True,CORRECT,0.627489999998943,627.489999998943
5,20260325_140546,D,J,False,MANUAL,3,241,1041,fixed_delta,0.03841730837928436,0.012782208620853738,,,,,0.462999096146528,1667,1933,0,,WHITE,,,0,,WHITE,True,CORRECT,1.0594701999980316,1059.4701999980316
5,20260325_140546,D,J,False,MANUAL,3,242,1042,fixed_delta,0.03841730837928436,0.012782208620853738,,,,,0.46044317263919865,1658,1942,0,,WHITE,,,0,,WHITE,True,CORRECT,0.5979255000020203,597.9255000020203
5,20260325_140546,D,J,False,MANUAL,3,243,1043,fixed_delta,0.03841730837928436,0.012782208620853738,,,,,0.44295687612919055,1595,2005,0,,WHITE,,,0,,WHITE,True,CORRECT,0.537550299999566,537.550299999566
5,20260325_140546,D,J,False,MANUAL,3,244,1044,fixed_delta,0.03841730837928436,0.012782208620853738,,,,,0.5578795951788742,2008,1592,0,,BLACK,,,0,,BLACK,True,CORRECT,0.9450888999999734,945.0888999999734
5,20260325_140546,D,J,False,MANUAL,3,245,1045,fixed_delta,0.03841730837928436,0.012782208620853738,,,,,0.4598081910977647,1655,1945,0,,WHITE,,,0,,WHITE,True,CORRECT,2.420464599999832,2420.464599999832
5,20260325_140546,D,J,False,MANUAL,3,246,1046,fixed_delta,0.03841730837928436,0.012782208620853738,,,,,0.557125642782588,2006,1594,0,,BLACK,,,0,,BLACK,True,CORRECT,0.7509820999985095,750.9820999985095
5,20260325_140546,D,J,False,MANUAL,3,247,1047,fixed_delta,0.03841730837928436,0.012782208620853738,,,,,0.47679852655875166,1716,1884,0,,WHITE,,,0,,BLACK,False,INCORRECT,0.8024433999999019,802.4433999999019
5,20260325_140546,D,J,False,MANUAL,3,248,1048,fixed_delta,0.03841730837928436,0.012782208620853738,,,,,0.510334767502007,1837,1763,0,,BLACK,,,0,,BLACK,True,CORRECT,0.8838686000017333,883.8686000017333
5,20260325_140546,D,J,False,MANUAL,3,249,1049,fixed_delta,0.03841730837928436,0.012782208620853738,,,,,0.5187856055919362,1868,1732,0,,BLACK,,,0,,BLACK,True,CORRECT,0.6534867000009399,653.4867000009399
5,20260325_140546,D,J,False,MANUAL,3,250,1050,fixed_delta,0.03841730837928436,0.012782208620853738,,,,,0.5229477538443118,1883,1717,0,,BLACK,,,0,,BLACK,True,CORRECT,0.7181586000006064,718.1586000006064
5,20260325_140546,D,J,False,MANUAL,3,251,1051,fixed_delta,0.03841730837928436,0.012782208620853738,,,,,0.466207008516707,1678,1922,0,,WHITE,,,0,,WHITE,True,CORRECT,1.0290451000000758,1029.0451000000758
5,20260325_140546,D,J,False,MANUAL,3,252,1052,fixed_delta,0.03841730837928436,0.012782208620853738,,,,,0.4787606284387316,1724,1876,0,,WHITE,,,0,,WHITE,True,CORRECT,1.2363463000001502,1236.3463000001502
5,20260325_140546,D,J,False,MANUAL,3,253,1053,fixed_delta,0.03841730837928436,0.012782208620853738,,,,,0.4697281412442832,1691,1909,0,,WHITE,,,0,,WHITE,True,CORRECT,0.9362705000021379,936.2705000021379
5,20260325_140546,D,J,False,MANUAL,3,254,1054,fixed_delta,0.03841730837928436,0.012782208620853738,,,,,0.536347400045881,1931,1669,0,,BLACK,,,0,,BLACK,True,CORRECT,0.7949942999985069,794.9942999985069
5,20260325_140546,D,J,False,MANUAL,3,255,1055,fixed_delta,0.03841730837928436,0.012782208620853738,,,,,0.5334309612068965,1920,1680,0,,BLACK,,,0,,BLACK,True,CORRECT,0.6184485000012501,618.4485000012501
5,20260325_140546,D,J,False,MANUAL,3,256,1056,fixed_delta,0.03841730837928436,0.012782208620853738,,,,,0.45572168082616527,1641,1959,0,,WHITE,,,0,,WHITE,True,CORRECT,0.6755138000007719,675.5138000007719
5,20260325_140546,D,J,False,MANUAL,3,257,1057,fixed_delta,0.03841730837928436,0.012782208620853738,,,,,0.4460389933311074,1606,1994,0,,WHITE,,,0,,WHITE,True,CORRECT,1.1686479999989388,1168.6479999989388
5,20260325_140546,D,J,False,MANUAL,3,258,1058,fixed_delta,0.03841730837928436,0.012782208620853738,,,,,0.46468075210695015,1673,1927,0,,WHITE,,,0,,WHITE,True,CORRECT,1.0273316999991948,1027.3316999991948
5,20260325_140546,D,J,False,MANUAL,3,259,1059,fixed_delta,0.03841730837928436,0.012782208620853738,,,,,0.529372711195285,1906,1694,0,,BLACK,,,0,,BLACK,True,CORRECT,0.7191074999973353,719.1074999973353
5,20260325_140546,D,J,False,MANUAL,3,260,1060,fixed_delta,0.03841730837928436,0.012782208620853738,,,,,0.4549734007273966,1638,1962,0,,WHITE,,,0,,WHITE,True,CORRECT,0.7099956000020029,709.9956000020029
5,20260325_140546,D,J,False,MANUAL,3,261,1061,fixed_delta,0.03841730837928436,0.012782208620853738,,,,,0.45509380574508623,1638,1962,0,,WHITE,,,0,,WHITE,True,CORRECT,0.8399974999992992,839.9974999992992
5,20260325_140546,D,J,False,MANUAL,3,262,1062,fixed_delta,0.03841730837928436,0.012782208620853738,,,,,0.5495979258758308,1979,1621,0,,BLACK,,,0,,BLACK,True,CORRECT,0.84945019999941,849.45019999941
5,20260325_140546,D,J,False,MANUAL,3,263,1063,fixed_delta,0.03841730837928436,0.012782208620853738,,,,,0.46217590174625,1664,1936,0,,WHITE,,,0,,WHITE,True,CORRECT,0.7436753999973007,743.6753999973007
5,20260325_140546,D,J,False,MANUAL,3,264,1064,fixed_delta,0.03841730837928436,0.012782208620853738,,,,,0.5397916545655478,1943,1657,0,,BLACK,,,0,,BLACK,True,CORRECT,0.6435578000018722,643.5578000018722
5,20260325_140546,D,J,False,MANUAL,3,265,1065,fixed_delta,0.03841730837928436,0.012782208620853738,,,,,0.458851767864842,1652,1948,0,,WHITE,,,0,,WHITE,True,CORRECT,0.7567638000000443,756.7638000000443
5,20260325_140546,D,J,False,MANUAL,3,266,1066,fixed_delta,0.03841730837928436,0.012782208620853738,,,,,0.4570925487805957,1646,1954,0,,WHITE,,,0,,WHITE,True,CORRECT,0.8506201999989571,850.6201999989571
5,20260325_140546,D,J,False,MANUAL,3,267,1067,fixed_delta,0.03841730837928436,0.012782208620853738,,,,,0.4682432624514117,1686,1914,0,,WHITE,,,0,,WHITE,True,CORRECT,0.9116280999987794,911.6280999987794
5,20260325_140546,D,J,False,MANUAL,3,268,1068,fixed_delta,0.03841730837928436,0.012782208620853738,,,,,0.4862114174598671,1750,1850,0,,WHITE,,,0,,WHITE,True,CORRECT,0.7144069000023592,714.4069000023592
5,20260325_140546,D,J,False,MANUAL,3,269,1069,fixed_delta,0.03841730837928436,0.012782208620853738,,,,,0.5362912752012713,1931,1669,0,,BLACK,,,0,,BLACK,True,CORRECT,0.6499968999996781,649.9968999996781
5,20260325_140546,D,J,False,MANUAL,3,270,1070,fixed_delta,0.03841730837928436,0.012782208620853738,,,,,0.5131583778460909,1847,1753,0,,BLACK,,,0,,WHITE,False,INCORRECT,0.8967626000012388,896.7626000012388
5,20260325_140546,D,J,False,MANUAL,3,271,1071,fixed_delta,0.03841730837928436,0.012782208620853738,,,,,0.4743294019927416,1708,1892,0,,WHITE,,,0,,WHITE,True,CORRECT,1.9861246000000392,1986.1246000000392
5,20260325_140546,D,J,False,MANUAL,3,272,1072,fixed_delta,0.03841730837928436,0.012782208620853738,,,,,0.4598314521291455,1655,1945,0,,WHITE,,,0,,WHITE,True,CORRECT,0.6639114999998128,663.9114999998128
5,20260325_140546,D,J,False,MANUAL,3,273,1073,fixed_delta,0.03841730837928436,0.012782208620853738,,,,,0.4565927627173914,1644,1956,0,,WHITE,,,0,,WHITE,True,CORRECT,0.9116847999976017,911.6847999976017
5,20260325_140546,D,J,False,MANUAL,3,274,1074,fixed_delta,0.03841730837928436,0.012782208620853738,,,,,0.5457010140372492,1965,1635,0,,BLACK,,,0,,BLACK,True,CORRECT,0.67871610000293,678.71610000293
5,20260325_140546,D,J,False,MANUAL,3,275,1075,fixed_delta,0.03841730837928436,0.012782208620853738,,,,,0.536952154141359,1933,1667,0,,BLACK,,,0,,BLACK,True,CORRECT,0.6183208000002196,618.3208000002196
5,20260325_140546,D,J,False,MANUAL,3,276,1076,fixed_delta,0.03841730837928436,0.012782208620853738,,,,,0.4672835605112503,1682,1918,0,,WHITE,,,0,,WHITE,True,CORRECT,0.9684371000003011,968.4371000003011
5,20260325_140546,D,J,False,MANUAL,3,277,1077,fixed_delta,0.03841730837928436,0.012782208620853738,,,,,0.5273947585818873,1899,1701,0,,BLACK,,,0,,BLACK,True,CORRECT,0.8363196999998763,836.3196999998763
5,20260325_140546,D,J,False,MANUAL,3,278,1078,fixed_delta,0.03841730837928436,0.012782208620853738,,,,,0.5392459230156219,1941,1659,0,,BLACK,,,0,,BLACK,True,CORRECT,1.2846552000009979,1284.6552000009979
5,20260325_140546,D,J,False,MANUAL,3,279,1079,fixed_delta,0.03841730837928436,0.012782208620853738,,,,,0.45507169121326096,1638,1962,0,,WHITE,,,0,,WHITE,True,CORRECT,1.5321215000003576,1532.1215000003576
5,20260325_140546,D,J,False,MANUAL,3,280,1080,fixed_delta,0.03841730837928436,0.012782208620853738,,,,,0.4529462694418664,1631,1969,0,,WHITE,,,0,,WHITE,True,CORRECT,0.6074264999988372,607.4264999988372
5,20260325_140546,D,J,False,MANUAL,3,281,1081,fixed_delta,0.03841730837928436,0.012782208620853738,,,,,0.443954936343285,1598,2002,0,,WHITE,,,0,,BLACK,False,INCORRECT,1.4648970999987796,1464.8970999987796
5,20260325_140546,D,J,False,MANUAL,3,282,1082,fixed_delta,0.03841730837928436,0.012782208620853738,,,,,0.5407466206219393,1947,1653,0,,BLACK,,,0,,BLACK,True,CORRECT,0.897726799998054,897.726799998054
5,20260325_140546,D,J,False,MANUAL,3,283,1083,fixed_delta,0.03841730837928436,0.012782208620853738,,,,,0.540456102022818,1946,1654,0,,BLACK,,,0,,BLACK,True,CORRECT,0.6176607000015792,617.6607000015792
5,20260325_140546,D,J,False,MANUAL,3,284,1084,fixed_delta,0.03841730837928436,0.012782208620853738,,,,,0.5176225424826595,1863,1737,0,,BLACK,,,0,,WHITE,False,INCORRECT,0.8237979000004998,823.7979000004998
5,20260325_140546,D,J,False,MANUAL,3,285,1085,fixed_delta,0.03841730837928436,0.012782208620853738,,,,,0.5474611893185033,1971,1629,0,,BLACK,,,0,,BLACK,True,CORRECT,1.509715200001665,1509.715200001665
5,20260325_140546,D,J,False,MANUAL,3,286,1086,fixed_delta,0.03841730837928436,0.012782208620853738,,,,,0.4628763117228264,1666,1934,0,,WHITE,,,0,,WHITE,True,CORRECT,0.7886357999996108,788.6357999996108
5,20260325_140546,D,J,False,MANUAL,3,287,1087,fixed_delta,0.03841730837928436,0.012782208620853738,,,,,0.5347003258476616,1925,1675,0,,BLACK,,,0,,WHITE,False,INCORRECT,0.9929673000006005,992.9673000006005
5,20260325_140546,D,J,False,MANUAL,3,288,1088,fixed_delta,0.03841730837928436,0.012782208620853738,,,,,0.46237249931720104,1665,1935,0,,WHITE,,,0,,WHITE,True,CORRECT,0.8945356000003812,894.5356000003812
5,20260325_140546,D,J,False,MANUAL,3,289,1089,fixed_delta,0.03841730837928436,0.012782208620853738,,,,,0.46139328553037245,1661,1939,0,,WHITE,,,0,,WHITE,True,CORRECT,0.8994075000009616,899.4075000009616
5,20260325_140546,D,J,False,MANUAL,3,290,1090,fixed_delta,0.03841730837928436,0.012782208620853738,,,,,0.45215502275449637,1628,1972,0,,WHITE,,,0,,WHITE,True,CORRECT,0.7667175000024145,766.7175000024145
5,20260325_140546,D,J,False,MANUAL,3,291,1091,fixed_delta,0.03841730837928436,0.012782208620853738,,,,,0.4516181064120814,1626,1974,0,,WHITE,,,0,,WHITE,True,CORRECT,0.7306308000006538,730.6308000006538
5,20260325_140546,D,J,False,MANUAL,3,292,1092,fixed_delta,0.03841730837928436,0.012782208620853738,,,,,0.4505450503277777,1622,1978,0,,WHITE,,,0,,BLACK,False,INCORRECT,0.8334754000024986,833.4754000024986
5,20260325_140546,D,J,False,MANUAL,3,293,1093,fixed_delta,0.03841730837928436,0.012782208620853738,,,,,0.5461730355362511,1966,1634,0,,BLACK,,,0,,BLACK,True,CORRECT,0.8211099000000104,821.1099000000104
5,20260325_140546,D,J,False,MANUAL,3,294,1094,fixed_delta,0.03841730837928436,0.012782208620853738,,,,,0.4475577814395199,1611,1989,0,,WHITE,,,0,,WHITE,True,CORRECT,0.7286361000005854,728.6361000005854
5,20260325_140546,D,J,False,MANUAL,3,295,1095,fixed_delta,0.03841730837928436,0.012782208620853738,,,,,0.4710703548810873,1696,1904,0,,WHITE,,,0,,WHITE,True,CORRECT,1.0502550000019255,1050.2550000019255
5,20260325_140546,D,J,False,MANUAL,3,296,1096,fixed_delta,0.03841730837928436,0.012782208620853738,,,,,0.5478909705685084,1972,1628,0,,BLACK,,,0,,BLACK,True,CORRECT,0.6426191999998991,642.6191999998991
5,20260325_140546,D,J,False,MANUAL,3,297,1097,fixed_delta,0.03841730837928436,0.012782208620853738,,,,,0.5407124020213,1947,1653,0,,BLACK,,,0,,BLACK,True,CORRECT,0.6724628999982087,672.4628999982087
5,20260325_140546,D,J,False,MANUAL,3,298,1098,fixed_delta,0.03841730837928436,0.012782208620853738,,,,,0.5405268984090124,1946,1654,0,,BLACK,,,0,,BLACK,True,CORRECT,0.7024540000020352,702.4540000020352
5,20260325_140546,D,J,False,MANUAL,3,299,1099,fixed_delta,0.03841730837928436,0.012782208620853738,,,,,0.5429185108421939,1955,1645,0,,BLACK,,,0,,BLACK,True,CORRECT,0.7314662999997381,731.4662999997381
5,20260325_140546,D,J,False,MANUAL,3,300,1100,fixed_delta,0.03841730837928436,0.012782208620853738,,,,,0.46352177371699144,1669,1931,0,,WHITE,,,0,,BLACK,False,INCORRECT,0.6250059000012698,625.0059000012698
5,20260325_140546,D,J,False,MANUAL,3,301,1101,fixed_delta,0.03841730837928436,0.012782208620853738,,,,,0.4740201908593501,1706,1894,0,,WHITE,,,0,,WHITE,True,CORRECT,0.9604099999996834,960.4099999996834
5,20260325_140546,D,J,False,MANUAL,3,302,1102,fixed_delta,0.03841730837928436,0.012782208620853738,,,,,0.4548732513687111,1638,1962,0,,WHITE,,,0,,WHITE,True,CORRECT,0.8924181000002136,892.4181000002136
5,20260325_140546,D,J,False,MANUAL,3,303,1103,fixed_delta,0.03841730837928436,0.012782208620853738,,,,,0.48093818777375,1731,1869,0,,WHITE,,,0,,WHITE,True,CORRECT,0.6026883000013186,602.6883000013186
5,20260325_140546,D,J,False,MANUAL,3,304,1104,fixed_delta,0.03841730837928436,0.012782208620853738,,,,,0.5392184301718445,1941,1659,0,,BLACK,,,0,,BLACK,True,CORRECT,0.6530820000007225,653.0820000007225
5,20260325_140546,D,J,False,MANUAL,3,305,1105,fixed_delta,0.03841730837928436,0.012782208620853738,,,,,0.5320273072387682,1915,1685,0,,BLACK,,,0,,BLACK,True,CORRECT,0.5933156999999483,593.3156999999483
5,20260325_140546,D,J,False,MANUAL,3,306,1106,fixed_delta,0.03841730837928436,0.012782208620853738,,,,,0.45589877119604894,1641,1959,0,,WHITE,,,0,,WHITE,True,CORRECT,0.5879512000028626,587.9512000028626
5,20260325_140546,D,J,False,MANUAL,3,307,1107,fixed_delta,0.03841730837928436,0.012782208620853738,,,,,0.5476620159587587,1972,1628,0,,BLACK,,,0,,BLACK,True,CORRECT,0.764549799998349,764.549799998349
5,20260325_140546,D,J,False,MANUAL,3,308,1108,fixed_delta,0.03841730837928436,0.012782208620853738,,,,,0.4680529038386264,1685,1915,0,,WHITE,,,0,,WHITE,True,CORRECT,0.7195306999965396,719.5306999965396
5,20260325_140546,D,J,False,MANUAL,3,309,1109,fixed_delta,0.03841730837928436,0.012782208620853738,,,,,0.474556617461651,1708,1892,0,,WHITE,,,0,,WHITE,True,CORRECT,0.8412614999979269,841.2614999979269
5,20260325_140546,D,J,False,MANUAL,3,310,1110,fixed_delta,0.03841730837928436,0.012782208620853738,,,,,0.48181351503678954,1735,1865,0,,WHITE,,,0,,WHITE,True,CORRECT,0.7523614000019734,752.3614000019734
5,20260325_140546,D,J,False,MANUAL,3,311,1111,fixed_delta,0.03841730837928436,0.012782208620853738,,,,,0.530124727738002,1908,1692,0,,BLACK,,,0,,BLACK,True,CORRECT,1.6087783000002673,1608.7783000002673
5,20260325_140546,D,J,False,MANUAL,3,312,1112,fixed_delta,0.03841730837928436,0.012782208620853738,,,,,0.5272896368209026,1898,1702,0,,BLACK,,,0,,BLACK,True,CORRECT,0.7839535000020987,783.9535000020987
5,20260325_140546,D,J,False,MANUAL,3,313,1113,fixed_delta,0.03841730837928436,0.012782208620853738,,,,,0.5469557887957645,1969,1631,0,,BLACK,,,0,,BLACK,True,CORRECT,0.6423856999972486,642.3856999972486
5,20260325_140546,D,J,False,MANUAL,3,314,1114,fixed_delta,0.03841730837928436,0.012782208620853738,,,,,0.4654287698138738,1676,1924,0,,WHITE,,,0,,WHITE,True,CORRECT,1.4624436999984027,1462.4436999984027
5,20260325_140546,D,J,False,MANUAL,3,315,1115,fixed_delta,0.03841730837928436,0.012782208620853738,,,,,0.5203939755553544,1873,1727,0,,BLACK,,,0,,BLACK,True,CORRECT,0.8416261999991548,841.6261999991548
5,20260325_140546,D,J,False,MANUAL,3,316,1116,fixed_delta,0.03841730837928436,0.012782208620853738,,,,,0.5703487097437956,2053,1547,0,,BLACK,,,0,,BLACK,True,CORRECT,0.6410508999979356,641.0508999979356
5,20260325_140546,D,J,False,MANUAL,3,317,1117,fixed_delta,0.03841730837928436,0.012782208620853738,,,,,0.4476544781285498,1612,1988,0,,WHITE,,,0,,WHITE,True,CORRECT,0.8960716000001412,896.0716000001412
5,20260325_140546,D,J,False,MANUAL,3,318,1118,fixed_delta,0.03841730837928436,0.012782208620853738,,,,,0.4673009203007902,1682,1918,0,,WHITE,,,0,,WHITE,True,CORRECT,0.6211000000002969,621.1000000002969
5,20260325_140546,D,J,False,MANUAL,3,319,1119,fixed_delta,0.03841730837928436,0.012782208620853738,,,,,0.4587341604904217,1651,1949,0,,WHITE,,,0,,WHITE,True,CORRECT,0.6035312000021804,603.5312000021804
5,20260325_140546,D,J,False,MANUAL,3,320,1120,fixed_delta,0.03841730837928436,0.012782208620853738,,,,,0.5410948176036543,1948,1652,0,,BLACK,,,0,,BLACK,True,CORRECT,0.6039514000003692,603.9514000003692
5,20260325_140546,D,J,False,MANUAL,3,321,1121,fixed_delta,0.03841730837928436,0.012782208620853738,,,,,0.5438132679255793,1958,1642,0,,BLACK,,,0,,BLACK,True,CORRECT,0.6804784999985714,680.4784999985714
5,20260325_140546,D,J,False,MANUAL,3,322,1122,fixed_delta,0.03841730837928436,0.012782208620853738,,,,,0.46135288967326354,1661,1939,0,,WHITE,,,0,,WHITE,True,CORRECT,0.7490111000006436,749.0111000006436
5,20260325_140546,D,J,False,MANUAL,3,323,1123,fixed_delta,0.03841730837928436,0.012782208620853738,,,,,0.45722786614058514,1646,1954,0,,WHITE,,,0,,WHITE,True,CORRECT,0.7078379999984463,707.8379999984463
5,20260325_140546,D,J,False,MANUAL,3,324,1124,fixed_delta,0.03841730837928436,0.012782208620853738,,,,,0.5307512680376154,1911,1689,0,,BLACK,,,0,,BLACK,True,CORRECT,0.8219793000025675,821.9793000025675
5,20260325_140546,D,J,False,MANUAL,3,325,1125,fixed_delta,0.03841730837928436,0.012782208620853738,,,,,0.5323819088612238,1917,1683,0,,BLACK,,,0,,BLACK,True,CORRECT,0.7838883000003989,783.8883000003989
5,20260325_140546,D,J,False,MANUAL,3,326,1126,fixed_delta,0.03841730837928436,0.012782208620853738,,,,,0.5399861938370444,1944,1656,0,,BLACK,,,0,,WHITE,False,INCORRECT,0.9341754999986733,934.1754999986733
5,20260325_140546,D,J,False,MANUAL,3,327,1127,fixed_delta,0.03841730837928436,0.012782208620853738,,,,,0.5351857401924909,1927,1673,0,,BLACK,,,0,,BLACK,True,CORRECT,1.03123830000186,1031.23830000186
5,20260325_140546,D,J,False,MANUAL,3,328,1128,fixed_delta,0.03841730837928436,0.012782208620853738,,,,,0.47582742831646985,1713,1887,0,,WHITE,,,0,,WHITE,True,CORRECT,0.852392000000691,852.392000000691
5,20260325_140546,D,J,False,MANUAL,3,329,1129,fixed_delta,0.03841730837928436,0.012782208620853738,,,,,0.5705684157607267,2054,1546,0,,BLACK,,,0,,BLACK,True,CORRECT,0.8652388999980758,865.2388999980758
5,20260325_140546,D,J,False,MANUAL,3,330,1130,fixed_delta,0.03841730837928436,0.012782208620853738,,,,,0.5134086800503807,1848,1752,0,,BLACK,,,0,,WHITE,False,INCORRECT,0.9571747000009054,957.1747000009054
5,20260325_140546,D,J,False,MANUAL,3,331,1131,fixed_delta,0.03841730837928436,0.012782208620853738,,,,,0.5543341622883468,1996,1604,0,,BLACK,,,0,,WHITE,False,INCORRECT,0.712144500001159,712.144500001159
5,20260325_140546,D,J,False,MANUAL,3,332,1132,fixed_delta,0.03841730837928436,0.012782208620853738,,,,,0.5257879546673995,1893,1707,0,,BLACK,,,0,,WHITE,False,INCORRECT,0.8087094000002253,808.7094000002253
5,20260325_140546,D,J,False,MANUAL,3,333,1133,fixed_delta,0.03841730837928436,0.012782208620853738,,,,,0.5062673209517603,1823,1777,0,,BLACK,,,0,,BLACK,True,CORRECT,0.6089443000018946,608.9443000018946
5,20260325_140546,D,J,False,MANUAL,3,334,1134,fixed_delta,0.03841730837928436,0.012782208620853738,,,,,0.4783678392079706,1722,1878,0,,WHITE,,,0,,BLACK,False,INCORRECT,0.4862465999976848,486.2465999976848
5,20260325_140546,D,J,False,MANUAL,3,335,1135,fixed_delta,0.03841730837928436,0.012782208620853738,,,,,0.4637672082330581,1670,1930,0,,WHITE,,,0,,WHITE,True,CORRECT,0.7540165999998862,754.0165999998862
5,20260325_140546,D,J,False,MANUAL,3,336,1136,fixed_delta,0.03841730837928436,0.012782208620853738,,,,,0.5201769237382494,1873,1727,0,,BLACK,,,0,,BLACK,True,CORRECT,0.6788531999991392,678.8531999991392
5,20260325_140546,D,J,False,MANUAL,3,337,1137,fixed_delta,0.03841730837928436,0.012782208620853738,,,,,0.4555997899141287,1640,1960,0,,WHITE,,,0,,WHITE,True,CORRECT,0.7099851000020863,709.9851000020863
5,20260325_140546,D,J,False,MANUAL,3,338,1138,fixed_delta,0.03841730837928436,0.012782208620853738,,,,,0.47361313191289356,1705,1895,0,,WHITE,,,0,,BLACK,False,INCORRECT,0.8632317000010516,863.2317000010516
5,20260325_140546,D,J,False,MANUAL,3,339,1139,fixed_delta,0.03841730837928436,0.012782208620853738,,,,,0.4430536294879549,1595,2005,0,,WHITE,,,0,,WHITE,True,CORRECT,0.6289022999990266,628.9022999990266
5,20260325_140546,D,J,False,MANUAL,3,340,1140,fixed_delta,0.03841730837928436,0.012782208620853738,,,,,0.5160705447848575,1858,1742,0,,BLACK,,,0,,BLACK,True,CORRECT,0.9315585000003921,931.5585000003921
5,20260325_140546,D,J,False,MANUAL,3,341,1141,fixed_delta,0.03841730837928436,0.012782208620853738,,,,,0.5421456772517037,1952,1648,0,,BLACK,,,0,,BLACK,True,CORRECT,1.234433599998738,1234.433599998738
5,20260325_140546,D,J,False,MANUAL,3,342,1142,fixed_delta,0.03841730837928436,0.012782208620853738,,,,,0.5505748783990349,1982,1618,0,,BLACK,,,0,,WHITE,False,INCORRECT,1.1521709999979066,1152.1709999979066
5,20260325_140546,D,J,False,MANUAL,3,343,1143,fixed_delta,0.03841730837928436,0.012782208620853738,,,,,0.44640360783168476,1607,1993,0,,WHITE,,,0,,WHITE,True,CORRECT,0.6976936999999452,697.6936999999452
5,20260325_140546,D,J,False,MANUAL,3,344,1144,fixed_delta,0.03841730837928436,0.012782208620853738,,,,,0.5339173860145247,1922,1678,0,,BLACK,,,0,,BLACK,True,CORRECT,1.0291056999994908,1029.1056999994908
5,20260325_140546,D,J,False,MANUAL,3,345,1145,fixed_delta,0.03841730837928436,0.012782208620853738,,,,,0.491320925330298,1769,1831,0,,WHITE,,,0,,BLACK,False,INCORRECT,0.7942570999985037,794.2570999985037
5,20260325_140546,D,J,False,MANUAL,3,346,1146,fixed_delta,0.03841730837928436,0.012782208620853738,,,,,0.47032702542170063,1693,1907,0,,WHITE,,,0,,WHITE,True,CORRECT,1.178597300000547,1178.597300000547
5,20260325_140546,D,J,False,MANUAL,3,347,1147,fixed_delta,0.03841730837928436,0.012782208620853738,,,,,0.5434786293501094,1957,1643,0,,BLACK,,,0,,BLACK,True,CORRECT,1.5216257000029145,1521.6257000029145
5,20260325_140546,D,J,False,MANUAL,3,348,1148,fixed_delta,0.03841730837928436,0.012782208620853738,,,,,0.4746158136820597,1709,1891,0,,WHITE,,,0,,WHITE,True,CORRECT,1.3353051999984018,1335.3051999984018
5,20260325_140546,D,J,False,MANUAL,3,349,1149,fixed_delta,0.03841730837928436,0.012782208620853738,,,,,0.4621339316702016,1664,1936,0,,WHITE,,,0,,WHITE,True,CORRECT,3.268260699998791,3268.260699998791
5,20260325_140546,D,J,False,MANUAL,3,350,1150,fixed_delta,0.03841730837928436,0.012782208620853738,,,,,0.4735122903230905,1705,1895,0,,WHITE,,,0,,WHITE,True,CORRECT,0.6839513999984774,683.9513999984774
5,20260325_140546,D,J,False,MANUAL,3,351,1151,fixed_delta,0.03841730837928436,0.012782208620853738,,,,,0.45129825269726853,1625,1975,0,,WHITE,,,0,,WHITE,True,CORRECT,0.6619449999998324,661.9449999998324
5,20260325_140546,D,J,False,MANUAL,3,352,1152,fixed_delta,0.03841730837928436,0.012782208620853738,,,,,0.5475496283929168,1971,1629,0,,BLACK,,,0,,BLACK,True,CORRECT,0.6744920999990427,674.4920999990427
5,20260325_140546,D,J,False,MANUAL,3,353,1153,fixed_delta,0.03841730837928436,0.012782208620853738,,,,,0.46548094407649293,1676,1924,0,,WHITE,,,0,,BLACK,False,INCORRECT,0.6874437000005855,687.4437000005855
5,20260325_140546,D,J,False,MANUAL,3,354,1154,fixed_delta,0.03841730837928436,0.012782208620853738,,,,,0.47624764975892303,1714,1886,0,,WHITE,,,0,,WHITE,True,CORRECT,0.7099388000024192,709.9388000024192
5,20260325_140546,D,J,False,MANUAL,3,355,1155,fixed_delta,0.03841730837928436,0.012782208620853738,,,,,0.5575004030287638,2007,1593,0,,BLACK,,,0,,BLACK,True,CORRECT,0.7594054000001051,759.4054000001051
5,20260325_140546,D,J,False,MANUAL,3,356,1156,fixed_delta,0.03841730837928436,0.012782208620853738,,,,,0.4634987974903565,1669,1931,0,,WHITE,,,0,,WHITE,True,CORRECT,0.6783192999973835,678.3192999973835
5,20260325_140546,D,J,False,MANUAL,3,357,1157,fixed_delta,0.03841730837928436,0.012782208620853738,,,,,0.4516481946067905,1626,1974,0,,WHITE,,,0,,WHITE,True,CORRECT,0.9501359999994747,950.1359999994747
5,20260325_140546,D,J,False,MANUAL,3,358,1158,fixed_delta,0.03841730837928436,0.012782208620853738,,,,,0.5551829826181225,1999,1601,0,,BLACK,,,0,,BLACK,True,CORRECT,0.7183650999977544,718.3650999977544
5,20260325_140546,D,J,False,MANUAL,3,359,1159,fixed_delta,0.03841730837928436,0.012782208620853738,,,,,0.533084285953695,1919,1681,0,,BLACK,,,0,,BLACK,True,CORRECT,0.7027807999984361,702.7807999984361
5,20260325_140546,D,J,False,MANUAL,3,360,1160,fixed_delta,0.03841730837928436,0.012782208620853738,,,,,0.4449281388776542,1602,1998,0,,WHITE,,,0,,WHITE,True,CORRECT,0.7019801000024017,701.9801000024017
5,20260325_140546,D,J,False,MANUAL,3,361,1161,fixed_delta,0.03841730837928436,0.012782208620853738,,,,,0.48526150789816663,1747,1853,0,,WHITE,,,0,,WHITE,True,CORRECT,0.8208554000011645,820.8554000011645
5,20260325_140546,D,J,False,MANUAL,3,362,1162,fixed_delta,0.03841730837928436,0.012782208620853738,,,,,0.44637926466768263,1607,1993,0,,WHITE,,,0,,WHITE,True,CORRECT,1.0478373000005377,1047.8373000005377
5,20260325_140546,D,J,False,MANUAL,3,363,1163,fixed_delta,0.03841730837928436,0.012782208620853738,,,,,0.449075885602906,1617,1983,0,,WHITE,,,0,,BLACK,False,INCORRECT,2.6836521000004723,2683.6521000004723
5,20260325_140546,D,J,False,MANUAL,3,364,1164,fixed_delta,0.03841730837928436,0.012782208620853738,,,,,0.5363863021763643,1931,1669,0,,BLACK,,,0,,BLACK,True,CORRECT,1.162175000001298,1162.175000001298
5,20260325_140546,D,J,False,MANUAL,3,365,1165,fixed_delta,0.03841730837928436,0.012782208620853738,,,,,0.472340734300812,1700,1900,0,,WHITE,,,0,,WHITE,True,CORRECT,1.030754399998841,1030.754399998841
5,20260325_140546,D,J,False,MANUAL,3,366,1166,fixed_delta,0.03841730837928436,0.012782208620853738,,,,,0.4460904149248647,1606,1994,0,,WHITE,,,0,,WHITE,True,CORRECT,0.6680392999987816,668.0392999987816
5,20260325_140546,D,J,False,MANUAL,3,367,1167,fixed_delta,0.03841730837928436,0.012782208620853738,,,,,0.46357244792202934,1669,1931,0,,WHITE,,,0,,WHITE,True,CORRECT,0.605401199998596,605.401199998596
5,20260325_140546,D,J,False,MANUAL,3,368,1168,fixed_delta,0.03841730837928436,0.012782208620853738,,,,,0.4814723055782175,1733,1867,0,,WHITE,,,0,,BLACK,False,INCORRECT,0.8699711999979627,869.9711999979627
5,20260325_140546,D,J,False,MANUAL,3,369,1169,fixed_delta,0.03841730837928436,0.012782208620853738,,,,,0.5292783411495982,1905,1695,0,,BLACK,,,0,,BLACK,True,CORRECT,0.6914934999986144,691.4934999986144
5,20260325_140546,D,J,False,MANUAL,3,370,1170,fixed_delta,0.03841730837928436,0.012782208620853738,,,,,0.47030348668874156,1693,1907,0,,WHITE,,,0,,WHITE,True,CORRECT,0.6018088000018906,601.8088000018906
5,20260325_140546,D,J,False,MANUAL,3,371,1171,fixed_delta,0.03841730837928436,0.012782208620853738,,,,,0.5551349814645986,1998,1602,0,,BLACK,,,0,,BLACK,True,CORRECT,0.6302637000007962,630.2637000007962
5,20260325_140546,D,J,False,MANUAL,3,372,1172,fixed_delta,0.03841730837928436,0.012782208620853738,,,,,0.5493238886286096,1978,1622,0,,BLACK,,,0,,BLACK,True,CORRECT,1.0009546000001137,1000.9546000001137
5,20260325_140546,D,J,False,MANUAL,3,373,1173,fixed_delta,0.03841730837928436,0.012782208620853738,,,,,0.5600878759248988,2016,1584,0,,BLACK,,,0,,BLACK,True,CORRECT,0.6259101999967243,625.9101999967243
5,20260325_140546,D,J,False,MANUAL,3,374,1174,fixed_delta,0.03841730837928436,0.012782208620853738,,,,,0.5164902288013277,1859,1741,0,,BLACK,,,0,,WHITE,False,INCORRECT,1.0904112000025634,1090.4112000025634
5,20260325_140546,D,J,False,MANUAL,3,375,1175,fixed_delta,0.03841730837928436,0.012782208620853738,,,,,0.4577328924270141,1648,1952,0,,WHITE,,,0,,WHITE,True,CORRECT,1.2650759999996808,1265.0759999996808
5,20260325_140546,D,J,False,MANUAL,3,376,1176,fixed_delta,0.03841730837928436,0.012782208620853738,,,,,0.5246458434191308,1889,1711,0,,BLACK,,,0,,BLACK,True,CORRECT,0.8355574000015622,835.5574000015622
5,20260325_140546,D,J,False,MANUAL,3,377,1177,fixed_delta,0.03841730837928436,0.012782208620853738,,,,,0.5385617028857361,1939,1661,0,,BLACK,,,0,,BLACK,True,CORRECT,0.7839693999994779,783.9693999994779
5,20260325_140546,D,J,False,MANUAL,3,378,1178,fixed_delta,0.03841730837928436,0.012782208620853738,,,,,0.5313881090093572,1913,1687,0,,BLACK,,,0,,BLACK,True,CORRECT,1.198202699997637,1198.202699997637
5,20260325_140546,D,J,False,MANUAL,3,379,1179,fixed_delta,0.03841730837928436,0.012782208620853738,,,,,0.4719914878477657,1699,1901,0,,WHITE,,,0,,WHITE,True,CORRECT,1.2968185000027006,1296.8185000027006
5,20260325_140546,D,J,False,MANUAL,3,380,1180,fixed_delta,0.03841730837928436,0.012782208620853738,,,,,0.5347896290584803,1925,1675,0,,BLACK,,,0,,BLACK,True,CORRECT,0.8806045000019367,880.6045000019367
5,20260325_140546,D,J,False,MANUAL,3,381,1181,fixed_delta,0.03841730837928436,0.012782208620853738,,,,,0.48142524020374505,1733,1867,0,,WHITE,,,0,,WHITE,True,CORRECT,1.0467962000002444,1046.7962000002444
5,20260325_140546,D,J,False,MANUAL,3,382,1182,fixed_delta,0.03841730837928436,0.012782208620853738,,,,,0.4489805712910887,1616,1984,0,,WHITE,,,0,,WHITE,True,CORRECT,0.7377991999965161,737.7991999965161
5,20260325_140546,D,J,False,MANUAL,3,383,1183,fixed_delta,0.03841730837928436,0.012782208620853738,,,,,0.45382885660779465,1634,1966,0,,WHITE,,,0,,WHITE,True,CORRECT,0.6047562999992806,604.7562999992806
5,20260325_140546,D,J,False,MANUAL,3,384,1184,fixed_delta,0.03841730837928436,0.012782208620853738,,,,,0.5457890627992646,1965,1635,0,,BLACK,,,0,,BLACK,True,CORRECT,0.9178993000023183,917.8993000023183
5,20260325_140546,D,J,False,MANUAL,3,385,1185,fixed_delta,0.03841730837928436,0.012782208620853738,,,,,0.5377103640475179,1936,1664,0,,BLACK,,,0,,BLACK,True,CORRECT,0.614320200002112,614.320200002112
5,20260325_140546,D,J,False,MANUAL,3,386,1186,fixed_delta,0.03841730837928436,0.012782208620853738,,,,,0.4782509929992357,1722,1878,0,,WHITE,,,0,,BLACK,False,INCORRECT,0.7016151000025275,701.6151000025275
5,20260325_140546,D,J,False,MANUAL,3,387,1187,fixed_delta,0.03841730837928436,0.012782208620853738,,,,,0.4491513467220181,1617,1983,0,,WHITE,,,0,,WHITE,True,CORRECT,0.9253530999994837,925.3530999994837
5,20260325_140546,D,J,False,MANUAL,3,388,1188,fixed_delta,0.03841730837928436,0.012782208620853738,,,,,0.5300688502472585,1908,1692,0,,BLACK,,,0,,BLACK,True,CORRECT,1.7429485000029672,1742.9485000029672
5,20260325_140546,D,J,False,MANUAL,3,389,1189,fixed_delta,0.03841730837928436,0.012782208620853738,,,,,0.4760336762475595,1714,1886,0,,WHITE,,,0,,BLACK,False,INCORRECT,0.7231030000002647,723.1030000002647
5,20260325_140546,D,J,False,MANUAL,3,390,1190,fixed_delta,0.03841730837928436,0.012782208620853738,,,,,0.5474367510805314,1971,1629,0,,BLACK,,,0,,BLACK,True,CORRECT,1.2808796999997867,1280.8796999997867
5,20260325_140546,D,J,False,MANUAL,3,391,1191,fixed_delta,0.03841730837928436,0.012782208620853738,,,,,0.52391707261667,1886,1714,0,,BLACK,,,0,,WHITE,False,INCORRECT,1.0559864999995625,1055.9864999995625
5,20260325_140546,D,J,False,MANUAL,3,392,1192,fixed_delta,0.03841730837928436,0.012782208620853738,,,,,0.5248408027468471,1889,1711,0,,BLACK,,,0,,WHITE,False,INCORRECT,0.6453621000000567,645.3621000000567
5,20260325_140546,D,J,False,MANUAL,3,393,1193,fixed_delta,0.03841730837928436,0.012782208620853738,,,,,0.4648242193844083,1673,1927,0,,WHITE,,,0,,WHITE,True,CORRECT,0.9029306000011275,902.9306000011275
5,20260325_140546,D,J,False,MANUAL,3,394,1194,fixed_delta,0.03841730837928436,0.012782208620853738,,,,,0.47726038392648684,1718,1882,0,,WHITE,,,0,,WHITE,True,CORRECT,1.0245326999975077,1024.5326999975077
5,20260325_140546,D,J,False,MANUAL,3,395,1195,fixed_delta,0.03841730837928436,0.012782208620853738,,,,,0.47239810494963164,1701,1899,0,,WHITE,,,0,,WHITE,True,CORRECT,0.9050907000018924,905.0907000018924
5,20260325_140546,D,J,False,MANUAL,3,396,1196,fixed_delta,0.03841730837928436,0.012782208620853738,,,,,0.46264560351934747,1666,1934,0,,WHITE,,,0,,WHITE,True,CORRECT,0.7019674999974086,701.9674999974086
5,20260325_140546,D,J,False,MANUAL,3,397,1197,fixed_delta,0.03841730837928436,0.012782208620853738,,,,,0.47125446340881183,1697,1903,0,,WHITE,,,0,,WHITE,True,CORRECT,0.7593860000015411,759.3860000015411
5,20260325_140546,D,J,False,MANUAL,3,398,1198,fixed_delta,0.03841730837928436,0.012782208620853738,,,,,0.5438942914856812,1958,1642,0,,BLACK,,,0,,BLACK,True,CORRECT,1.889918700002454,1889.918700002454
5,20260325_140546,D,J,False,MANUAL,3,399,1199,fixed_delta,0.03841730837928436,0.012782208620853738,,,,,0.5289174977706886,1904,1696,0,,BLACK,,,0,,BLACK,True,CORRECT,1.5612858999993477,1561.2858999993477
5,20260325_140546,D,J,False,MANUAL,3,400,1200,fixed_delta,0.03841730837928436,0.012782208620853738,,,,,0.4727158041685243,1702,1898,0,,WHITE,,,0,,WHITE,True,CORRECT,1.7728204000013648,1772.8204000013648
5,20260325_140546,D,J,False,MANUAL,3,401,1201,fixed_delta,0.03841730837928436,0.012782208620853738,,,,,0.45626605272285425,1643,1957,0,,WHITE,,,0,,WHITE,True,CORRECT,0.663436200000433,663.436200000433
5,20260325_140546,D,J,False,MANUAL,3,402,1202,fixed_delta,0.03841730837928436,0.012782208620853738,,,,,0.5458168648025494,1965,1635,0,,BLACK,,,0,,BLACK,True,CORRECT,1.2594551000001957,1259.4551000001957
5,20260325_140546,D,J,False,MANUAL,3,403,1203,fixed_delta,0.03841730837928436,0.012782208620853738,,,,,0.4454723209234154,1604,1996,0,,WHITE,,,0,,WHITE,True,CORRECT,0.6525263999974413,652.5263999974413
5,20260325_140546,D,J,False,MANUAL,3,404,1204,fixed_delta,0.03841730837928436,0.012782208620853738,,,,,0.4725347430151419,1701,1899,0,,WHITE,,,0,,WHITE,True,CORRECT,1.249478799996723,1249.478799996723
5,20260325_140546,D,J,False,MANUAL,3,405,1205,fixed_delta,0.03841730837928436,0.012782208620853738,,,,,0.5172580223307414,1862,1738,0,,BLACK,,,0,,BLACK,True,CORRECT,1.4985331000025326,1498.5331000025326
5,20260325_140546,D,J,False,MANUAL,3,406,1206,fixed_delta,0.03841730837928436,0.012782208620853738,,,,,0.47404717227387194,1707,1893,0,,WHITE,,,0,,WHITE,True,CORRECT,0.9105434000011883,910.5434000011883
5,20260325_140546,D,J,False,MANUAL,3,407,1207,fixed_delta,0.03841730837928436,0.012782208620853738,,,,,0.44842193991790885,1614,1986,0,,WHITE,,,0,,WHITE,True,CORRECT,1.0654384000008577,1065.4384000008577
5,20260325_140546,D,J,False,MANUAL,3,408,1208,fixed_delta,0.03841730837928436,0.012782208620853738,,,,,0.5453668465652929,1963,1637,0,,BLACK,,,0,,BLACK,True,CORRECT,0.7411276000020735,741.1276000020735
5,20260325_140546,D,J,False,MANUAL,3,409,1209,fixed_delta,0.03841730837928436,0.012782208620853738,,,,,0.45639085107189775,1643,1957,0,,WHITE,,,0,,BLACK,False,INCORRECT,1.4753937999994378,1475.3937999994378
5,20260325_140546,D,J,False,MANUAL,3,410,1210,fixed_delta,0.03841730837928436,0.012782208620853738,,,,,0.522610704445713,1881,1719,0,,BLACK,,,0,,BLACK,True,CORRECT,0.88109489999988,881.09489999988
5,20260325_140546,D,J,False,MANUAL,3,411,1211,fixed_delta,0.03841730837928436,0.012782208620853738,,,,,0.461461352948716,1661,1939,0,,WHITE,,,0,,WHITE,True,CORRECT,0.6426133999993908,642.6133999993908
5,20260325_140546,D,J,False,MANUAL,3,412,1212,fixed_delta,0.03841730837928436,0.012782208620853738,,,,,0.5385580030532114,1939,1661,0,,BLACK,,,0,,BLACK,True,CORRECT,0.9095417999997153,909.5417999997153
5,20260325_140546,D,J,False,MANUAL,3,413,1213,fixed_delta,0.03841730837928436,0.012782208620853738,,,,,0.5458189256929976,1965,1635,0,,BLACK,,,0,,WHITE,False,INCORRECT,1.268141900000046,1268.141900000046
5,20260325_140546,D,J,False,MANUAL,3,414,1214,fixed_delta,0.03841730837928436,0.012782208620853738,,,,,0.5374794573847699,1935,1665,0,,BLACK,,,0,,BLACK,True,CORRECT,0.7062073000015516,706.2073000015516
5,20260325_140546,D,J,False,MANUAL,3,415,1215,fixed_delta,0.03841730837928436,0.012782208620853738,,,,,0.5345298235624262,1924,1676,0,,BLACK,,,0,,WHITE,False,INCORRECT,1.1172065999999177,1117.2065999999177
5,20260325_140546,D,J,False,MANUAL,3,416,1216,fixed_delta,0.03841730837928436,0.012782208620853738,,,,,0.45935190525485586,1654,1946,0,,WHITE,,,0,,WHITE,True,CORRECT,0.695730100000219,695.730100000219
5,20260325_140546,D,J,False,MANUAL,3,417,1217,fixed_delta,0.03841730837928436,0.012782208620853738,,,,,0.5264083399419999,1895,1705,0,,BLACK,,,0,,BLACK,True,CORRECT,0.8407088999992993,840.7088999992993
5,20260325_140546,D,J,False,MANUAL,3,418,1218,fixed_delta,0.03841730837928436,0.012782208620853738,,,,,0.5451165656705339,1962,1638,0,,BLACK,,,0,,BLACK,True,CORRECT,0.6469741000000795,646.9741000000795
5,20260325_140546,D,J,False,MANUAL,3,419,1219,fixed_delta,0.03841730837928436,0.012782208620853738,,,,,0.4528393797803467,1630,1970,0,,WHITE,,,0,,WHITE,True,CORRECT,0.730785099996865,730.785099996865
5,20260325_140546,D,J,False,MANUAL,3,420,1220,fixed_delta,0.03841730837928436,0.012782208620853738,,,,,0.4557067471406877,1641,1959,0,,WHITE,,,0,,WHITE,True,CORRECT,0.8375646999993478,837.5646999993478
5,20260325_140546,D,J,False,MANUAL,3,421,1221,fixed_delta,0.03841730837928436,0.012782208620853738,,,,,0.5422839226655509,1952,1648,0,,BLACK,,,0,,BLACK,True,CORRECT,0.6344845000021451,634.4845000021451
5,20260325_140546,D,J,False,MANUAL,3,422,1222,fixed_delta,0.03841730837928436,0.012782208620853738,,,,,0.45895398683757765,1652,1948,0,,WHITE,,,0,,WHITE,True,CORRECT,0.9763459000023431,976.3459000023431
5,20260325_140546,D,J,False,MANUAL,3,423,1223,fixed_delta,0.03841730837928436,0.012782208620853738,,,,,0.5448972622693491,1962,1638,0,,BLACK,,,0,,BLACK,True,CORRECT,0.8361011000015424,836.1011000015424
5,20260325_140546,D,J,False,MANUAL,3,424,1224,fixed_delta,0.03841730837928436,0.012782208620853738,,,,,0.537266161335175,1934,1666,0,,BLACK,,,0,,WHITE,False,INCORRECT,1.103729899998143,1103.729899998143
5,20260325_140546,D,J,False,MANUAL,3,425,1225,fixed_delta,0.03841730837928436,0.012782208620853738,,,,,0.5778786053394216,2080,1520,0,,BLACK,,,0,,BLACK,True,CORRECT,0.8460630999979912,846.0630999979912
5,20260325_140546,D,J,False,MANUAL,3,426,1226,fixed_delta,0.03841730837928436,0.012782208620853738,,,,,0.5267802830642264,1896,1704,0,,BLACK,,,0,,BLACK,True,CORRECT,0.5906841000032728,590.6841000032728
5,20260325_140546,D,J,False,MANUAL,3,427,1227,fixed_delta,0.03841730837928436,0.012782208620853738,,,,,0.46685790655145565,1681,1919,0,,WHITE,,,0,,WHITE,True,CORRECT,0.6506084000029659,650.6084000029659
5,20260325_140546,D,J,False,MANUAL,3,428,1228,fixed_delta,0.03841730837928436,0.012782208620853738,,,,,0.4532260327477078,1632,1968,0,,WHITE,,,0,,WHITE,True,CORRECT,0.8793943999990006,879.3943999990006
5,20260325_140546,D,J,False,MANUAL,3,429,1229,fixed_delta,0.03841730837928436,0.012782208620853738,,,,,0.5318291905517413,1915,1685,0,,BLACK,,,0,,BLACK,True,CORRECT,0.8015472999977646,801.5472999977646
5,20260325_140546,D,J,False,MANUAL,3,430,1230,fixed_delta,0.03841730837928436,0.012782208620853738,,,,,0.5488335176089253,1976,1624,0,,BLACK,,,0,,BLACK,True,CORRECT,0.7484724999994796,748.4724999994796
5,20260325_140546,D,J,False,MANUAL,3,431,1231,fixed_delta,0.03841730837928436,0.012782208620853738,,,,,0.5398858064250048,1944,1656,0,,BLACK,,,0,,WHITE,False,INCORRECT,0.9839084000013827,983.9084000013827
5,20260325_140546,D,J,False,MANUAL,3,432,1232,fixed_delta,0.03841730837928436,0.012782208620853738,,,,,0.5320698010770591,1915,1685,0,,BLACK,,,0,,WHITE,False,INCORRECT,0.9779295000007551,977.9295000007551
5,20260325_140546,D,J,False,MANUAL,3,433,1233,fixed_delta,0.03841730837928436,0.012782208620853738,,,,,0.576642830649637,2076,1524,0,,BLACK,,,0,,BLACK,True,CORRECT,1.5193734000022232,1519.3734000022232
5,20260325_140546,D,J,False,MANUAL,3,434,1234,fixed_delta,0.03841730837928436,0.012782208620853738,,,,,0.4654681279074846,1676,1924,0,,WHITE,,,0,,WHITE,True,CORRECT,0.6098081999989517,609.8081999989517
5,20260325_140546,D,J,False,MANUAL,3,435,1235,fixed_delta,0.03841730837928436,0.012782208620853738,,,,,0.46538954885583633,1675,1925,0,,WHITE,,,0,,WHITE,True,CORRECT,0.7675343999981123,767.5343999981123
5,20260325_140546,D,J,False,MANUAL,3,436,1236,fixed_delta,0.03841730837928436,0.012782208620853738,,,,,0.45906202250679196,1653,1947,0,,WHITE,,,0,,WHITE,True,CORRECT,0.6960279999984778,696.0279999984778
5,20260325_140546,D,J,False,MANUAL,3,437,1237,fixed_delta,0.03841730837928436,0.012782208620853738,,,,,0.5371857576737002,1934,1666,0,,BLACK,,,0,,BLACK,True,CORRECT,0.6340440999993007,634.0440999993007
5,20260325_140546,D,J,False,MANUAL,3,438,1238,fixed_delta,0.03841730837928436,0.012782208620853738,,,,,0.46887464057430295,1688,1912,0,,WHITE,,,0,,BLACK,False,INCORRECT,1.410686799998075,1410.686799998075
5,20260325_140546,D,J,False,MANUAL,3,439,1239,fixed_delta,0.03841730837928436,0.012782208620853738,,,,,0.4547202363178183,1637,1963,0,,WHITE,,,0,,WHITE,True,CORRECT,0.5180139000003692,518.0139000003692
5,20260325_140546,D,J,False,MANUAL,3,440,1240,fixed_delta,0.03841730837928436,0.012782208620853738,,,,,0.5767445054923607,2076,1524,0,,BLACK,,,0,,BLACK,True,CORRECT,0.8006796000008762,800.6796000008762
5,20260325_140546,D,J,False,MANUAL,3,441,1241,fixed_delta,0.03841730837928436,0.012782208620853738,,,,,0.5399476117692592,1944,1656,0,,BLACK,,,0,,BLACK,True,CORRECT,0.9027782999983174,902.7782999983174
5,20260325_140546,D,J,False,MANUAL,3,442,1242,fixed_delta,0.03841730837928436,0.012782208620853738,,,,,0.538251042878127,1938,1662,0,,BLACK,,,0,,WHITE,False,INCORRECT,1.3984468999988167,1398.4468999988167
5,20260325_140546,D,J,False,MANUAL,3,443,1243,fixed_delta,0.03841730837928436,0.012782208620853738,,,,,0.4649358910263668,1674,1926,0,,WHITE,,,0,,BLACK,False,INCORRECT,0.8243032999998832,824.3032999998832
5,20260325_140546,D,J,False,MANUAL,3,444,1244,fixed_delta,0.03841730837928436,0.012782208620853738,,,,,0.463148059427031,1667,1933,0,,WHITE,,,0,,WHITE,True,CORRECT,1.167383299998619,1167.383299998619
5,20260325_140546,D,J,False,MANUAL,3,445,1245,fixed_delta,0.03841730837928436,0.012782208620853738,,,,,0.5680945634559651,2045,1555,0,,BLACK,,,0,,BLACK,True,CORRECT,0.6435428000004322,643.5428000004322
5,20260325_140546,D,J,False,MANUAL,3,446,1246,fixed_delta,0.03841730837928436,0.012782208620853738,,,,,0.5293543957943392,1906,1694,0,,BLACK,,,0,,WHITE,False,INCORRECT,0.8957315000006929,895.7315000006929
5,20260325_140546,D,J,False,MANUAL,3,447,1247,fixed_delta,0.03841730837928436,0.012782208620853738,,,,,0.5517929359585526,1986,1614,0,,BLACK,,,0,,BLACK,True,CORRECT,1.1842461999985971,1184.2461999985971
5,20260325_140546,D,J,False,MANUAL,3,448,1248,fixed_delta,0.03841730837928436,0.012782208620853738,,,,,0.45439881695761536,1636,1964,0,,WHITE,,,0,,WHITE,True,CORRECT,0.7516092000005301,751.6092000005301
5,20260325_140546,D,J,False,MANUAL,3,449,1249,fixed_delta,0.03841730837928436,0.012782208620853738,,,,,0.46257058047333344,1665,1935,0,,WHITE,,,0,,WHITE,True,CORRECT,0.7405567999994673,740.5567999994673
5,20260325_140546,D,J,False,MANUAL,3,450,1250,fixed_delta,0.03841730837928436,0.012782208620853738,,,,,0.46821777730852654,1686,1914,0,,WHITE,,,0,,WHITE,True,CORRECT,0.8411412999994354,841.1412999994354
5,20260325_140546,D,J,False,MANUAL,3,451,1251,fixed_delta,0.03841730837928436,0.012782208620853738,,,,,0.5265417018400573,1896,1704,0,,BLACK,,,0,,BLACK,True,CORRECT,0.8848744999995688,884.8744999995688
5,20260325_140546,D,J,False,MANUAL,3,452,1252,fixed_delta,0.03841730837928436,0.012782208620853738,,,,,0.45195879224492463,1627,1973,0,,WHITE,,,0,,WHITE,True,CORRECT,1.098908299998584,1098.908299998584
5,20260325_140546,D,J,False,MANUAL,3,453,1253,fixed_delta,0.03841730837928436,0.012782208620853738,,,,,0.5245053051154205,1888,1712,0,,BLACK,,,0,,BLACK,True,CORRECT,0.6870648999974946,687.0648999974946
5,20260325_140546,D,J,False,MANUAL,3,454,1254,fixed_delta,0.03841730837928436,0.012782208620853738,,,,,0.4501935877411326,1621,1979,0,,WHITE,,,0,,WHITE,True,CORRECT,1.0056400000030408,1005.6400000030408
5,20260325_140546,D,J,False,MANUAL,3,455,1255,fixed_delta,0.03841730837928436,0.012782208620853738,,,,,0.4596190728253481,1655,1945,0,,WHITE,,,0,,WHITE,True,CORRECT,0.9465209999980289,946.5209999980289
5,20260325_140546,D,J,False,MANUAL,3,456,1256,fixed_delta,0.03841730837928436,0.012782208620853738,,,,,0.5592275784219215,2013,1587,0,,BLACK,,,0,,BLACK,True,CORRECT,0.8769535999999789,876.9535999999789
5,20260325_140546,D,J,False,MANUAL,3,457,1257,fixed_delta,0.03841730837928436,0.012782208620853738,,,,,0.4973257037226968,1790,1810,0,,WHITE,,,0,,WHITE,True,CORRECT,1.1352880000013101,1135.2880000013101
5,20260325_140546,D,J,False,MANUAL,3,458,1258,fixed_delta,0.03841730837928436,0.012782208620853738,,,,,0.5268034738147859,1896,1704,0,,BLACK,,,0,,BLACK,True,CORRECT,0.8871397999973851,887.1397999973851
5,20260325_140546,D,J,False,MANUAL,3,459,1259,fixed_delta,0.03841730837928436,0.012782208620853738,,,,,0.449060239689178,1617,1983,0,,WHITE,,,0,,WHITE,True,CORRECT,0.8670553000010841,867.0553000010841
5,20260325_140546,D,J,False,MANUAL,3,460,1260,fixed_delta,0.03841730837928436,0.012782208620853738,,,,,0.5480894742082858,1973,1627,0,,BLACK,,,0,,BLACK,True,CORRECT,0.8766432000011264,876.6432000011264
5,20260325_140546,D,J,False,MANUAL,3,461,1261,fixed_delta,0.03841730837928436,0.012782208620853738,,,,,0.4676547785702307,1684,1916,0,,WHITE,,,0,,WHITE,True,CORRECT,0.7394584000030591,739.4584000030591
5,20260325_140546,D,J,False,MANUAL,3,462,1262,fixed_delta,0.03841730837928436,0.012782208620853738,,,,,0.46612747865496723,1678,1922,0,,WHITE,,,0,,WHITE,True,CORRECT,0.7218869999996969,721.8869999996969
5,20260325_140546,D,J,False,MANUAL,3,463,1263,fixed_delta,0.03841730837928436,0.012782208620853738,,,,,0.5396129082161909,1943,1657,0,,BLACK,,,0,,WHITE,False,INCORRECT,0.7298011999992013,729.8011999992013
5,20260325_140546,D,J,False,MANUAL,3,464,1264,fixed_delta,0.03841730837928436,0.012782208620853738,,,,,0.45668705261291703,1644,1956,0,,WHITE,,,0,,WHITE,True,CORRECT,0.741148000000976,741.148000000976
5,20260325_140546,D,J,False,MANUAL,3,465,1265,fixed_delta,0.03841730837928436,0.012782208620853738,,,,,0.4718061276207061,1699,1901,0,,WHITE,,,0,,BLACK,False,INCORRECT,0.8208844999971916,820.8844999971916
5,20260325_140546,D,J,False,MANUAL,3,466,1266,fixed_delta,0.03841730837928436,0.012782208620853738,,,,,0.461324582494823,1661,1939,0,,WHITE,,,0,,WHITE,True,CORRECT,0.6439156999986153,643.9156999986153
5,20260325_140546,D,J,False,MANUAL,3,467,1267,fixed_delta,0.03841730837928436,0.012782208620853738,,,,,0.544082890080437,1959,1641,0,,BLACK,,,0,,BLACK,True,CORRECT,0.7348757999970985,734.8757999970985
5,20260325_140546,D,J,False,MANUAL,3,468,1268,fixed_delta,0.03841730837928436,0.012782208620853738,,,,,0.4700631738279748,1692,1908,0,,WHITE,,,0,,BLACK,False,INCORRECT,0.6478175000011106,647.8175000011106
5,20260325_140546,D,J,False,MANUAL,3,469,1269,fixed_delta,0.03841730837928436,0.012782208620853738,,,,,0.5447112472267679,1961,1639,0,,BLACK,,,0,,BLACK,True,CORRECT,0.7717077999986941,771.7077999986941
5,20260325_140546,D,J,False,MANUAL,3,470,1270,fixed_delta,0.03841730837928436,0.012782208620853738,,,,,0.45417839017934086,1635,1965,0,,WHITE,,,0,,WHITE,True,CORRECT,0.6818438999980572,681.8438999980572
5,20260325_140546,D,J,False,MANUAL,3,471,1271,fixed_delta,0.03841730837928436,0.012782208620853738,,,,,0.5362059708527271,1930,1670,0,,BLACK,,,0,,BLACK,True,CORRECT,0.8645119999964663,864.5119999964663
5,20260325_140546,D,J,False,MANUAL,3,472,1272,fixed_delta,0.03841730837928436,0.012782208620853738,,,,,0.46697237553185184,1681,1919,0,,WHITE,,,0,,WHITE,True,CORRECT,0.9462041999977373,946.2041999977373
5,20260325_140546,D,J,False,MANUAL,3,473,1273,fixed_delta,0.03841730837928436,0.012782208620853738,,,,,0.5456237070787419,1964,1636,0,,BLACK,,,0,,WHITE,False,INCORRECT,1.0278704000011203,1027.8704000011203
5,20260325_140546,D,J,False,MANUAL,3,474,1274,fixed_delta,0.03841730837928436,0.012782208620853738,,,,,0.5394896131360086,1942,1658,0,,BLACK,,,0,,WHITE,False,INCORRECT,0.6704469999967841,670.4469999967841
5,20260325_140546,D,J,False,MANUAL,3,475,1275,fixed_delta,0.03841730837928436,0.012782208620853738,,,,,0.5339970179904471,1922,1678,0,,BLACK,,,0,,WHITE,False,INCORRECT,1.7708308000001125,1770.8308000001125
5,20260325_140546,D,J,False,MANUAL,3,476,1276,fixed_delta,0.03841730837928436,0.012782208620853738,,,,,0.45761116057485113,1647,1953,0,,WHITE,,,0,,WHITE,True,CORRECT,0.6214240000008431,621.4240000008431
5,20260325_140546,D,J,False,MANUAL,3,477,1277,fixed_delta,0.03841730837928436,0.012782208620853738,,,,,0.5479146266843206,1972,1628,0,,BLACK,,,0,,BLACK,True,CORRECT,0.6716082000020833,671.6082000020833
5,20260325_140546,D,J,False,MANUAL,3,478,1278,fixed_delta,0.03841730837928436,0.012782208620853738,,,,,0.5262114354236734,1894,1706,0,,BLACK,,,0,,WHITE,False,INCORRECT,0.6972621000022627,697.2621000022627
5,20260325_140546,D,J,False,MANUAL,3,479,1279,fixed_delta,0.03841730837928436,0.012782208620853738,,,,,0.4725532003799979,1701,1899,0,,WHITE,,,0,,WHITE,True,CORRECT,0.4819451000003028,481.9451000003028
5,20260325_140546,D,J,False,MANUAL,3,480,1280,fixed_delta,0.03841730837928436,0.012782208620853738,,,,,0.557332717675761,2006,1594,0,,BLACK,,,0,,BLACK,True,CORRECT,1.0555316000027233,1055.5316000027233
5,20260325_140546,D,J,False,MANUAL,3,481,1281,fixed_delta,0.03841730837928436,0.012782208620853738,,,,,0.46319417629263815,1667,1933,0,,WHITE,,,0,,WHITE,True,CORRECT,0.9036458000009588,903.6458000009588
5,20260325_140546,D,J,False,MANUAL,3,482,1282,fixed_delta,0.03841730837928436,0.012782208620853738,,,,,0.5674440672831151,2043,1557,0,,BLACK,,,0,,BLACK,True,CORRECT,0.6036837000028754,603.6837000028754
5,20260325_140546,D,J,False,MANUAL,3,483,1283,fixed_delta,0.03841730837928436,0.012782208620853738,,,,,0.47058435242070934,1694,1906,0,,WHITE,,,0,,WHITE,True,CORRECT,2.1729551999997057,2172.9551999997057
5,20260325_140546,D,J,False,MANUAL,3,484,1284,fixed_delta,0.03841730837928436,0.012782208620853738,,,,,0.5370170398168527,1933,1667,0,,BLACK,,,0,,BLACK,True,CORRECT,1.1670752000027278,1167.0752000027278
5,20260325_140546,D,J,False,MANUAL,3,485,1285,fixed_delta,0.03841730837928436,0.012782208620853738,,,,,0.538391538087716,1938,1662,0,,BLACK,,,0,,BLACK,True,CORRECT,0.6589960999990581,658.9960999990581
5,20260325_140546,D,J,False,MANUAL,3,486,1286,fixed_delta,0.03841730837928436,0.012782208620853738,,,,,0.533315316935215,1920,1680,0,,BLACK,,,0,,BLACK,True,CORRECT,0.5923370999989857,592.3370999989857
5,20260325_140546,D,J,False,MANUAL,3,487,1287,fixed_delta,0.03841730837928436,0.012782208620853738,,,,,0.523927091191524,1886,1714,0,,BLACK,,,0,,BLACK,True,CORRECT,0.7061159000004409,706.1159000004409
5,20260325_140546,D,J,False,MANUAL,3,488,1288,fixed_delta,0.03841730837928436,0.012782208620853738,,,,,0.5155339899536282,1856,1744,0,,BLACK,,,0,,WHITE,False,INCORRECT,0.9662224999992759,966.2224999992759
5,20260325_140546,D,J,False,MANUAL,3,489,1289,fixed_delta,0.03841730837928436,0.012782208620853738,,,,,0.5452410240287587,1963,1637,0,,BLACK,,,0,,WHITE,False,INCORRECT,1.27356200000213,1273.56200000213
5,20260325_140546,D,J,False,MANUAL,3,490,1290,fixed_delta,0.03841730837928436,0.012782208620853738,,,,,0.4759078655501381,1713,1887,0,,WHITE,,,0,,WHITE,True,CORRECT,1.11153270000068,1111.53270000068
5,20260325_140546,D,J,False,MANUAL,3,491,1291,fixed_delta,0.03841730837928436,0.012782208620853738,,,,,0.5351303640743886,1926,1674,0,,BLACK,,,0,,BLACK,True,CORRECT,0.7059096999983012,705.9096999983012
