participant_id,run_timestamp,key_black,key_white,keymap_flip,block,block_idx,trial,global_trial,difficulty_mode,delta_fixed_mean,delta_fixed_sd,delta_stair_realised,delta_stair_mean,delta_step_down_used,delta_step_up_used,vblack_prop,n_vblack,n_vwhite,auto_on,aid_accuracy_setting,stimulus,aid_label,aid_correct,aid_onset_ms,aid_onset_ms_rel,response,correct,feedback,rt_s,rt_ms
3,20260325_121052,D,J,False,CALIBRATION,1,1,1,staircase,,,0.20950731773571157,0.19,0.01,0.04000000000000001,0.7095073177357116,2554,1046,0,,BLACK,,,0,,BLACK,True,CORRECT,3.6300355000003037,3630.0355000003037
3,20260325_121052,D,J,False,CALIBRATION,1,2,2,staircase,,,0.19154120621310816,0.18018367346938777,0.009816326530612245,0.03926530612244899,0.30845879378689184,1110,2490,0,,WHITE,,,0,,WHITE,True,CORRECT,1.0374513999995543,1037.4513999995543
3,20260325_121052,D,J,False,CALIBRATION,1,3,3,staircase,,,0.18309171918972933,0.17055102040816328,0.00963265306122449,0.03853061224489797,0.31690828081027067,1141,2459,0,,WHITE,,,0,,WHITE,True,CORRECT,1.2739550000005693,1273.9550000005693
3,20260325_121052,D,J,False,CALIBRATION,1,4,4,staircase,,,0.17222029973659184,0.16110204081632654,0.009448979591836736,0.03779591836734695,0.6722202997365918,2420,1180,0,,BLACK,,,0,,BLACK,True,CORRECT,0.870556600000782,870.556600000782
3,20260325_121052,D,J,False,CALIBRATION,1,5,5,staircase,,,0.15819148913303765,0.15183673469387757,0.009265306122448979,0.03706122448979592,0.6581914891330376,2369,1231,0,,BLACK,,,0,,BLACK,True,CORRECT,1.13386040000114,1133.86040000114
3,20260325_121052,D,J,False,CALIBRATION,1,6,6,staircase,,,0.15171039128698774,0.14275510204081635,0.009081632653061224,0.0363265306122449,0.6517103912869877,2346,1254,0,,BLACK,,,0,,BLACK,True,CORRECT,1.2122096000002784,1212.2096000002784
3,20260325_121052,D,J,False,CALIBRATION,1,7,7,staircase,,,0.15457976891212852,0.13385714285714287,0.00889795918367347,0.035591836734693884,0.6545797689121285,2356,1244,0,,BLACK,,,0,,BLACK,True,CORRECT,0.9806588999999803,980.6588999999803
3,20260325_121052,D,J,False,CALIBRATION,1,8,8,staircase,,,0.13140921614021606,0.12514285714285717,0.008714285714285714,0.034857142857142864,0.36859078385978394,1327,2273,0,,WHITE,,,0,,WHITE,True,CORRECT,0.7651187000010395,765.1187000010395
3,20260325_121052,D,J,False,CALIBRATION,1,9,9,staircase,,,0.13087562569011846,0.11661224489795921,0.00853061224489796,0.034122448979591845,0.6308756256901185,2271,1329,0,,BLACK,,,0,,BLACK,True,CORRECT,0.6801983000004839,680.1983000004839
3,20260325_121052,D,J,False,CALIBRATION,1,10,10,staircase,,,0.0970989552417842,0.108265306122449,0.008346938775510205,0.033387755102040825,0.5970989552417842,2150,1450,0,,BLACK,,,0,,BLACK,True,CORRECT,1.1003897999999026,1100.3897999999026
3,20260325_121052,D,J,False,CALIBRATION,1,11,11,staircase,,,0.11634006331246924,0.10010204081632655,0.00816326530612245,0.032653061224489806,0.6163400633124693,2219,1381,0,,BLACK,,,0,,BLACK,True,CORRECT,0.6023019999993267,602.3019999993267
3,20260325_121052,D,J,False,CALIBRATION,1,12,12,staircase,,,0.11315473180776427,0.09212244897959186,0.007979591836734693,0.03191836734693878,0.6131547318077643,2207,1393,0,,BLACK,,,0,,BLACK,True,CORRECT,0.5602536999995209,560.2536999995209
3,20260325_121052,D,J,False,CALIBRATION,1,13,13,staircase,,,0.0858500541618516,0.08432653061224492,0.007795918367346938,0.03118367346938776,0.5858500541618517,2109,1491,0,,BLACK,,,0,,BLACK,True,CORRECT,0.8162671000009141,816.2671000009141
3,20260325_121052,D,J,False,CALIBRATION,1,14,14,staircase,,,0.09875317198992652,0.07671428571428573,0.007612244897959183,0.03044897959183674,0.4012468280100735,1444,2156,0,,WHITE,,,0,,WHITE,True,CORRECT,0.6889227000010578,688.9227000010578
3,20260325_121052,D,J,False,CALIBRATION,1,15,15,staircase,,,0.08681774827574093,0.06928571428571431,0.0074285714285714285,0.02971428571428572,0.586817748275741,2113,1487,0,,BLACK,,,0,,BLACK,True,CORRECT,0.6319215000003169,631.9215000003169
3,20260325_121052,D,J,False,CALIBRATION,1,16,16,staircase,,,0.0738600107191829,0.062040816326530634,0.007244897959183674,0.0289795918367347,0.5738600107191829,2066,1534,0,,BLACK,,,0,,BLACK,True,CORRECT,0.6544409000016458,654.4409000016458
3,20260325_121052,D,J,False,CALIBRATION,1,17,17,staircase,,,0.054610549243345505,0.05497959183673472,0.007061224489795919,0.028244897959183682,0.5546105492433455,1997,1603,0,,BLACK,,,0,,BLACK,True,CORRECT,2.0791372999992745,2079.1372999992745
3,20260325_121052,D,J,False,CALIBRATION,1,18,18,staircase,,,0.057256116355452094,0.048102040816326554,0.006877551020408163,0.02751020408163266,0.5572561163554521,2006,1594,0,,BLACK,,,0,,BLACK,True,CORRECT,0.7127949000005174,712.7949000005174
3,20260325_121052,D,J,False,CALIBRATION,1,19,19,staircase,,,0.05224404560549398,0.04140816326530615,0.006693877551020407,0.026775510204081636,0.447755954394506,1612,1988,0,,WHITE,,,0,,WHITE,True,CORRECT,1.1134531000006973,1113.4531000006973
3,20260325_121052,D,J,False,CALIBRATION,1,20,20,staircase,,,0.042999167849154585,0.0348979591836735,0.006510204081632652,0.026040816326530616,0.5429991678491546,1955,1645,0,,BLACK,,,0,,BLACK,True,CORRECT,2.626729899999191,2626.729899999191
3,20260325_121052,D,J,False,CALIBRATION,1,21,21,staircase,,,0.03829756021273988,0.028571428571428602,0.0063265306122448975,0.025306122448979597,0.4617024397872601,1662,1938,0,,WHITE,,,0,,WHITE,True,CORRECT,1.5059700999991037,1505.9700999991037
3,20260325_121052,D,J,False,CALIBRATION,1,22,22,staircase,,,0.034009000144084096,0.022428571428571457,0.006142857142857143,0.024571428571428577,0.5340090001440841,1922,1678,0,,BLACK,,,0,,BLACK,True,CORRECT,4.478981799999019,4478.981799999019
3,20260325_121052,D,J,False,CALIBRATION,1,23,23,staircase,,,0.023184703129616853,0.01646938775510207,0.005959183673469388,0.023836734693877558,0.47681529687038315,1717,1883,0,,WHITE,,,0,,WHITE,True,CORRECT,1.380518600000869,1380.518600000869
3,20260325_121052,D,J,False,CALIBRATION,1,24,24,staircase,,,0.023200951649345925,0.039571428571428605,0.005775510204081632,0.02310204081632653,0.5232009516493459,1884,1716,0,,BLACK,,,0,,WHITE,False,INCORRECT,2.0721589000004315,2072.1589000004315
3,20260325_121052,D,J,False,CALIBRATION,1,25,25,staircase,,,0.02525324100951977,0.03397959183673473,0.005591836734693877,0.022367346938775512,0.5252532410095198,1891,1709,0,,BLACK,,,0,,BLACK,True,CORRECT,2.3501550999990286,2350.1550999990286
3,20260325_121052,D,J,False,CALIBRATION,1,26,26,staircase,,,0.03189535157106723,0.028571428571428605,0.005408163265306122,0.021632653061224492,0.4681046484289328,1685,1915,0,,WHITE,,,0,,WHITE,True,CORRECT,1.5420257999994647,1542.0257999994647
3,20260325_121052,D,J,False,CALIBRATION,1,27,27,staircase,,,0.02595745280356182,0.049469387755102075,0.0052244897959183665,0.02089795918367347,0.4740425471964382,1707,1893,0,,WHITE,,,0,,BLACK,False,INCORRECT,3.1733440999996674,3173.3440999996674
3,20260325_121052,D,J,False,CALIBRATION,1,28,28,staircase,,,0.03423595196237582,0.04442857142857146,0.0050408163265306125,0.020163265306122453,0.46576404803762417,1677,1923,0,,WHITE,,,0,,WHITE,True,CORRECT,1.519841200000883,1519.841200000883
3,20260325_121052,D,J,False,CALIBRATION,1,29,29,staircase,,,0.04171849495347355,0.039571428571428605,0.004857142857142857,0.01942857142857143,0.4582815050465264,1650,1950,0,,WHITE,,,0,,WHITE,True,CORRECT,0.8255681000009645,825.5681000009645
3,20260325_121052,D,J,False,CALIBRATION,1,30,30,staircase,,,0.03841514634688591,0.0348979591836735,0.004673469387755102,0.01869387755102041,0.5384151463468859,1938,1662,0,,BLACK,,,0,,BLACK,True,CORRECT,0.8134331999990536,813.4331999990536
3,20260325_121052,D,J,False,CALIBRATION,1,31,31,staircase,,,0.02714203876243674,0.030408163265306154,0.004489795918367346,0.017959183673469388,0.5271420387624367,1898,1702,0,,BLACK,,,0,,BLACK,True,CORRECT,0.7266239000000496,726.6239000000496
3,20260325_121052,D,J,False,CALIBRATION,1,32,32,staircase,,,0.014356700078158986,0.04763265306122452,0.004306122448979591,0.01722448979591837,0.485643299921841,1748,1852,0,,WHITE,,,0,,BLACK,False,INCORRECT,1.8859813999988546,1885.9813999988546
3,20260325_121052,D,J,False,CALIBRATION,1,33,33,staircase,,,0.05976164027510779,0.043510204081632683,0.004122448979591836,0.01648979591836735,0.4402383597248922,1585,2015,0,,WHITE,,,0,,WHITE,True,CORRECT,1.40061390000119,1400.61390000119
3,20260325_121052,D,J,False,CALIBRATION,1,34,34,staircase,,,0.04931889228690776,0.039571428571428605,0.0039387755102040815,0.01575510204081633,0.5493188922869078,1978,1622,0,,BLACK,,,0,,BLACK,True,CORRECT,1.0966262999991159,1096.6262999991159
3,20260325_121052,D,J,False,CALIBRATION,1,35,35,staircase,,,0.04374605921610166,0.03581632653061228,0.0037551020408163258,0.015020408163265307,0.45625394078389836,1643,1957,0,,WHITE,,,0,,WHITE,True,CORRECT,1.0198084000003291,1019.8084000003291
3,20260325_121052,D,J,False,CALIBRATION,1,36,36,staircase,,,0.04945541858229543,0.032244897959183706,0.003571428571428571,0.014285714285714287,0.5494554185822954,1978,1622,0,,BLACK,,,0,,BLACK,True,CORRECT,0.8062702000006539,806.2702000006539
3,20260325_121052,D,J,False,CALIBRATION,1,37,37,staircase,,,0.051022338932428524,0.02885714285714289,0.003387755102040815,0.013551020408163264,0.5510223389324285,1984,1616,0,,BLACK,,,0,,BLACK,True,CORRECT,0.7693687999999383,769.3687999999383
3,20260325_121052,D,J,False,CALIBRATION,1,38,38,staircase,,,0.04004276731449103,0.025653061224489827,0.003204081632653061,0.012816326530612248,0.5400427673144911,1944,1656,0,,BLACK,,,0,,BLACK,True,CORRECT,2.7126805999996577,2712.6805999996577
3,20260325_121052,D,J,False,CALIBRATION,1,39,39,staircase,,,0.05023344668857636,0.03773469387755105,0.0030204081632653054,0.012081632653061225,0.4497665533114236,1619,1981,0,,WHITE,,,0,,BLACK,False,INCORRECT,1.8946305999998003,1894.6305999998003
3,20260325_121052,D,J,False,CALIBRATION,1,40,40,staircase,,,0.032792131476630446,0.0348979591836735,0.0028367346938775505,0.011346938775510204,0.5327921314766304,1918,1682,0,,BLACK,,,0,,BLACK,True,CORRECT,1.1770448999996006,1177.0448999996006
3,20260325_121052,D,J,False,CALIBRATION,1,41,41,staircase,,,0.026730216580023607,0.032244897959183706,0.0026530612244897948,0.01061224489795918,0.4732697834199764,1704,1896,0,,WHITE,,,0,,WHITE,True,CORRECT,1.3974415000011504,1397.4415000011504
3,20260325_121052,D,J,False,CALIBRATION,1,42,42,staircase,,,0.024035611272463814,0.029775510204081666,0.00246938775510204,0.009877551020408161,0.5240356112724638,1887,1713,0,,BLACK,,,0,,BLACK,True,CORRECT,0.8776149000004807,877.6149000004807
3,20260325_121052,D,J,False,CALIBRATION,1,43,43,staircase,,,0.02892063625035508,0.02748979591836738,0.002285714285714285,0.009142857142857142,0.47107936374964493,1696,1904,0,,WHITE,,,0,,WHITE,True,CORRECT,1.3446794999999838,1344.6794999999838
3,20260325_121052,D,J,False,CALIBRATION,1,44,44,staircase,,,0.023818586551460956,0.02538775510204085,0.00210204081632653,0.008408163265306122,0.523818586551461,1886,1714,0,,BLACK,,,0,,BLACK,True,CORRECT,1.7362982999984524,1736.2982999984524
3,20260325_121052,D,J,False,CALIBRATION,1,45,45,staircase,,,0.027629415066588527,0.023469387755102072,0.0019183673469387753,0.007673469387755103,0.5276294150665886,1899,1701,0,,BLACK,,,0,,BLACK,True,CORRECT,0.6302085000006628,630.2085000006628
3,20260325_121052,D,J,False,CALIBRATION,1,46,46,staircase,,,0.024192244352671574,0.021734693877551052,0.0017346938775510187,0.006938775510204076,0.5241922443526715,1887,1713,0,,BLACK,,,0,,BLACK,True,CORRECT,1.116832699999577,1116.832699999577
3,20260325_121052,D,J,False,CALIBRATION,1,47,47,staircase,,,0.01575769024105228,0.020183673469387788,0.0015510204081632638,0.006204081632653057,0.5157576902410523,1857,1743,0,,BLACK,,,0,,BLACK,True,CORRECT,1.5877704000013182,1587.7704000013182
3,20260325_121052,D,J,False,CALIBRATION,1,48,48,staircase,,,0.01641042621181503,0.02565306122448983,0.0013673469387755106,0.005469387755102043,0.48358957378818496,1741,1859,0,,WHITE,,,0,,BLACK,False,INCORRECT,2.058371299999635,2058.371299999635
3,20260325_121052,D,J,False,CALIBRATION,1,49,49,staircase,,,0.03857468203293144,0.024469387755102077,0.001183673469387754,0.004734693877551017,0.5385746820329315,1939,1661,0,,BLACK,,,0,,BLACK,True,CORRECT,1.6631863999991765,1663.1863999991765
3,20260325_121052,D,J,False,CALIBRATION,1,50,50,staircase,,,0.023714271060130875,0.028469387755102077,0.001,0.004000000000000001,0.5237142710601309,1885,1715,0,,BLACK,,,0,,WHITE,False,INCORRECT,2.454566899999918,2454.566899999918
3,20260325_121052,D,J,False,CALIBRATION,1,51,51,staircase,,,0.02381041235085488,0.027469387755102076,0.001,0.004000000000000001,0.4761895876491451,1714,1886,0,,WHITE,,,0,,WHITE,True,CORRECT,2.548324800000046,2548.324800000046
3,20260325_121052,D,J,False,CALIBRATION,1,52,52,staircase,,,0.030564836773427955,0.026469387755102075,0.001,0.004000000000000001,0.5305648367734279,1910,1690,0,,BLACK,,,0,,BLACK,True,CORRECT,0.6803806000007171,680.3806000007171
3,20260325_121052,D,J,False,CALIBRATION,1,53,53,staircase,,,0.020598008212696663,0.025469387755102074,0.001,0.004000000000000001,0.5205980082126966,1874,1726,0,,BLACK,,,0,,BLACK,True,CORRECT,1.1805916000012076,1180.5916000012076
3,20260325_121052,D,J,False,CALIBRATION,1,54,54,staircase,,,0.04124610609643428,0.024469387755102073,0.001,0.004000000000000001,0.5412461060964343,1948,1652,0,,BLACK,,,0,,BLACK,True,CORRECT,0.6070350999998482,607.0350999998482
3,20260325_121052,D,J,False,CALIBRATION,1,55,55,staircase,,,0.028420196457233326,0.023469387755102072,0.001,0.004000000000000001,0.5284201964572334,1902,1698,0,,BLACK,,,0,,BLACK,True,CORRECT,0.5899650999999722,589.9650999999722
3,20260325_121052,D,J,False,CALIBRATION,1,56,56,staircase,,,0.012657890714385915,0.02246938775510207,0.001,0.004000000000000001,0.5126578907143859,1846,1754,0,,BLACK,,,0,,BLACK,True,CORRECT,0.5301137999995262,530.1137999995262
3,20260325_121052,D,J,False,CALIBRATION,1,57,57,staircase,,,0.020847314375659034,0.02646938775510207,0.001,0.004000000000000001,0.479152685624341,1725,1875,0,,WHITE,,,0,,BLACK,False,INCORRECT,0.7024519999995391,702.4519999995391
3,20260325_121052,D,J,False,CALIBRATION,1,58,58,staircase,,,0.03497721179241127,0.03046938775510207,0.001,0.004000000000000001,0.5349772117924113,1926,1674,0,,BLACK,,,0,,WHITE,False,INCORRECT,1.4166824000003544,1416.6824000003544
3,20260325_121052,D,J,False,CALIBRATION,1,59,59,staircase,,,0.01675630573567698,0.034469387755102075,0.001,0.004000000000000001,0.516756305735677,1860,1740,0,,BLACK,,,0,,WHITE,False,INCORRECT,1.351006500000949,1351.006500000949
3,20260325_121052,D,J,False,CALIBRATION,1,60,60,staircase,,,0.0341436325896857,0.033469387755102074,0.001,0.004000000000000001,0.5341436325896857,1923,1677,0,,BLACK,,,0,,BLACK,True,CORRECT,0.7755201999989367,775.5201999989367
3,20260325_121052,D,J,False,CALIBRATION,1,61,61,staircase,,,0.0031223880350581823,0.032469387755102073,0.001,0.004000000000000001,0.5031223880350582,1811,1789,0,,BLACK,,,0,,BLACK,True,CORRECT,0.8893720000014582,889.3720000014582
3,20260325_121052,D,J,False,CALIBRATION,1,62,62,staircase,,,0.04864481253498202,0.03146938775510207,0.001,0.004000000000000001,0.548644812534982,1975,1625,0,,BLACK,,,0,,BLACK,True,CORRECT,0.7027159999997821,702.7159999997821
3,20260325_121052,D,J,False,CALIBRATION,1,63,63,staircase,,,0.017618611493092642,0.035469387755102076,0.001,0.004000000000000001,0.48238138850690737,1737,1863,0,,WHITE,,,0,,BLACK,False,INCORRECT,0.793869299999642,793.869299999642
3,20260325_121052,D,J,False,CALIBRATION,1,64,64,staircase,,,0.024175696471328292,0.034469387755102075,0.001,0.004000000000000001,0.4758243035286717,1713,1887,0,,WHITE,,,0,,WHITE,True,CORRECT,1.815098000000944,1815.098000000944
3,20260325_121052,D,J,False,CALIBRATION,1,65,65,staircase,,,0.035163205702906916,0.033469387755102074,0.001,0.004000000000000001,0.46483679429709307,1673,1927,0,,WHITE,,,0,,WHITE,True,CORRECT,1.889889399999447,1889.889399999447
3,20260325_121052,D,J,False,CALIBRATION,1,66,66,staircase,,,0.0375302168744505,0.03746938775510208,0.001,0.004000000000000001,0.4624697831255495,1665,1935,0,,WHITE,,,0,,BLACK,False,INCORRECT,1.8643563000005088,1864.3563000005088
3,20260325_121052,D,J,False,CALIBRATION,1,67,67,staircase,,,0.03807266379558633,0.03646938775510208,0.001,0.004000000000000001,0.4619273362044137,1663,1937,0,,WHITE,,,0,,WHITE,True,CORRECT,1.1870526000002428,1187.0526000002428
3,20260325_121052,D,J,False,CALIBRATION,1,68,68,staircase,,,0.031846245248022265,0.035469387755102076,0.001,0.004000000000000001,0.5318462452480223,1915,1685,0,,BLACK,,,0,,BLACK,True,CORRECT,0.9110522999999375,911.0522999999375
3,20260325_121052,D,J,False,CALIBRATION,1,69,69,staircase,,,0.03466934950054497,0.03946938775510208,0.001,0.004000000000000001,0.46533065049945505,1675,1925,0,,WHITE,,,0,,BLACK,False,INCORRECT,0.7767005999994581,776.7005999994581
3,20260325_121052,D,J,False,CALIBRATION,1,70,70,staircase,,,0.02320630518034994,0.03846938775510208,0.001,0.004000000000000001,0.47679369481965006,1716,1884,0,,WHITE,,,0,,WHITE,True,CORRECT,0.7487428000004002,748.7428000004002
3,20260325_121052,D,J,False,CALIBRATION,1,71,71,staircase,,,0.0568510775936531,0.03746938775510208,0.001,0.004000000000000001,0.4431489224063469,1595,2005,0,,WHITE,,,0,,WHITE,True,CORRECT,0.9990081999985705,999.0081999985705
3,20260325_121052,D,J,False,CALIBRATION,1,72,72,staircase,,,0.04022309975861796,0.03646938775510208,0.001,0.004000000000000001,0.5402230997586179,1945,1655,0,,BLACK,,,0,,BLACK,True,CORRECT,1.5733080000009068,1573.3080000009068
3,20260325_121052,D,J,False,CALIBRATION,1,73,73,staircase,,,0.038627558680110294,0.035469387755102076,0.001,0.004000000000000001,0.4613724413198897,1661,1939,0,,WHITE,,,0,,WHITE,True,CORRECT,1.7261726000015187,1726.1726000015187
3,20260325_121052,D,J,False,CALIBRATION,1,74,74,staircase,,,0.031744802112770906,0.034469387755102075,0.001,0.004000000000000001,0.4682551978872291,1686,1914,0,,WHITE,,,0,,WHITE,True,CORRECT,3.7373246000006475,3737.3246000006475
3,20260325_121052,D,J,False,CALIBRATION,1,75,75,staircase,,,0.04539521703441359,0.033469387755102074,0.001,0.004000000000000001,0.5453952170344136,1963,1637,0,,BLACK,,,0,,BLACK,True,CORRECT,2.664625800000067,2664.625800000067
3,20260325_121052,D,J,False,CALIBRATION,1,76,76,staircase,,,0.03108612009685736,0.03746938775510208,0.001,0.004000000000000001,0.5310861200968574,1912,1688,0,,BLACK,,,0,,WHITE,False,INCORRECT,2.2661944999999832,2266.1944999999832
3,20260325_121052,D,J,False,CALIBRATION,1,77,77,staircase,,,0.053271356777671586,0.03646938775510208,0.001,0.004000000000000001,0.4467286432223284,1608,1992,0,,WHITE,,,0,,WHITE,True,CORRECT,1.9996048000011797,1999.6048000011797
3,20260325_121052,D,J,False,CALIBRATION,1,78,78,staircase,,,0.04366355368317367,0.035469387755102076,0.001,0.004000000000000001,0.5436635536831737,1957,1643,0,,BLACK,,,0,,BLACK,True,CORRECT,1.20937000000049,1209.37000000049
3,20260325_121052,D,J,False,CALIBRATION,1,79,79,staircase,,,0.04143579315490568,0.034469387755102075,0.001,0.004000000000000001,0.5414357931549056,1949,1651,0,,BLACK,,,0,,BLACK,True,CORRECT,0.8836621999998897,883.6621999998897
3,20260325_121052,D,J,False,CALIBRATION,1,80,80,staircase,,,0.05051520679938236,0.033469387755102074,0.001,0.004000000000000001,0.4494847932006176,1618,1982,0,,WHITE,,,0,,WHITE,True,CORRECT,0.9735669000001508,973.5669000001508
3,20260325_121052,D,J,False,CALIBRATION,1,81,81,staircase,,,0.02101393956755017,0.032469387755102073,0.001,0.004000000000000001,0.47898606043244984,1724,1876,0,,WHITE,,,0,,WHITE,True,CORRECT,1.2006973999996262,1200.6973999996262
3,20260325_121052,D,J,False,CALIBRATION,1,82,82,staircase,,,0.03259095530291134,0.03146938775510207,0.001,0.004000000000000001,0.46740904469708866,1683,1917,0,,WHITE,,,0,,WHITE,True,CORRECT,2.9470414999996137,2947.0414999996137
3,20260325_121052,D,J,False,CALIBRATION,1,83,83,staircase,,,0.039249555435393435,0.03046938775510207,0.001,0.004000000000000001,0.5392495554353934,1941,1659,0,,BLACK,,,0,,BLACK,True,CORRECT,1.8763706000008824,1876.3706000008824
3,20260325_121052,D,J,False,CALIBRATION,1,84,84,staircase,,,0.022866078767902,0.02946938775510207,0.001,0.004000000000000001,0.522866078767902,1882,1718,0,,BLACK,,,0,,BLACK,True,CORRECT,1.0528549000009662,1052.8549000009662
3,20260325_121052,D,J,False,CALIBRATION,1,85,85,staircase,,,0.0308647616739638,0.02846938775510207,0.001,0.004000000000000001,0.4691352383260362,1689,1911,0,,WHITE,,,0,,WHITE,True,CORRECT,1.3710028000004968,1371.0028000004968
3,20260325_121052,D,J,False,CALIBRATION,1,86,86,staircase,,,0.027229586016425868,0.032469387755102073,0.001,0.004000000000000001,0.5272295860164259,1898,1702,0,,BLACK,,,0,,WHITE,False,INCORRECT,1.0995960000000196,1099.5960000000196
3,20260325_121052,D,J,False,CALIBRATION,1,87,87,staircase,,,0.0501094714468546,0.03146938775510207,0.001,0.004000000000000001,0.4498905285531454,1620,1980,0,,WHITE,,,0,,WHITE,True,CORRECT,2.3577356999994663,2357.7356999994663
3,20260325_121052,D,J,False,CALIBRATION,1,88,88,staircase,,,0.04031991302663261,0.03046938775510207,0.001,0.004000000000000001,0.5403199130266326,1945,1655,0,,BLACK,,,0,,BLACK,True,CORRECT,1.032296100000167,1032.296100000167
3,20260325_121052,D,J,False,CALIBRATION,1,89,89,staircase,,,0.032004206512909895,0.034469387755102075,0.001,0.004000000000000001,0.4679957934870901,1685,1915,0,,WHITE,,,0,,BLACK,False,INCORRECT,1.1806728999999905,1180.6728999999905
3,20260325_121052,D,J,False,CALIBRATION,1,90,90,staircase,,,0.031366903256608916,0.033469387755102074,0.001,0.004000000000000001,0.531366903256609,1913,1687,0,,BLACK,,,0,,BLACK,True,CORRECT,0.7748153000011371,774.8153000011371
3,20260325_121052,D,J,False,CALIBRATION,1,91,91,staircase,,,0.01739850981984148,0.032469387755102073,0.001,0.004000000000000001,0.4826014901801585,1737,1863,0,,WHITE,,,0,,WHITE,True,CORRECT,1.089047199999186,1089.047199999186
3,20260325_121052,D,J,False,CALIBRATION,1,92,92,staircase,,,0.030555833318869276,0.03146938775510207,0.001,0.004000000000000001,0.4694441666811307,1690,1910,0,,WHITE,,,0,,WHITE,True,CORRECT,0.9549184999996214,954.9184999996214
3,20260325_121052,D,J,False,CALIBRATION,1,93,93,staircase,,,0.045057662715540514,0.03046938775510207,0.001,0.004000000000000001,0.5450576627155406,1962,1638,0,,BLACK,,,0,,BLACK,True,CORRECT,1.569719900000564,1569.719900000564
3,20260325_121052,D,J,False,CALIBRATION,1,94,94,staircase,,,0.020002935930567713,0.02946938775510207,0.001,0.004000000000000001,0.47999706406943227,1728,1872,0,,WHITE,,,0,,WHITE,True,CORRECT,1.1119601000009425,1111.9601000009425
3,20260325_121052,D,J,False,CALIBRATION,1,95,95,staircase,,,0.02656823450923884,0.02846938775510207,0.001,0.004000000000000001,0.47343176549076116,1704,1896,0,,WHITE,,,0,,WHITE,True,CORRECT,1.210347999998703,1210.347999998703
3,20260325_121052,D,J,False,CALIBRATION,1,96,96,staircase,,,0.024470602840832977,0.02746938775510207,0.001,0.004000000000000001,0.47552939715916703,1712,1888,0,,WHITE,,,0,,WHITE,True,CORRECT,1.1624695999998949,1162.4695999998949
3,20260325_121052,D,J,False,CALIBRATION,1,97,97,staircase,,,0.03785048595072519,0.026469387755102068,0.001,0.004000000000000001,0.5378504859507252,1936,1664,0,,BLACK,,,0,,BLACK,True,CORRECT,0.7316119000006438,731.6119000006438
3,20260325_121052,D,J,False,CALIBRATION,1,98,98,staircase,,,0.020424110514504493,0.030469387755102068,0.001,0.004000000000000001,0.4795758894854955,1726,1874,0,,WHITE,,,0,,BLACK,False,INCORRECT,2.3552403999983653,2355.2403999983653
3,20260325_121052,D,J,False,CALIBRATION,1,99,99,staircase,,,0.023739170371698575,0.029469387755102067,0.001,0.004000000000000001,0.5237391703716986,1885,1715,0,,BLACK,,,0,,BLACK,True,CORRECT,1.1865533000000141,1186.5533000000141
3,20260325_121052,D,J,False,CALIBRATION,1,100,100,staircase,,,0.019597607417916482,0.028469387755102066,0.001,0.004000000000000001,0.5195976074179165,1871,1729,0,,BLACK,,,0,,BLACK,True,CORRECT,2.961645100000169,2961.645100000169
3,20260325_121052,D,J,False,CALIBRATION,1,101,101,staircase,,,0.02389448636216064,0.027469387755102066,0.001,0.004000000000000001,0.4761055136378394,1714,1886,0,,WHITE,,,0,,WHITE,True,CORRECT,1.1803420999985974,1180.3420999985974
3,20260325_121052,D,J,False,CALIBRATION,1,102,102,staircase,,,0.042112125062074734,0.026469387755102065,0.001,0.004000000000000001,0.45788787493792527,1648,1952,0,,WHITE,,,0,,WHITE,True,CORRECT,1.1018787000011798,1101.8787000011798
3,20260325_121052,D,J,False,CALIBRATION,1,103,103,staircase,,,0.015313853281809993,0.025469387755102064,0.001,0.004000000000000001,0.51531385328181,1855,1745,0,,BLACK,,,0,,BLACK,True,CORRECT,1.0968489999995654,1096.8489999995654
3,20260325_121052,D,J,False,CALIBRATION,1,104,104,staircase,,,0.03565604579538431,0.024469387755102063,0.001,0.004000000000000001,0.5356560457953843,1928,1672,0,,BLACK,,,0,,BLACK,True,CORRECT,1.4117153999995935,1411.7153999995935
3,20260325_121052,D,J,False,CALIBRATION,1,105,105,staircase,,,0.02854913933065887,0.023469387755102062,0.001,0.004000000000000001,0.5285491393306588,1903,1697,0,,BLACK,,,0,,BLACK,True,CORRECT,0.8049358000007487,804.9358000007487
3,20260325_121052,D,J,False,CALIBRATION,1,106,106,staircase,,,0.020799583050214777,0.02246938775510206,0.001,0.004000000000000001,0.4792004169497852,1725,1875,0,,WHITE,,,0,,WHITE,True,CORRECT,0.887558700000227,887.558700000227
3,20260325_121052,D,J,False,CALIBRATION,1,107,107,staircase,,,0.027294856757111092,0.02146938775510206,0.001,0.004000000000000001,0.4727051432428889,1702,1898,0,,WHITE,,,0,,WHITE,True,CORRECT,0.9351698999998916,935.1698999998916
3,20260325_121052,D,J,False,CALIBRATION,1,108,108,staircase,,,0.03302320548849648,0.02546938775510206,0.001,0.004000000000000001,0.5330232054884965,1919,1681,0,,BLACK,,,0,,WHITE,False,INCORRECT,1.7657032999995863,1765.7032999995863
3,20260325_121052,D,J,False,CALIBRATION,1,109,109,staircase,,,0.01594270780130612,0.02446938775510206,0.001,0.004000000000000001,0.48405729219869387,1743,1857,0,,WHITE,,,0,,WHITE,True,CORRECT,1.850987100000566,1850.987100000566
3,20260325_121052,D,J,False,CALIBRATION,1,110,110,staircase,,,0.008299722087522516,0.02346938775510206,0.001,0.004000000000000001,0.4917002779124775,1770,1830,0,,WHITE,,,0,,WHITE,True,CORRECT,1.3331589000008535,1333.1589000008535
3,20260325_121052,D,J,False,CALIBRATION,1,111,111,staircase,,,0.0042299140989256676,0.022469387755102058,0.001,0.004000000000000001,0.5042299140989257,1815,1785,0,,BLACK,,,0,,BLACK,True,CORRECT,2.7090673000002425,2709.0673000002425
3,20260325_121052,D,J,False,CALIBRATION,1,112,112,staircase,,,0.040735154013278166,0.021469387755102057,0.001,0.004000000000000001,0.5407351540132782,1947,1653,0,,BLACK,,,0,,BLACK,True,CORRECT,1.8531505999999354,1853.1505999999354
3,20260325_121052,D,J,False,CALIBRATION,1,113,113,staircase,,,0.01573536704431071,0.020469387755102056,0.001,0.004000000000000001,0.5157353670443107,1857,1743,0,,BLACK,,,0,,BLACK,True,CORRECT,1.250433900000644,1250.433900000644
3,20260325_121052,D,J,False,CALIBRATION,1,114,114,staircase,,,0.032621529115741586,0.019469387755102055,0.001,0.004000000000000001,0.46737847088425843,1683,1917,0,,WHITE,,,0,,WHITE,True,CORRECT,1.203846500000509,1203.846500000509
3,20260325_121052,D,J,False,CALIBRATION,1,115,115,staircase,,,0.004602344521754237,0.023469387755102055,0.001,0.004000000000000001,0.49539765547824577,1783,1817,0,,WHITE,,,0,,BLACK,False,INCORRECT,3.2238133999999263,3223.8133999999263
3,20260325_121052,D,J,False,CALIBRATION,1,116,116,staircase,,,0.03149525998227716,0.022469387755102054,0.001,0.004000000000000001,0.46850474001772285,1687,1913,0,,WHITE,,,0,,WHITE,True,CORRECT,0.7695481999999174,769.5481999999174
3,20260325_121052,D,J,False,CALIBRATION,1,117,117,staircase,,,0.03365654955814468,0.021469387755102053,0.001,0.004000000000000001,0.4663434504418553,1679,1921,0,,WHITE,,,0,,WHITE,True,CORRECT,0.6869857000001502,686.9857000001502
3,20260325_121052,D,J,False,CALIBRATION,1,118,118,staircase,,,0.03493535963035414,0.020469387755102052,0.001,0.004000000000000001,0.46506464036964584,1674,1926,0,,WHITE,,,0,,WHITE,True,CORRECT,1.0529898999993748,1052.9898999993748
3,20260325_121052,D,J,False,CALIBRATION,1,119,119,staircase,,,0.011452966142939293,0.01946938775510205,0.001,0.004000000000000001,0.5114529661429393,1841,1759,0,,BLACK,,,0,,BLACK,True,CORRECT,2.416056900001422,2416.056900001422
3,20260325_121052,D,J,False,CALIBRATION,1,120,120,staircase,,,0.013438391018013134,0.02346938775510205,0.001,0.004000000000000001,0.5134383910180131,1848,1752,0,,BLACK,,,0,,WHITE,False,INCORRECT,1.2823399000008067,1282.3399000008067
3,20260325_121052,D,J,False,CALIBRATION,1,121,121,staircase,,,0.005979477834805801,0.02246938775510205,0.001,0.004000000000000001,0.4940205221651942,1778,1822,0,,WHITE,,,0,,WHITE,True,CORRECT,0.9461738000009063,946.1738000009063
3,20260325_121052,D,J,False,CALIBRATION,1,122,122,staircase,,,0.028623720577331938,0.02646938775510205,0.001,0.004000000000000001,0.4713762794226681,1697,1903,0,,WHITE,,,0,,BLACK,False,INCORRECT,1.7493060000015248,1749.3060000015248
3,20260325_121052,D,J,False,CALIBRATION,1,123,123,staircase,,,0.01766656249505888,0.03046938775510205,0.001,0.004000000000000001,0.5176665624950589,1864,1736,0,,BLACK,,,0,,WHITE,False,INCORRECT,1.2271461000000272,1227.1461000000272
3,20260325_121052,D,J,False,CALIBRATION,1,124,124,staircase,,,0.03728214268465575,0.02946938775510205,0.001,0.004000000000000001,0.46271785731534426,1666,1934,0,,WHITE,,,0,,WHITE,True,CORRECT,1.3734960000001593,1373.4960000001593
3,20260325_121052,D,J,False,CALIBRATION,1,125,125,staircase,,,0.027549929490157884,0.02846938775510205,0.001,0.004000000000000001,0.4724500705098421,1701,1899,0,,WHITE,,,0,,WHITE,True,CORRECT,2.550568299999213,2550.568299999213
3,20260325_121052,D,J,False,CALIBRATION,1,126,126,staircase,,,0.028151483751050217,0.027469387755102048,0.001,0.004000000000000001,0.4718485162489498,1699,1901,0,,WHITE,,,0,,WHITE,True,CORRECT,0.897916099998838,897.916099998838
3,20260325_121052,D,J,False,CALIBRATION,1,127,127,staircase,,,0.03654415196290929,0.026469387755102047,0.001,0.004000000000000001,0.4634558480370907,1668,1932,0,,WHITE,,,0,,WHITE,True,CORRECT,0.6316968999999517,631.6968999999517
3,20260325_121052,D,J,False,CALIBRATION,1,128,128,staircase,,,0.030472724245624798,0.030469387755102047,0.001,0.004000000000000001,0.5304727242456247,1910,1690,0,,BLACK,,,0,,WHITE,False,INCORRECT,0.9478027000004658,947.8027000004658
3,20260325_121052,D,J,False,CALIBRATION,1,129,129,staircase,,,0.040075814930284386,0.029469387755102047,0.001,0.004000000000000001,0.5400758149302843,1944,1656,0,,BLACK,,,0,,BLACK,True,CORRECT,3.064513799999986,3064.513799999986
3,20260325_121052,D,J,False,CALIBRATION,1,130,130,staircase,,,0.008886136682141589,0.028469387755102046,0.001,0.004000000000000001,0.4911138633178584,1768,1832,0,,WHITE,,,0,,WHITE,True,CORRECT,1.3205508000010013,1320.5508000010013
3,20260325_121052,D,J,False,CALIBRATION,1,131,131,staircase,,,0.00910023072925226,0.027469387755102045,0.001,0.004000000000000001,0.49089976927074774,1767,1833,0,,WHITE,,,0,,WHITE,True,CORRECT,1.2675889000001916,1267.5889000001916
3,20260325_121052,D,J,False,CALIBRATION,1,132,132,staircase,,,0.023520386915494216,0.026469387755102044,0.001,0.004000000000000001,0.47647961308450576,1715,1885,0,,WHITE,,,0,,WHITE,True,CORRECT,0.9389348999993672,938.9348999993672
3,20260325_121052,D,J,False,CALIBRATION,1,133,133,staircase,,,0.018881454024646825,0.030469387755102044,0.001,0.004000000000000001,0.5188814540246468,1868,1732,0,,BLACK,,,0,,WHITE,False,INCORRECT,0.8378458000006503,837.8458000006503
3,20260325_121052,D,J,False,CALIBRATION,1,134,134,staircase,,,0.0322577437108218,0.029469387755102043,0.001,0.004000000000000001,0.4677422562891782,1684,1916,0,,WHITE,,,0,,WHITE,True,CORRECT,0.7129457999999431,712.9457999999431
3,20260325_121052,D,J,False,CALIBRATION,1,135,135,staircase,,,0.043384325455023576,0.028469387755102042,0.001,0.004000000000000001,0.5433843254550236,1956,1644,0,,BLACK,,,0,,BLACK,True,CORRECT,1.2077892999986943,1207.7892999986943
3,20260325_121052,D,J,False,CALIBRATION,1,136,136,staircase,,,0.033323755449344274,0.02746938775510204,0.001,0.004000000000000001,0.5333237554493443,1920,1680,0,,BLACK,,,0,,BLACK,True,CORRECT,1.3571214999992662,1357.1214999992662
3,20260325_121052,D,J,False,CALIBRATION,1,137,137,staircase,,,0.044934387084880525,0.02646938775510204,0.001,0.004000000000000001,0.4550656129151195,1638,1962,0,,WHITE,,,0,,WHITE,True,CORRECT,1.1434172000008402,1143.4172000008402
3,20260325_121052,D,J,False,CALIBRATION,1,138,138,staircase,,,0.016130855968766948,0.03046938775510204,0.001,0.004000000000000001,0.516130855968767,1858,1742,0,,BLACK,,,0,,WHITE,False,INCORRECT,2.407589200000075,2407.589200000075
3,20260325_121052,D,J,False,CALIBRATION,1,139,139,staircase,,,0.02764409126739533,0.02946938775510204,0.001,0.004000000000000001,0.4723559087326047,1700,1900,0,,WHITE,,,0,,WHITE,True,CORRECT,3.5280868000008923,3528.0868000008923
3,20260325_121052,D,J,False,CALIBRATION,1,140,140,staircase,,,0.03706035364683165,0.02846938775510204,0.001,0.004000000000000001,0.5370603536468317,1933,1667,0,,BLACK,,,0,,BLACK,True,CORRECT,1.0970077000001766,1097.0077000001766
3,20260325_121052,D,J,False,CALIBRATION,1,141,141,staircase,,,0.02046156784076744,0.027469387755102038,0.001,0.004000000000000001,0.5204615678407675,1874,1726,0,,BLACK,,,0,,BLACK,True,CORRECT,2.74799350000103,2747.99350000103
3,20260325_121052,D,J,False,CALIBRATION,1,142,142,staircase,,,0.02464323266272154,0.026469387755102037,0.001,0.004000000000000001,0.47535676733727844,1711,1889,0,,WHITE,,,0,,WHITE,True,CORRECT,1.3118852999996307,1311.8852999996307
3,20260325_121052,D,J,False,CALIBRATION,1,143,143,staircase,,,0.034008337109440054,0.025469387755102036,0.001,0.004000000000000001,0.5340083371094401,1922,1678,0,,BLACK,,,0,,BLACK,True,CORRECT,2.001568200001202,2001.568200001202
3,20260325_121052,D,J,False,CALIBRATION,1,144,144,staircase,,,0.017184396389205943,0.024469387755102035,0.001,0.004000000000000001,0.48281560361079406,1738,1862,0,,WHITE,,,0,,WHITE,True,CORRECT,0.9032568000002357,903.2568000002357
3,20260325_121052,D,J,False,CALIBRATION,1,145,145,staircase,,,0.03738401093668077,0.023469387755102034,0.001,0.004000000000000001,0.46261598906331924,1665,1935,0,,WHITE,,,0,,WHITE,True,CORRECT,1.2913758000013331,1291.3758000013331
3,20260325_121052,D,J,False,CALIBRATION,1,146,146,staircase,,,0.029384605805749774,0.022469387755102033,0.001,0.004000000000000001,0.47061539419425025,1694,1906,0,,WHITE,,,0,,WHITE,True,CORRECT,1.4958795999991708,1495.8795999991708
3,20260325_121052,D,J,False,CALIBRATION,1,147,147,staircase,,,0.0002777777777777778,0.021469387755102032,0.001,0.004000000000000001,0.5002777777777778,1801,1799,0,,BLACK,,,0,,BLACK,True,CORRECT,3.6298611000001983,3629.8611000001983
3,20260325_121052,D,J,False,CALIBRATION,1,148,148,staircase,,,0.016575443741139135,0.025469387755102033,0.001,0.004000000000000001,0.4834245562588609,1740,1860,0,,WHITE,,,0,,BLACK,False,INCORRECT,3.4178069999998115,3417.8069999998115
3,20260325_121052,D,J,False,CALIBRATION,1,149,149,staircase,,,0.01919384489147011,0.02446938775510203,0.001,0.004000000000000001,0.5191938448914701,1869,1731,0,,BLACK,,,0,,BLACK,True,CORRECT,1.7555125999988377,1755.5125999988377
3,20260325_121052,D,J,False,CALIBRATION,1,150,150,staircase,,,0.03254721504938546,0.02346938775510203,0.001,0.004000000000000001,0.46745278495061454,1683,1917,0,,WHITE,,,0,,WHITE,True,CORRECT,1.0114318000014464,1011.4318000014464
3,20260325_121052,D,J,False,CALIBRATION,1,151,151,staircase,,,0.00966841710214282,0.02246938775510203,0.001,0.004000000000000001,0.49033158289785717,1765,1835,0,,WHITE,,,0,,WHITE,True,CORRECT,2.8604734000000462,2860.4734000000462
3,20260325_121052,D,J,False,CALIBRATION,1,152,152,staircase,,,0.04198505296651815,0.02146938775510203,0.001,0.004000000000000001,0.5419850529665181,1951,1649,0,,BLACK,,,0,,BLACK,True,CORRECT,2.237373899999511,2237.373899999511
3,20260325_121052,D,J,False,CALIBRATION,1,153,153,staircase,,,0.025251525351092124,0.020469387755102028,0.001,0.004000000000000001,0.5252515253510921,1891,1709,0,,BLACK,,,0,,BLACK,True,CORRECT,3.4964497000000847,3496.4497000000847
3,20260325_121052,D,J,False,CALIBRATION,1,154,154,staircase,,,0.015847652409942636,0.019469387755102027,0.001,0.004000000000000001,0.5158476524099427,1857,1743,0,,BLACK,,,0,,BLACK,True,CORRECT,2.3076012000001356,2307.6012000001356
3,20260325_121052,D,J,False,CALIBRATION,1,155,155,staircase,,,0.017701445513504104,0.023469387755102027,0.001,0.004000000000000001,0.517701445513504,1864,1736,0,,BLACK,,,0,,WHITE,False,INCORRECT,1.256129299999884,1256.129299999884
3,20260325_121052,D,J,False,CALIBRATION,1,156,156,staircase,,,0.017661840706793528,0.022469387755102026,0.001,0.004000000000000001,0.5176618407067936,1864,1736,0,,BLACK,,,0,,BLACK,True,CORRECT,2.458821000000171,2458.821000000171
3,20260325_121052,D,J,False,CALIBRATION,1,157,157,staircase,,,0.018806794838841477,0.021469387755102026,0.001,0.004000000000000001,0.5188067948388415,1868,1732,0,,BLACK,,,0,,BLACK,True,CORRECT,3.9762894000014057,3976.2894000014057
3,20260325_121052,D,J,False,CALIBRATION,1,158,158,staircase,,,0.02726156815947991,0.020469387755102025,0.001,0.004000000000000001,0.5272615681594799,1898,1702,0,,BLACK,,,0,,BLACK,True,CORRECT,2.46373979999953,2463.73979999953
3,20260325_121052,D,J,False,CALIBRATION,1,159,159,staircase,,,0.008657480960291635,0.019469387755102024,0.001,0.004000000000000001,0.5086574809602916,1831,1769,0,,BLACK,,,0,,BLACK,True,CORRECT,1.09754840000096,1097.54840000096
3,20260325_121052,D,J,False,CALIBRATION,1,160,160,staircase,,,0.02153415064322251,0.018469387755102023,0.001,0.004000000000000001,0.4784658493567775,1722,1878,0,,WHITE,,,0,,WHITE,True,CORRECT,0.6760892000002059,676.0892000002059
3,20260325_121052,D,J,False,CALIBRATION,1,161,161,staircase,,,0.010412965431762952,0.017469387755102022,0.001,0.004000000000000001,0.48958703456823705,1763,1837,0,,WHITE,,,0,,WHITE,True,CORRECT,0.6948419000000285,694.8419000000285
3,20260325_121052,D,J,False,CALIBRATION,1,162,162,staircase,,,0.02350220125305536,0.01646938775510202,0.001,0.004000000000000001,0.47649779874694465,1715,1885,0,,WHITE,,,0,,WHITE,True,CORRECT,0.8287004999983765,828.7004999983765
3,20260325_121052,D,J,False,CALIBRATION,1,163,163,staircase,,,0.003740243587170773,0.02046938775510202,0.001,0.004000000000000001,0.5037402435871707,1813,1787,0,,BLACK,,,0,,WHITE,False,INCORRECT,0.7322932999995828,732.2932999995828
3,20260325_121052,D,J,False,CALIBRATION,1,164,164,staircase,,,0.025399597628532618,0.01946938775510202,0.001,0.004000000000000001,0.4746004023714674,1709,1891,0,,WHITE,,,0,,WHITE,True,CORRECT,0.8618738999994093,861.8738999994093
3,20260325_121052,D,J,False,CALIBRATION,1,165,165,staircase,,,0.015017644507647233,0.01846938775510202,0.001,0.004000000000000001,0.48498235549235275,1746,1854,0,,WHITE,,,0,,WHITE,True,CORRECT,0.8772587999992538,877.2587999992538
3,20260325_121052,D,J,False,CALIBRATION,1,166,166,staircase,,,0.02291035123900395,0.01746938775510202,0.001,0.004000000000000001,0.477089648760996,1718,1882,0,,WHITE,,,0,,WHITE,True,CORRECT,0.578946999999971,578.946999999971
3,20260325_121052,D,J,False,CALIBRATION,1,167,167,staircase,,,0.014967663556946476,0.02146938775510202,0.001,0.004000000000000001,0.5149676635569465,1854,1746,0,,BLACK,,,0,,WHITE,False,INCORRECT,0.6437232000007498,643.7232000007498
3,20260325_121052,D,J,False,CALIBRATION,1,168,168,staircase,,,0.03788445512133169,0.020469387755102018,0.001,0.004000000000000001,0.4621155448786683,1664,1936,0,,WHITE,,,0,,WHITE,True,CORRECT,1.52988170000026,1529.88170000026
3,20260325_121052,D,J,False,CALIBRATION,1,169,169,staircase,,,0.019805492732127318,0.024469387755102018,0.001,0.004000000000000001,0.5198054927321273,1871,1729,0,,BLACK,,,0,,WHITE,False,INCORRECT,1.6651371999996627,1665.1371999996627
3,20260325_121052,D,J,False,CALIBRATION,1,170,170,staircase,,,0.03022273353157954,0.023469387755102017,0.001,0.004000000000000001,0.5302227335315796,1909,1691,0,,BLACK,,,0,,BLACK,True,CORRECT,0.6822049000002153,682.2049000002153
3,20260325_121052,D,J,False,CALIBRATION,1,171,171,staircase,,,0.023959773790635814,0.022469387755102016,0.001,0.004000000000000001,0.4760402262093642,1714,1886,0,,WHITE,,,0,,WHITE,True,CORRECT,0.7333489000011468,733.3489000011468
3,20260325_121052,D,J,False,CALIBRATION,1,172,172,staircase,,,0.051215572080524796,0.021469387755102015,0.001,0.004000000000000001,0.4487844279194752,1616,1984,0,,WHITE,,,0,,WHITE,True,CORRECT,0.9584712999985641,958.4712999985641
3,20260325_121052,D,J,False,CALIBRATION,1,173,173,staircase,,,0.010741927277841776,0.020469387755102014,0.001,0.004000000000000001,0.4892580727221582,1761,1839,0,,WHITE,,,0,,WHITE,True,CORRECT,1.7803541000012046,1780.3541000012046
3,20260325_121052,D,J,False,CALIBRATION,1,174,174,staircase,,,0.024932421064850264,0.019469387755102013,0.001,0.004000000000000001,0.4750675789351497,1710,1890,0,,WHITE,,,0,,WHITE,True,CORRECT,1.1104942000001756,1110.4942000001756
3,20260325_121052,D,J,False,CALIBRATION,1,175,175,staircase,,,0.03236371664922689,0.018469387755102012,0.001,0.004000000000000001,0.4676362833507731,1683,1917,0,,WHITE,,,0,,WHITE,True,CORRECT,1.0727862999992794,1072.7862999992794
3,20260325_121052,D,J,False,CALIBRATION,1,176,176,staircase,,,0.019622813570569237,0.022469387755102013,0.001,0.004000000000000001,0.5196228135705693,1871,1729,0,,BLACK,,,0,,WHITE,False,INCORRECT,1.8506307000006927,1850.6307000006927
3,20260325_121052,D,J,False,CALIBRATION,1,177,177,staircase,,,0.03953722857797132,0.02146938775510201,0.001,0.004000000000000001,0.5395372285779714,1942,1658,0,,BLACK,,,0,,BLACK,True,CORRECT,1.4605001999989327,1460.5001999989327
3,20260325_121052,D,J,False,CALIBRATION,1,178,178,staircase,,,0.03464032811238553,0.02046938775510201,0.001,0.004000000000000001,0.46535967188761446,1675,1925,0,,WHITE,,,0,,WHITE,True,CORRECT,1.0016617000001133,1001.6617000001133
3,20260325_121052,D,J,False,CALIBRATION,1,179,179,staircase,,,0.0122416556663316,0.01946938775510201,0.001,0.004000000000000001,0.4877583443336684,1756,1844,0,,WHITE,,,0,,WHITE,True,CORRECT,3.638538499999413,3638.538499999413
3,20260325_121052,D,J,False,CALIBRATION,1,180,180,staircase,,,0.012906233520161382,0.02346938775510201,0.001,0.004000000000000001,0.5129062335201614,1846,1754,0,,BLACK,,,0,,WHITE,False,INCORRECT,1.146129299999302,1146.129299999302
3,20260325_121052,D,J,False,CALIBRATION,1,181,181,staircase,,,0.02777516220674802,0.02246938775510201,0.001,0.004000000000000001,0.527775162206748,1900,1700,0,,BLACK,,,0,,BLACK,True,CORRECT,1.4682525000007445,1468.2525000007445
3,20260325_121052,D,J,False,CALIBRATION,1,182,182,staircase,,,0.012693445738316317,0.021469387755102008,0.001,0.004000000000000001,0.4873065542616837,1754,1846,0,,WHITE,,,0,,WHITE,True,CORRECT,4.884267499999623,4884.267499999623
3,20260325_121052,D,J,False,CALIBRATION,1,183,183,staircase,,,0.016792537883794152,0.020469387755102007,0.001,0.004000000000000001,0.48320746211620585,1740,1860,0,,WHITE,,,0,,WHITE,True,CORRECT,2.1735338999988016,2173.5338999988016
3,20260325_121052,D,J,False,CALIBRATION,1,184,184,staircase,,,0.012362193705207072,0.024469387755102007,0.001,0.004000000000000001,0.5123621937052071,1845,1755,0,,BLACK,,,0,,WHITE,False,INCORRECT,1.3489996000007523,1348.9996000007523
3,20260325_121052,D,J,False,CALIBRATION,1,185,185,staircase,,,0.02548385863723726,0.028469387755102007,0.001,0.004000000000000001,0.5254838586372372,1892,1708,0,,BLACK,,,0,,WHITE,False,INCORRECT,1.8683829000001424,1868.3829000001424
3,20260325_121052,D,J,False,CALIBRATION,1,186,186,staircase,,,0.026318904438293357,0.03246938775510201,0.001,0.004000000000000001,0.4736810955617066,1705,1895,0,,WHITE,,,0,,BLACK,False,INCORRECT,3.443573099999412,3443.573099999412
3,20260325_121052,D,J,False,CALIBRATION,1,187,187,staircase,,,0.021758388219497125,0.03146938775510201,0.001,0.004000000000000001,0.5217583882194972,1878,1722,0,,BLACK,,,0,,BLACK,True,CORRECT,1.5852888999997958,1585.2888999997958
3,20260325_121052,D,J,False,CALIBRATION,1,188,188,staircase,,,0.04095341592424525,0.03046938775510201,0.001,0.004000000000000001,0.5409534159242453,1947,1653,0,,BLACK,,,0,,BLACK,True,CORRECT,0.9733673999999155,973.3673999999155
3,20260325_121052,D,J,False,CALIBRATION,1,189,189,staircase,,,0.003287112037437371,0.02946938775510201,0.001,0.004000000000000001,0.49671288796256263,1788,1812,0,,WHITE,,,0,,WHITE,True,CORRECT,4.361219500000516,4361.219500000516
3,20260325_121052,D,J,False,CALIBRATION,1,190,190,staircase,,,0.039188045808248806,0.028469387755102007,0.001,0.004000000000000001,0.4608119541917512,1659,1941,0,,WHITE,,,0,,WHITE,True,CORRECT,1.2030878999994457,1203.0878999994457
3,20260325_121052,D,J,False,CALIBRATION,1,191,191,staircase,,,0.04291660891797604,0.03246938775510201,0.001,0.004000000000000001,0.45708339108202395,1646,1954,0,,WHITE,,,0,,BLACK,False,INCORRECT,2.9981207000000722,2998.1207000000722
3,20260325_121052,D,J,False,CALIBRATION,1,192,192,staircase,,,0.055134093438366026,0.03146938775510201,0.001,0.004000000000000001,0.444865906561634,1602,1998,0,,WHITE,,,0,,WHITE,True,CORRECT,0.6298238999988826,629.8238999988826
3,20260325_121052,D,J,False,CALIBRATION,1,193,193,staircase,,,0.04776285365494291,0.03046938775510201,0.001,0.004000000000000001,0.4522371463450571,1628,1972,0,,WHITE,,,0,,WHITE,True,CORRECT,0.5335420999999769,533.5420999999769
3,20260325_121052,D,J,False,CALIBRATION,1,194,194,staircase,,,0.021606268203049055,0.03446938775510201,0.001,0.004000000000000001,0.521606268203049,1878,1722,0,,BLACK,,,0,,WHITE,False,INCORRECT,1.8709552999989683,1870.9552999989683
3,20260325_121052,D,J,False,CALIBRATION,1,195,195,staircase,,,0.03152109522726229,0.03346938775510201,0.001,0.004000000000000001,0.5315210952272623,1913,1687,0,,BLACK,,,0,,BLACK,True,CORRECT,2.8404963000011776,2840.4963000011776
3,20260325_121052,D,J,False,CALIBRATION,1,196,196,staircase,,,0.03523490924355675,0.03246938775510201,0.001,0.004000000000000001,0.5352349092435568,1927,1673,0,,BLACK,,,0,,BLACK,True,CORRECT,3.1083589999998367,3108.3589999998367
3,20260325_121052,D,J,False,CALIBRATION,1,197,197,staircase,,,0.01618867513337525,0.03146938775510201,0.001,0.004000000000000001,0.5161886751333753,1858,1742,0,,BLACK,,,0,,BLACK,True,CORRECT,2.498283700000684,2498.283700000684
3,20260325_121052,D,J,False,CALIBRATION,1,198,198,staircase,,,0.024781131890894467,0.035469387755102014,0.001,0.004000000000000001,0.4752188681091055,1711,1889,0,,WHITE,,,0,,BLACK,False,INCORRECT,1.6059456999992108,1605.9456999992108
3,20260325_121052,D,J,False,CALIBRATION,1,199,199,staircase,,,0.02883741986971007,0.03946938775510202,0.001,0.004000000000000001,0.47116258013028994,1696,1904,0,,WHITE,,,0,,BLACK,False,INCORRECT,3.225110199999108,3225.110199999108
3,20260325_121052,D,J,False,CALIBRATION,1,200,200,staircase,,,0.04483433866822986,0.04346938775510202,0.001,0.004000000000000001,0.5448343386682298,1961,1639,0,,BLACK,,,0,,WHITE,False,INCORRECT,1.6465571000007913,1646.5571000007913
3,20260325_121052,D,J,False,CALIBRATION,1,201,201,staircase,,,0.03543979669056479,0.04246938775510202,0.001,0.004000000000000001,0.5354397966905647,1928,1672,0,,BLACK,,,0,,BLACK,True,CORRECT,2.914129100001446,2914.129100001446
3,20260325_121052,D,J,False,CALIBRATION,1,202,202,staircase,,,0.04003276004418795,0.04146938775510202,0.001,0.004000000000000001,0.540032760044188,1944,1656,0,,BLACK,,,0,,BLACK,True,CORRECT,1.0806632999992871,1080.6632999992871
3,20260325_121052,D,J,False,CALIBRATION,1,203,203,staircase,,,0.048115054811166444,0.04046938775510202,0.001,0.004000000000000001,0.45188494518883354,1627,1973,0,,WHITE,,,0,,WHITE,True,CORRECT,1.8729549999989104,1872.9549999989104
3,20260325_121052,D,J,False,CALIBRATION,1,204,204,staircase,,,0.032632962783768094,0.04446938775510202,0.001,0.004000000000000001,0.4673670372162319,1683,1917,0,,WHITE,,,0,,BLACK,False,INCORRECT,1.3949319000003015,1394.9319000003015
3,20260325_121052,D,J,False,CALIBRATION,1,205,205,staircase,,,0.056352742202970596,0.048469387755102025,0.001,0.004000000000000001,0.4436472577970294,1597,2003,0,,WHITE,,,0,,BLACK,False,INCORRECT,4.244824699999299,4244.824699999299
3,20260325_121052,D,J,False,CALIBRATION,1,206,206,staircase,,,0.05691839553934575,0.05246938775510203,0.001,0.004000000000000001,0.44308160446065425,1595,2005,0,,WHITE,,,0,,BLACK,False,INCORRECT,1.253336700001455,1253.336700001455
3,20260325_121052,D,J,False,CALIBRATION,1,207,207,staircase,,,0.055985306732554724,0.05146938775510203,0.001,0.004000000000000001,0.5559853067325548,2002,1598,0,,BLACK,,,0,,BLACK,True,CORRECT,2.584959900001195,2584.959900001195
3,20260325_121052,D,J,False,CALIBRATION,1,208,208,staircase,,,0.04841630820261693,0.05046938775510203,0.001,0.004000000000000001,0.5484163082026169,1974,1626,0,,BLACK,,,0,,BLACK,True,CORRECT,1.061038900001222,1061.038900001222
3,20260325_121052,D,J,False,CALIBRATION,1,209,209,staircase,,,0.05575028071244297,0.049469387755102026,0.001,0.004000000000000001,0.444249719287557,1599,2001,0,,WHITE,,,0,,WHITE,True,CORRECT,2.6599834999997256,2659.9834999997256
3,20260325_121052,D,J,False,CALIBRATION,1,210,210,staircase,,,0.06507015399794733,0.048469387755102025,0.001,0.004000000000000001,0.43492984600205264,1566,2034,0,,WHITE,,,0,,WHITE,True,CORRECT,1.828663599999345,1828.663599999345
3,20260325_121052,D,J,False,CALIBRATION,1,211,211,staircase,,,0.03915039740366695,0.047469387755102024,0.001,0.004000000000000001,0.46084960259633306,1659,1941,0,,WHITE,,,0,,WHITE,True,CORRECT,1.9962579999992158,1996.2579999992158
3,20260325_121052,D,J,False,CALIBRATION,1,212,212,staircase,,,0.039254587763006145,0.04646938775510202,0.001,0.004000000000000001,0.5392545877630062,1941,1659,0,,BLACK,,,0,,BLACK,True,CORRECT,4.171162799999365,4171.162799999365
3,20260325_121052,D,J,False,CALIBRATION,1,213,213,staircase,,,0.05193858586542825,0.04546938775510202,0.001,0.004000000000000001,0.44806141413457173,1613,1987,0,,WHITE,,,0,,WHITE,True,CORRECT,1.496378600000753,1496.378600000753
3,20260325_121052,D,J,False,CALIBRATION,1,214,214,staircase,,,0.04608237637609095,0.04446938775510202,0.001,0.004000000000000001,0.45391762362390903,1634,1966,0,,WHITE,,,0,,WHITE,True,CORRECT,2.375639099998807,2375.639099998807
3,20260325_121052,D,J,False,CALIBRATION,1,215,215,staircase,,,0.06286743742531531,0.04346938775510202,0.001,0.004000000000000001,0.5628674374253153,2026,1574,0,,BLACK,,,0,,BLACK,True,CORRECT,3.9665334000001167,3966.5334000001167
3,20260325_121052,D,J,False,CALIBRATION,1,216,216,staircase,,,0.03887001528571448,0.04246938775510202,0.001,0.004000000000000001,0.4611299847142855,1660,1940,0,,WHITE,,,0,,WHITE,True,CORRECT,4.205272100000002,4205.272100000002
3,20260325_121052,D,J,False,CALIBRATION,1,217,217,staircase,,,0.042521334607866564,0.04146938775510202,0.001,0.004000000000000001,0.5425213346078666,1953,1647,0,,BLACK,,,0,,BLACK,True,CORRECT,1.325704399998358,1325.704399998358
3,20260325_121052,D,J,False,CALIBRATION,1,218,218,staircase,,,0.06346603802205555,0.04046938775510202,0.001,0.004000000000000001,0.4365339619779445,1572,2028,0,,WHITE,,,0,,WHITE,True,CORRECT,1.3019916000012017,1301.9916000012017
3,20260325_121052,D,J,False,CALIBRATION,1,219,219,staircase,,,0.05052221594570907,0.03946938775510202,0.001,0.004000000000000001,0.550522215945709,1982,1618,0,,BLACK,,,0,,BLACK,True,CORRECT,0.8432028999995964,843.2028999995964
3,20260325_121052,D,J,False,CALIBRATION,1,220,220,staircase,,,0.04914841386153071,0.038469387755102016,0.001,0.004000000000000001,0.5491484138615307,1977,1623,0,,BLACK,,,0,,BLACK,True,CORRECT,1.4337550000000192,1433.7550000000192
3,20260325_121052,D,J,False,CALIBRATION,1,221,221,staircase,,,0.03788258671359548,0.037469387755102015,0.001,0.004000000000000001,0.5378825867135955,1936,1664,0,,BLACK,,,0,,BLACK,True,CORRECT,0.7661351999995532,766.1351999995532
3,20260325_121052,D,J,False,CALIBRATION,1,222,222,staircase,,,0.04340735937779283,0.036469387755102015,0.001,0.004000000000000001,0.5434073593777928,1956,1644,0,,BLACK,,,0,,BLACK,True,CORRECT,2.3287167999988014,2328.7167999988014
3,20260325_121052,D,J,False,CALIBRATION,1,223,223,staircase,,,0.030773701775769515,0.035469387755102014,0.001,0.004000000000000001,0.4692262982242305,1689,1911,0,,WHITE,,,0,,WHITE,True,CORRECT,3.266847900000357,3266.847900000357
3,20260325_121052,D,J,False,CALIBRATION,1,224,224,staircase,,,0.045077937735507966,0.03446938775510201,0.001,0.004000000000000001,0.545077937735508,1962,1638,0,,BLACK,,,0,,BLACK,True,CORRECT,1.0730884000004153,1073.0884000004153
3,20260325_121052,D,J,False,CALIBRATION,1,225,225,staircase,,,0.047136210459205456,0.03346938775510201,0.001,0.004000000000000001,0.45286378954079454,1630,1970,0,,WHITE,,,0,,WHITE,True,CORRECT,2.5728438000005553,2572.8438000005553
3,20260325_121052,D,J,False,CALIBRATION,1,226,226,staircase,,,0.04166014215570804,0.03246938775510201,0.001,0.004000000000000001,0.541660142155708,1950,1650,0,,BLACK,,,0,,BLACK,True,CORRECT,1.0814602999998897,1081.4602999998897
3,20260325_121052,D,J,False,CALIBRATION,1,227,227,staircase,,,0.046042391365357774,0.036469387755102015,0.001,0.004000000000000001,0.5460423913653578,1966,1634,0,,BLACK,,,0,,WHITE,False,INCORRECT,3.01926690000073,3019.26690000073
3,20260325_121052,D,J,False,CALIBRATION,1,228,228,staircase,,,0.03214392954941702,0.04046938775510202,0.001,0.004000000000000001,0.532143929549417,1916,1684,0,,BLACK,,,0,,WHITE,False,INCORRECT,1.9407864999993762,1940.7864999993762
3,20260325_121052,D,J,False,CALIBRATION,1,229,229,staircase,,,0.03721539973696697,0.04446938775510202,0.001,0.004000000000000001,0.537215399736967,1934,1666,0,,BLACK,,,0,,WHITE,False,INCORRECT,5.1560976000000664,5156.097600000066
3,20260325_121052,D,J,False,CALIBRATION,1,230,230,staircase,,,0.0373693630174534,0.04346938775510202,0.001,0.004000000000000001,0.5373693630174534,1935,1665,0,,BLACK,,,0,,BLACK,True,CORRECT,1.8047831999992923,1804.7831999992923
3,20260325_121052,D,J,False,CALIBRATION,1,231,231,staircase,,,0.048444099508847746,0.04246938775510202,0.001,0.004000000000000001,0.45155590049115224,1626,1974,0,,WHITE,,,0,,WHITE,True,CORRECT,0.9708437999997841,970.8437999997841
3,20260325_121052,D,J,False,CALIBRATION,1,232,232,staircase,,,0.043872438085017694,0.04146938775510202,0.001,0.004000000000000001,0.5438724380850177,1958,1642,0,,BLACK,,,0,,BLACK,True,CORRECT,0.8300990999996429,830.0990999996429
3,20260325_121052,D,J,False,CALIBRATION,1,233,233,staircase,,,0.03449332248860994,0.04046938775510202,0.001,0.004000000000000001,0.5344933224886099,1924,1676,0,,BLACK,,,0,,BLACK,True,CORRECT,0.7921528000006219,792.1528000006219
3,20260325_121052,D,J,False,CALIBRATION,1,234,234,staircase,,,0.04508803975326932,0.03946938775510202,0.001,0.004000000000000001,0.5450880397532694,1962,1638,0,,BLACK,,,0,,BLACK,True,CORRECT,1.4079027000007045,1407.9027000007045
3,20260325_121052,D,J,False,CALIBRATION,1,235,235,staircase,,,0.04128083364972274,0.038469387755102016,0.001,0.004000000000000001,0.45871916635027726,1651,1949,0,,WHITE,,,0,,WHITE,True,CORRECT,1.1680441999997129,1168.0441999997129
3,20260325_121052,D,J,False,CALIBRATION,1,236,236,staircase,,,0.049020043985679745,0.037469387755102015,0.001,0.004000000000000001,0.5490200439856797,1976,1624,0,,BLACK,,,0,,BLACK,True,CORRECT,0.7652145000010933,765.2145000010933
3,20260325_121052,D,J,False,CALIBRATION,1,237,237,staircase,,,0.024296837408498445,0.04146938775510202,0.001,0.004000000000000001,0.4757031625915016,1713,1887,0,,WHITE,,,0,,BLACK,False,INCORRECT,2.2310424000006606,2231.0424000006606
3,20260325_121052,D,J,False,CALIBRATION,1,238,238,staircase,,,0.05019521606621242,0.04046938775510202,0.001,0.004000000000000001,0.4498047839337876,1619,1981,0,,WHITE,,,0,,WHITE,True,CORRECT,0.946952299998884,946.952299998884
3,20260325_121052,D,J,False,CALIBRATION,1,239,239,staircase,,,0.059027234699386685,0.03946938775510202,0.001,0.004000000000000001,0.5590272346993866,2012,1588,0,,BLACK,,,0,,BLACK,True,CORRECT,0.7370577000001504,737.0577000001504
3,20260325_121052,D,J,False,CALIBRATION,1,240,240,staircase,,,0.03766268733968551,0.038469387755102016,0.001,0.004000000000000001,0.46233731266031447,1664,1936,0,,WHITE,,,0,,WHITE,True,CORRECT,2.733094000001074,2733.094000001074
3,20260325_121052,D,J,False,CALIBRATION,1,241,241,staircase,,,0.06480776035407418,0.037469387755102015,0.001,0.004000000000000001,0.5648077603540742,2033,1567,0,,BLACK,,,0,,BLACK,True,CORRECT,0.8323980999994092,832.3980999994092
3,20260325_121052,D,J,False,CALIBRATION,1,242,242,staircase,,,0.05517531426149476,0.036469387755102015,0.001,0.004000000000000001,0.5551753142614948,1999,1601,0,,BLACK,,,0,,BLACK,True,CORRECT,1.3166388999998162,1316.6388999998162
3,20260325_121052,D,J,False,CALIBRATION,1,243,243,staircase,,,0.05053359374613654,0.035469387755102014,0.001,0.004000000000000001,0.44946640625386347,1618,1982,0,,WHITE,,,0,,WHITE,True,CORRECT,2.3519200999999157,2351.9200999999157
3,20260325_121052,D,J,False,CALIBRATION,1,244,244,staircase,,,0.04005637620387162,0.03446938775510201,0.001,0.004000000000000001,0.5400563762038716,1944,1656,0,,BLACK,,,0,,BLACK,True,CORRECT,0.5911178000005748,591.1178000005748
3,20260325_121052,D,J,False,CALIBRATION,1,245,245,staircase,,,0.03667642996607034,0.03346938775510201,0.001,0.004000000000000001,0.46332357003392965,1668,1932,0,,WHITE,,,0,,WHITE,True,CORRECT,1.7123288000002503,1712.3288000002503
3,20260325_121052,D,J,False,CALIBRATION,1,246,246,staircase,,,0.020418581639345842,0.03246938775510201,0.001,0.004000000000000001,0.47958141836065415,1726,1874,0,,WHITE,,,0,,WHITE,True,CORRECT,2.331175899998925,2331.175899998925
3,20260325_121052,D,J,False,CALIBRATION,1,247,247,staircase,,,0.02270332144331065,0.03146938775510201,0.001,0.004000000000000001,0.47729667855668934,1718,1882,0,,WHITE,,,0,,WHITE,True,CORRECT,2.8703258000005007,2870.3258000005007
3,20260325_121052,D,J,False,CALIBRATION,1,248,248,staircase,,,0.023675412349780014,0.035469387755102014,0.001,0.004000000000000001,0.52367541234978,1885,1715,0,,BLACK,,,0,,WHITE,False,INCORRECT,4.701267600001302,4701.267600001302
3,20260325_121052,D,J,False,CALIBRATION,1,249,249,staircase,,,0.03183029821415337,0.03446938775510201,0.001,0.004000000000000001,0.4681697017858466,1685,1915,0,,WHITE,,,0,,WHITE,True,CORRECT,2.8470054999997956,2847.0054999997956
3,20260325_121052,D,J,False,CALIBRATION,1,250,250,staircase,,,0.03364332934891729,0.03346938775510201,0.001,0.004000000000000001,0.4663566706510827,1679,1921,0,,WHITE,,,0,,WHITE,True,CORRECT,5.5575222999996186,5557.522299999619
3,20260325_121052,D,J,False,CALIBRATION,1,251,251,staircase,,,0.03859023401604438,0.03246938775510201,0.001,0.004000000000000001,0.5385902340160443,1939,1661,0,,BLACK,,,0,,BLACK,True,CORRECT,0.9600673999993887,960.0673999993887
3,20260325_121052,D,J,False,CALIBRATION,1,252,252,staircase,,,0.02292656423451528,0.036469387755102015,0.001,0.004000000000000001,0.4770734357654847,1717,1883,0,,WHITE,,,0,,BLACK,False,INCORRECT,3.0957620999997744,3095.7620999997744
3,20260325_121052,D,J,False,CALIBRATION,1,253,253,staircase,,,0.04199984223434312,0.035469387755102014,0.001,0.004000000000000001,0.4580001577656569,1649,1951,0,,WHITE,,,0,,WHITE,True,CORRECT,2.917429999999513,2917.429999999513
3,20260325_121052,D,J,False,CALIBRATION,1,254,254,staircase,,,0.042132467698210205,0.03446938775510201,0.001,0.004000000000000001,0.5421324676982102,1952,1648,0,,BLACK,,,0,,BLACK,True,CORRECT,0.8998397000013938,899.8397000013938
3,20260325_121052,D,J,False,CALIBRATION,1,255,255,staircase,,,0.048964410056024865,0.03346938775510201,0.001,0.004000000000000001,0.5489644100560249,1976,1624,0,,BLACK,,,0,,BLACK,True,CORRECT,0.7266328999994585,726.6328999994585
3,20260325_121052,D,J,False,CALIBRATION,1,256,256,staircase,,,0.03529879465385244,0.037469387755102015,0.001,0.004000000000000001,0.46470120534614756,1673,1927,0,,WHITE,,,0,,BLACK,False,INCORRECT,1.405078700001468,1405.078700001468
3,20260325_121052,D,J,False,CALIBRATION,1,257,257,staircase,,,0.052983189977782924,0.036469387755102015,0.001,0.004000000000000001,0.552983189977783,1991,1609,0,,BLACK,,,0,,BLACK,True,CORRECT,0.6580915000013192,658.0915000013192
3,20260325_121052,D,J,False,CALIBRATION,1,258,258,staircase,,,0.0480095356612886,0.035469387755102014,0.001,0.004000000000000001,0.5480095356612886,1973,1627,0,,BLACK,,,0,,BLACK,True,CORRECT,0.9345874999999069,934.5874999999069
3,20260325_121052,D,J,False,CALIBRATION,1,259,259,staircase,,,0.05416452072422366,0.03446938775510201,0.001,0.004000000000000001,0.4458354792757763,1605,1995,0,,WHITE,,,0,,WHITE,True,CORRECT,0.6839280999993207,683.9280999993207
3,20260325_121052,D,J,False,CALIBRATION,1,260,260,staircase,,,0.03510701315568384,0.03346938775510201,0.001,0.004000000000000001,0.5351070131556839,1926,1674,0,,BLACK,,,0,,BLACK,True,CORRECT,0.7670584999996208,767.0584999996208
3,20260325_121052,D,J,False,CALIBRATION,1,261,261,staircase,,,0.028297771084500576,0.03246938775510201,0.001,0.004000000000000001,0.4717022289154994,1698,1902,0,,WHITE,,,0,,WHITE,True,CORRECT,0.8786878999999317,878.6878999999317
3,20260325_121052,D,J,False,CALIBRATION,1,262,262,staircase,,,0.030002118764814865,0.03146938775510201,0.001,0.004000000000000001,0.46999788123518516,1692,1908,0,,WHITE,,,0,,WHITE,True,CORRECT,0.7242286999990029,724.2286999990029
3,20260325_121052,D,J,False,CALIBRATION,1,263,263,staircase,,,0.011346567864792413,0.03046938775510201,0.001,0.004000000000000001,0.5113465678647924,1841,1759,0,,BLACK,,,0,,BLACK,True,CORRECT,0.9855117999995855,985.5117999995855
3,20260325_121052,D,J,False,CALIBRATION,1,264,264,staircase,,,0.03966496606887859,0.02946938775510201,0.001,0.004000000000000001,0.4603350339311214,1657,1943,0,,WHITE,,,0,,WHITE,True,CORRECT,0.7940737000008085,794.0737000008085
3,20260325_121052,D,J,False,CALIBRATION,1,265,265,staircase,,,0.046326296494009614,0.03346938775510201,0.001,0.004000000000000001,0.4536737035059904,1633,1967,0,,WHITE,,,0,,BLACK,False,INCORRECT,1.2785760000006121,1278.576000000612
3,20260325_121052,D,J,False,CALIBRATION,1,266,266,staircase,,,0.04627113731991904,0.03246938775510201,0.001,0.004000000000000001,0.546271137319919,1967,1633,0,,BLACK,,,0,,BLACK,True,CORRECT,1.2956317999996827,1295.6317999996827
3,20260325_121052,D,J,False,CALIBRATION,1,267,267,staircase,,,0.02832450218243012,0.036469387755102015,0.001,0.004000000000000001,0.4716754978175699,1698,1902,0,,WHITE,,,0,,BLACK,False,INCORRECT,1.7916100000002189,1791.6100000002189
3,20260325_121052,D,J,False,CALIBRATION,1,268,268,staircase,,,0.047520037746445656,0.04046938775510202,0.001,0.004000000000000001,0.45247996225355436,1629,1971,0,,WHITE,,,0,,BLACK,False,INCORRECT,1.0804642000002787,1080.4642000002787
3,20260325_121052,D,J,False,CALIBRATION,1,269,269,staircase,,,0.04047803121065939,0.03946938775510202,0.001,0.004000000000000001,0.5404780312106594,1946,1654,0,,BLACK,,,0,,BLACK,True,CORRECT,1.441910600000483,1441.910600000483
3,20260325_121052,D,J,False,CALIBRATION,1,270,270,staircase,,,0.023506341491220183,0.038469387755102016,0.001,0.004000000000000001,0.5235063414912202,1885,1715,0,,BLACK,,,0,,BLACK,True,CORRECT,2.217822000000524,2217.822000000524
3,20260325_121052,D,J,False,CALIBRATION,1,271,271,staircase,,,0.05075914256377737,0.037469387755102015,0.001,0.004000000000000001,0.4492408574362226,1617,1983,0,,WHITE,,,0,,WHITE,True,CORRECT,0.7876543999991554,787.6543999991554
3,20260325_121052,D,J,False,CALIBRATION,1,272,272,staircase,,,0.050478578533410645,0.036469387755102015,0.001,0.004000000000000001,0.5504785785334106,1982,1618,0,,BLACK,,,0,,BLACK,True,CORRECT,2.177417900000364,2177.417900000364
3,20260325_121052,D,J,False,CALIBRATION,1,273,273,staircase,,,0.025406569909609312,0.035469387755102014,0.001,0.004000000000000001,0.4745934300903907,1709,1891,0,,WHITE,,,0,,WHITE,True,CORRECT,3.0754839000001084,3075.4839000001084
3,20260325_121052,D,J,False,CALIBRATION,1,274,274,staircase,,,0.030989718456519908,0.03446938775510201,0.001,0.004000000000000001,0.5309897184565199,1912,1688,0,,BLACK,,,0,,BLACK,True,CORRECT,1.306938199999422,1306.938199999422
3,20260325_121052,D,J,False,CALIBRATION,1,275,275,staircase,,,0.020363609819797367,0.03346938775510201,0.001,0.004000000000000001,0.47963639018020265,1727,1873,0,,WHITE,,,0,,WHITE,True,CORRECT,1.1179761000003055,1117.9761000003055
3,20260325_121052,D,J,False,CALIBRATION,1,276,276,staircase,,,0.020996093732761383,0.03246938775510201,0.001,0.004000000000000001,0.4790039062672386,1724,1876,0,,WHITE,,,0,,WHITE,True,CORRECT,0.7056098000011843,705.6098000011843
3,20260325_121052,D,J,False,CALIBRATION,1,277,277,staircase,,,0.034563209476213046,0.036469387755102015,0.001,0.004000000000000001,0.534563209476213,1924,1676,0,,BLACK,,,0,,WHITE,False,INCORRECT,0.6479696999995213,647.9696999995213
3,20260325_121052,D,J,False,CALIBRATION,1,278,278,staircase,,,0.03536192426778113,0.04046938775510202,0.001,0.004000000000000001,0.5353619242677812,1927,1673,0,,BLACK,,,0,,WHITE,False,INCORRECT,3.533146800000395,3533.146800000395
3,20260325_121052,D,J,False,CALIBRATION,1,279,279,staircase,,,0.02931560502926374,0.04446938775510202,0.001,0.004000000000000001,0.4706843949707363,1694,1906,0,,WHITE,,,0,,BLACK,False,INCORRECT,1.4156457999997656,1415.6457999997656
3,20260325_121052,D,J,False,CALIBRATION,1,280,280,staircase,,,0.04328314466899688,0.04346938775510202,0.001,0.004000000000000001,0.45671685533100315,1644,1956,0,,WHITE,,,0,,WHITE,True,CORRECT,0.81822270000157,818.22270000157
3,20260325_121052,D,J,False,CALIBRATION,1,281,281,staircase,,,0.04793201851565482,0.04246938775510202,0.001,0.004000000000000001,0.5479320185156549,1973,1627,0,,BLACK,,,0,,BLACK,True,CORRECT,1.3919974000000366,1391.9974000000366
3,20260325_121052,D,J,False,CALIBRATION,1,282,282,staircase,,,0.04478513994831099,0.04646938775510202,0.001,0.004000000000000001,0.544785139948311,1961,1639,0,,BLACK,,,0,,WHITE,False,INCORRECT,1.7680331999999908,1768.0331999999908
3,20260325_121052,D,J,False,CALIBRATION,1,283,283,staircase,,,0.03948062823198202,0.05046938775510203,0.001,0.004000000000000001,0.5394806282319821,1942,1658,0,,BLACK,,,0,,WHITE,False,INCORRECT,1.524541799999497,1524.541799999497
3,20260325_121052,D,J,False,CALIBRATION,1,284,284,staircase,,,0.058715950482746776,0.049469387755102026,0.001,0.004000000000000001,0.4412840495172532,1589,2011,0,,WHITE,,,0,,WHITE,True,CORRECT,0.9464609000006021,946.4609000006021
3,20260325_121052,D,J,False,CALIBRATION,1,285,285,staircase,,,0.0407050866810881,0.048469387755102025,0.001,0.004000000000000001,0.4592949133189119,1653,1947,0,,WHITE,,,0,,WHITE,True,CORRECT,0.6622248999992735,662.2248999992735
3,20260325_121052,D,J,False,CALIBRATION,1,286,286,staircase,,,0.0587394545178244,0.047469387755102024,0.001,0.004000000000000001,0.5587394545178244,2011,1589,0,,BLACK,,,0,,BLACK,True,CORRECT,2.6853484000002936,2685.3484000002936
3,20260325_121052,D,J,False,CALIBRATION,1,287,287,staircase,,,0.04946311860675165,0.04646938775510202,0.001,0.004000000000000001,0.5494631186067517,1978,1622,0,,BLACK,,,0,,BLACK,True,CORRECT,3.906636799998523,3906.636799998523
3,20260325_121052,D,J,False,CALIBRATION,1,288,288,staircase,,,0.0399793908688721,0.04546938775510202,0.001,0.004000000000000001,0.4600206091311279,1656,1944,0,,WHITE,,,0,,WHITE,True,CORRECT,0.7974042000005284,797.4042000005284
3,20260325_121052,D,J,False,CALIBRATION,1,289,289,staircase,,,0.03254711310581257,0.049469387755102026,0.001,0.004000000000000001,0.5325471131058126,1917,1683,0,,BLACK,,,0,,WHITE,False,INCORRECT,0.93115410000064,931.15410000064
3,20260325_121052,D,J,False,CALIBRATION,1,290,290,staircase,,,0.04621500551972521,0.048469387755102025,0.001,0.004000000000000001,0.5462150055197252,1966,1634,0,,BLACK,,,0,,BLACK,True,CORRECT,1.3901430000005348,1390.1430000005348
3,20260325_121052,D,J,False,CALIBRATION,1,291,291,staircase,,,0.03811025647592142,0.047469387755102024,0.001,0.004000000000000001,0.4618897435240786,1663,1937,0,,WHITE,,,0,,WHITE,True,CORRECT,0.7895067999997991,789.5067999997991
3,20260325_121052,D,J,False,CALIBRATION,1,292,292,staircase,,,0.023981502957172007,0.04646938775510202,0.001,0.004000000000000001,0.476018497042828,1714,1886,0,,WHITE,,,0,,WHITE,True,CORRECT,1.4183406999982253,1418.3406999982253
3,20260325_121052,D,J,False,CALIBRATION,1,293,293,staircase,,,0.04776714423467823,0.04546938775510202,0.001,0.004000000000000001,0.4522328557653218,1628,1972,0,,WHITE,,,0,,WHITE,True,CORRECT,0.7346273000002839,734.6273000002839
3,20260325_121052,D,J,False,CALIBRATION,1,294,294,staircase,,,0.04583780589626712,0.04446938775510202,0.001,0.004000000000000001,0.5458378058962671,1965,1635,0,,BLACK,,,0,,BLACK,True,CORRECT,1.8087530000011611,1808.7530000011611
3,20260325_121052,D,J,False,CALIBRATION,1,295,295,staircase,,,0.035344538081742094,0.04346938775510202,0.001,0.004000000000000001,0.4646554619182579,1673,1927,0,,WHITE,,,0,,WHITE,True,CORRECT,0.7803672000009101,780.3672000009101
3,20260325_121052,D,J,False,CALIBRATION,1,296,296,staircase,,,0.046017543323023935,0.04246938775510202,0.001,0.004000000000000001,0.45398245667697606,1634,1966,0,,WHITE,,,0,,WHITE,True,CORRECT,0.8020685000010417,802.0685000010417
3,20260325_121052,D,J,False,CALIBRATION,1,297,297,staircase,,,0.06505093014230143,0.04146938775510202,0.001,0.004000000000000001,0.43494906985769854,1566,2034,0,,WHITE,,,0,,WHITE,True,CORRECT,0.8009660999996413,800.9660999996413
3,20260325_121052,D,J,False,CALIBRATION,1,298,298,staircase,,,0.046053343516509034,0.04046938775510202,0.001,0.004000000000000001,0.453946656483491,1634,1966,0,,WHITE,,,0,,WHITE,True,CORRECT,0.8789720000004309,878.9720000004309
3,20260325_121052,D,J,False,CALIBRATION,1,299,299,staircase,,,0.04404806113793565,0.03946938775510202,0.001,0.004000000000000001,0.5440480611379357,1959,1641,0,,BLACK,,,0,,BLACK,True,CORRECT,1.9201818000001367,1920.1818000001367
3,20260325_121052,D,J,False,CALIBRATION,1,300,300,staircase,,,0.049720456922809686,0.038469387755102016,0.001,0.004000000000000001,0.4502795430771903,1621,1979,0,,WHITE,,,0,,WHITE,True,CORRECT,0.7480852999997296,748.0852999997296
3,20260325_121052,D,J,False,AUTOMATION1,2,1,301,fixed_delta,0.03626602127557052,0.01404684716676857,,,,,0.47121076844595483,1696,1904,1,0.95,WHITE,WHITE,True,0,0.0026999987312592566,WHITE,True,CORRECT,4.0424394000001485,4042.4394000001485
3,20260325_121052,D,J,False,AUTOMATION1,2,2,302,fixed_delta,0.03626602127557052,0.01404684716676857,,,,,0.5342181027503011,1923,1677,1,0.95,BLACK,BLACK,True,0,0.0018999999156221747,BLACK,True,CORRECT,2.111384800000451,2111.384800000451
3,20260325_121052,D,J,False,AUTOMATION1,2,3,303,fixed_delta,0.03626602127557052,0.01404684716676857,,,,,0.5205674939890126,1874,1726,1,0.95,BLACK,BLACK,True,0,0.0021999985619913787,BLACK,True,CORRECT,2.5911668999997346,2591.1668999997346
3,20260325_121052,D,J,False,AUTOMATION1,2,4,304,fixed_delta,0.03626602127557052,0.01404684716676857,,,,,0.5272745693264284,1898,1702,1,0.95,BLACK,BLACK,True,0,0.0015000005078036338,WHITE,False,INCORRECT,3.550361499999781,3550.361499999781
3,20260325_121052,D,J,False,AUTOMATION1,2,5,305,fixed_delta,0.03626602127557052,0.01404684716676857,,,,,0.5315196442030918,1913,1687,1,0.95,BLACK,BLACK,True,0,0.002200000380980782,BLACK,True,CORRECT,2.5580810999999812,2558.0810999999812
3,20260325_121052,D,J,False,AUTOMATION1,2,6,306,fixed_delta,0.03626602127557052,0.01404684716676857,,,,,0.5207141860183242,1875,1725,1,0.95,BLACK,BLACK,True,0,0.002300001142430119,BLACK,True,CORRECT,2.9208763999995426,2920.8763999995426
3,20260325_121052,D,J,False,AUTOMATION1,2,7,307,fixed_delta,0.03626602127557052,0.01404684716676857,,,,,0.4573433415969159,1646,1954,1,0.95,WHITE,WHITE,True,0,0.0015999994502635673,WHITE,True,CORRECT,1.009928099998433,1009.928099998433
3,20260325_121052,D,J,False,AUTOMATION1,2,8,308,fixed_delta,0.03626602127557052,0.01404684716676857,,,,,0.5234337994361028,1884,1716,1,0.95,BLACK,BLACK,True,0,0.0015000005078036338,BLACK,True,CORRECT,1.2948388000004343,1294.8388000004343
3,20260325_121052,D,J,False,AUTOMATION1,2,9,309,fixed_delta,0.03626602127557052,0.01404684716676857,,,,,0.5273795411263626,1899,1701,1,0.95,BLACK,BLACK,True,0,0.0013000008038943633,BLACK,True,CORRECT,1.2489038000003347,1248.9038000003347
3,20260325_121052,D,J,False,AUTOMATION1,2,10,310,fixed_delta,0.03626602127557052,0.01404684716676857,,,,,0.4636857390524873,1669,1931,1,0.95,WHITE,WHITE,True,0,0.0013999997463542968,WHITE,True,CORRECT,1.0205580000001646,1020.5580000001646
3,20260325_121052,D,J,False,AUTOMATION1,2,11,311,fixed_delta,0.03626602127557052,0.01404684716676857,,,,,0.45591357911545144,1641,1959,1,0.95,WHITE,WHITE,True,0,0.0016000012692529708,WHITE,True,CORRECT,1.1432569000007788,1143.2569000007788
3,20260325_121052,D,J,False,AUTOMATION1,2,12,312,fixed_delta,0.03626602127557052,0.01404684716676857,,,,,0.548473662386256,1975,1625,1,0.95,BLACK,BLACK,True,0,0.0029000002541579306,BLACK,True,CORRECT,1.3673084000001836,1367.3084000001836
3,20260325_121052,D,J,False,AUTOMATION1,2,13,313,fixed_delta,0.03626602127557052,0.01404684716676857,,,,,0.5114648497499572,1841,1759,1,0.95,BLACK,BLACK,True,0,0.0018999999156221747,BLACK,True,CORRECT,1.5773109000001568,1577.3109000001568
3,20260325_121052,D,J,False,AUTOMATION1,2,14,314,fixed_delta,0.03626602127557052,0.01404684716676857,,,,,0.4436247665772622,1597,2003,1,0.95,WHITE,WHITE,True,0,0.0017000002117129043,WHITE,True,CORRECT,0.9448563999994803,944.8563999994803
3,20260325_121052,D,J,False,AUTOMATION1,2,15,315,fixed_delta,0.03626602127557052,0.01404684716676857,,,,,0.539941394652438,1944,1656,1,0.95,BLACK,BLACK,True,0,0.0020000006770715117,BLACK,True,CORRECT,1.0210801000011998,1021.0801000011998
3,20260325_121052,D,J,False,AUTOMATION1,2,16,316,fixed_delta,0.03626602127557052,0.01404684716676857,,,,,0.534724840100475,1925,1675,1,0.95,BLACK,BLACK,True,0,0.0014999986888142303,BLACK,True,CORRECT,1.3334010999988095,1333.4010999988095
3,20260325_121052,D,J,False,AUTOMATION1,2,17,317,fixed_delta,0.03626602127557052,0.01404684716676857,,,,,0.5393267051887753,1942,1658,1,0.95,BLACK,BLACK,True,0,0.0013000008038943633,BLACK,True,CORRECT,0.9565598000008322,956.5598000008322
3,20260325_121052,D,J,False,AUTOMATION1,2,18,318,fixed_delta,0.03626602127557052,0.01404684716676857,,,,,0.5158229543779546,1857,1743,1,0.95,BLACK,BLACK,True,0,0.0015000005078036338,BLACK,True,CORRECT,1.0402638000014122,1040.2638000014122
3,20260325_121052,D,J,False,AUTOMATION1,2,19,319,fixed_delta,0.03626602127557052,0.01404684716676857,,,,,0.5423941269731143,1953,1647,1,0.95,BLACK,BLACK,True,0,0.0012999989849049598,BLACK,True,CORRECT,1.510287099999914,1510.287099999914
3,20260325_121052,D,J,False,AUTOMATION1,2,20,320,fixed_delta,0.03626602127557052,0.01404684716676857,,,,,0.5495278444035278,1978,1622,1,0.95,BLACK,BLACK,True,0,0.0017000002117129043,BLACK,True,CORRECT,1.2072862000004534,1207.2862000004534
3,20260325_121052,D,J,False,AUTOMATION1,2,21,321,fixed_delta,0.03626602127557052,0.01404684716676857,,,,,0.4641285107037896,1671,1929,1,0.95,WHITE,WHITE,True,0,0.0015000005078036338,WHITE,True,CORRECT,1.0075133999998798,1007.5133999998798
3,20260325_121052,D,J,False,AUTOMATION1,2,22,322,fixed_delta,0.03626602127557052,0.01404684716676857,,,,,0.5002777777777778,1801,1799,1,0.95,BLACK,BLACK,True,0,0.0017000002117129043,BLACK,True,CORRECT,1.0469223000000056,1046.9223000000056
3,20260325_121052,D,J,False,AUTOMATION1,2,23,323,fixed_delta,0.03626602127557052,0.01404684716676857,,,,,0.4880415725847739,1757,1843,1,0.95,WHITE,WHITE,True,0,0.0017000002117129043,WHITE,True,CORRECT,2.8873060999994777,2887.3060999994777
3,20260325_121052,D,J,False,AUTOMATION1,2,24,324,fixed_delta,0.03626602127557052,0.01404684716676857,,,,,0.47156533115503263,1698,1902,1,0.95,WHITE,WHITE,True,0,0.0013000008038943633,WHITE,True,CORRECT,2.7633488999999827,2763.3488999999827
3,20260325_121052,D,J,False,AUTOMATION1,2,25,325,fixed_delta,0.03626602127557052,0.01404684716676857,,,,,0.5568330063323943,2005,1595,1,0.95,BLACK,BLACK,True,0,0.0015999994502635673,BLACK,True,CORRECT,1.450945499998852,1450.945499998852
3,20260325_121052,D,J,False,AUTOMATION1,2,26,326,fixed_delta,0.03626602127557052,0.01404684716676857,,,,,0.4596787272002022,1655,1945,1,0.95,WHITE,WHITE,True,0,0.0015000005078036338,WHITE,True,CORRECT,1.0720114000014291,1072.0114000014291
3,20260325_121052,D,J,False,AUTOMATION1,2,27,327,fixed_delta,0.03626602127557052,0.01404684716676857,,,,,0.460260674633226,1657,1943,1,0.95,WHITE,WHITE,True,0,0.002300001142430119,WHITE,True,CORRECT,0.9348926000002393,934.8926000002393
3,20260325_121052,D,J,False,AUTOMATION1,2,28,328,fixed_delta,0.03626602127557052,0.01404684716676857,,,,,0.5069218612459383,1825,1775,1,0.95,BLACK,BLACK,True,0,0.0015000005078036338,BLACK,True,CORRECT,1.0557091000009677,1055.7091000009677
3,20260325_121052,D,J,False,AUTOMATION1,2,29,329,fixed_delta,0.03626602127557052,0.01404684716676857,,,,,0.45223547176919504,1628,1972,1,0.95,WHITE,WHITE,True,0,0.0014000015653437003,WHITE,True,CORRECT,0.8791239000001951,879.1239000001951
3,20260325_121052,D,J,False,AUTOMATION1,2,30,330,fixed_delta,0.03626602127557052,0.01404684716676857,,,,,0.4803297563255082,1729,1871,1,0.95,WHITE,BLACK,False,0,0.0018999999156221747,BLACK,False,INCORRECT,3.3202608000010514,3320.2608000010514
3,20260325_121052,D,J,False,AUTOMATION1,2,31,331,fixed_delta,0.03626602127557052,0.01404684716676857,,,,,0.5272146933973808,1898,1702,1,0.95,BLACK,BLACK,True,0,0.0015999994502635673,BLACK,True,CORRECT,2.7302975000002334,2730.2975000002334
3,20260325_121052,D,J,False,AUTOMATION1,2,32,332,fixed_delta,0.03626602127557052,0.01404684716676857,,,,,0.4544758833029169,1636,1964,1,0.95,WHITE,WHITE,True,0,0.0013000008038943633,WHITE,True,CORRECT,0.8448281000000861,844.8281000000861
3,20260325_121052,D,J,False,AUTOMATION1,2,33,333,fixed_delta,0.03626602127557052,0.01404684716676857,,,,,0.4689010531486475,1688,1912,1,0.95,WHITE,WHITE,True,0,0.001999998858082108,WHITE,True,CORRECT,1.909663599999476,1909.663599999476
3,20260325_121052,D,J,False,AUTOMATION1,2,34,334,fixed_delta,0.03626602127557052,0.01404684716676857,,,,,0.522815422705563,1882,1718,1,0.95,BLACK,BLACK,True,0,0.0012999989849049598,BLACK,True,CORRECT,0.7930632999996305,793.0632999996305
3,20260325_121052,D,J,False,AUTOMATION1,2,35,335,fixed_delta,0.03626602127557052,0.01404684716676857,,,,,0.4634433988168548,1668,1932,1,0.95,WHITE,WHITE,True,0,0.0015000005078036338,WHITE,True,CORRECT,1.1996402999993734,1199.6402999993734
3,20260325_121052,D,J,False,AUTOMATION1,2,36,336,fixed_delta,0.03626602127557052,0.01404684716676857,,,,,0.47377623738066577,1706,1894,1,0.95,WHITE,WHITE,True,0,0.0020000006770715117,WHITE,True,CORRECT,1.6459850999999617,1645.9850999999617
3,20260325_121052,D,J,False,AUTOMATION1,2,37,337,fixed_delta,0.03626602127557052,0.01404684716676857,,,,,0.47907666627907736,1725,1875,1,0.95,WHITE,WHITE,True,0,0.0012999989849049598,WHITE,True,CORRECT,0.9740194999994856,974.0194999994856
3,20260325_121052,D,J,False,AUTOMATION1,2,38,338,fixed_delta,0.03626602127557052,0.01404684716676857,,,,,0.537069577375538,1933,1667,1,0.95,BLACK,BLACK,True,0,0.0017999991541728377,BLACK,True,CORRECT,1.091863800000283,1091.863800000283
3,20260325_121052,D,J,False,AUTOMATION1,2,39,339,fixed_delta,0.03626602127557052,0.01404684716676857,,,,,0.53375800656284,1922,1678,1,0.95,BLACK,BLACK,True,0,0.0018999999156221747,BLACK,True,CORRECT,1.1349850000005972,1134.9850000005972
3,20260325_121052,D,J,False,AUTOMATION1,2,40,340,fixed_delta,0.03626602127557052,0.01404684716676857,,,,,0.4392221915704425,1581,2019,1,0.95,WHITE,BLACK,False,0,0.00399999953515362,WHITE,True,CORRECT,1.910814599999867,1910.814599999867
3,20260325_121052,D,J,False,AUTOMATION1,2,41,341,fixed_delta,0.03626602127557052,0.01404684716676857,,,,,0.4749158759830482,1710,1890,1,0.95,WHITE,WHITE,True,0,0.0013999997463542968,WHITE,True,CORRECT,1.3778045999988535,1377.8045999988535
3,20260325_121052,D,J,False,AUTOMATION1,2,42,342,fixed_delta,0.03626602127557052,0.01404684716676857,,,,,0.4634239003442827,1668,1932,1,0.95,WHITE,WHITE,True,0,0.0018999999156221747,WHITE,True,CORRECT,3.099343500000032,3099.343500000032
3,20260325_121052,D,J,False,AUTOMATION1,2,43,343,fixed_delta,0.03626602127557052,0.01404684716676857,,,,,0.5383839775224312,1938,1662,1,0.95,BLACK,BLACK,True,0,0.0013000008038943633,BLACK,True,CORRECT,1.1850481999990734,1185.0481999990734
3,20260325_121052,D,J,False,AUTOMATION1,2,44,344,fixed_delta,0.03626602127557052,0.01404684716676857,,,,,0.547633378524654,1971,1629,1,0.95,BLACK,BLACK,True,0,0.0015000005078036338,BLACK,True,CORRECT,0.9220031999993807,922.0031999993807
3,20260325_121052,D,J,False,AUTOMATION1,2,45,345,fixed_delta,0.03626602127557052,0.01404684716676857,,,,,0.453222675224736,1632,1968,1,0.95,WHITE,WHITE,True,0,0.0018999999156221747,WHITE,True,CORRECT,0.9363071999996464,936.3071999996464
3,20260325_121052,D,J,False,AUTOMATION1,2,46,346,fixed_delta,0.03626602127557052,0.01404684716676857,,,,,0.4642959175502162,1671,1929,1,0.95,WHITE,WHITE,True,0,0.0017000002117129043,WHITE,True,CORRECT,1.4534812000001693,1453.4812000001693
3,20260325_121052,D,J,False,AUTOMATION1,2,47,347,fixed_delta,0.03626602127557052,0.01404684716676857,,,,,0.4578287896235866,1648,1952,1,0.95,WHITE,WHITE,True,0,0.0018999999156221747,WHITE,True,CORRECT,1.5594928999998956,1559.4928999998956
3,20260325_121052,D,J,False,AUTOMATION1,2,48,348,fixed_delta,0.03626602127557052,0.01404684716676857,,,,,0.4632401158751451,1668,1932,1,0.95,WHITE,WHITE,True,0,0.0015000005078036338,WHITE,True,CORRECT,2.7638226999988547,2763.8226999988547
3,20260325_121052,D,J,False,AUTOMATION1,2,49,349,fixed_delta,0.03626602127557052,0.01404684716676857,,,,,0.45236950760789874,1629,1971,1,0.95,WHITE,WHITE,True,0,0.0012999989849049598,WHITE,True,CORRECT,1.0708235999991302,1070.8235999991302
3,20260325_121052,D,J,False,AUTOMATION1,2,50,350,fixed_delta,0.03626602127557052,0.01404684716676857,,,,,0.5218153373615564,1879,1721,1,0.95,BLACK,BLACK,True,0,0.0017000002117129043,BLACK,True,CORRECT,0.9808615000001737,980.8615000001737
3,20260325_121052,D,J,False,AUTOMATION1,2,51,351,fixed_delta,0.03626602127557052,0.01404684716676857,,,,,0.5237055187019269,1885,1715,1,0.95,BLACK,BLACK,True,0,0.0020000006770715117,BLACK,True,CORRECT,1.0137818999992305,1013.7818999992305
3,20260325_121052,D,J,False,AUTOMATION1,2,52,352,fixed_delta,0.03626602127557052,0.01404684716676857,,,,,0.4579892674786556,1649,1951,1,0.95,WHITE,WHITE,True,0,0.0015000005078036338,WHITE,True,CORRECT,1.6177102000001469,1617.7102000001469
3,20260325_121052,D,J,False,AUTOMATION1,2,53,353,fixed_delta,0.03626602127557052,0.01404684716676857,,,,,0.4722726846704303,1700,1900,1,0.95,WHITE,WHITE,True,0,0.0020000006770715117,WHITE,True,CORRECT,1.4454404000007344,1445.4404000007344
3,20260325_121052,D,J,False,AUTOMATION1,2,54,354,fixed_delta,0.03626602127557052,0.01404684716676857,,,,,0.5461859051217599,1966,1634,1,0.95,BLACK,BLACK,True,0,0.0015999994502635673,BLACK,True,CORRECT,1.0279418000009173,1027.9418000009173
3,20260325_121052,D,J,False,AUTOMATION1,2,55,355,fixed_delta,0.03626602127557052,0.01404684716676857,,,,,0.532419656872077,1917,1683,1,0.95,BLACK,BLACK,True,0,0.0015999994502635673,BLACK,True,CORRECT,1.425409800000125,1425.409800000125
3,20260325_121052,D,J,False,AUTOMATION1,2,56,356,fixed_delta,0.03626602127557052,0.01404684716676857,,,,,0.5436675691543531,1957,1643,1,0.95,BLACK,BLACK,True,0,0.002099999619531445,BLACK,True,CORRECT,1.2326360999995813,1232.6360999995813
3,20260325_121052,D,J,False,AUTOMATION1,2,57,357,fixed_delta,0.03626602127557052,0.01404684716676857,,,,,0.5394195962433808,1942,1658,1,0.95,BLACK,BLACK,True,0,0.0015000005078036338,BLACK,True,CORRECT,0.9614615999998932,961.4615999998932
3,20260325_121052,D,J,False,AUTOMATION1,2,58,358,fixed_delta,0.03626602127557052,0.01404684716676857,,,,,0.5345166624487263,1924,1676,1,0.95,BLACK,WHITE,False,0,0.0017999991541728377,BLACK,True,CORRECT,4.561889299999166,4561.889299999166
3,20260325_121052,D,J,False,AUTOMATION1,2,59,359,fixed_delta,0.03626602127557052,0.01404684716676857,,,,,0.5447399682210697,1961,1639,1,0.95,BLACK,BLACK,True,0,0.0018999999156221747,BLACK,True,CORRECT,1.042038199999297,1042.038199999297
3,20260325_121052,D,J,False,AUTOMATION1,2,60,360,fixed_delta,0.03626602127557052,0.01404684716676857,,,,,0.5208783884563094,1875,1725,1,0.95,BLACK,BLACK,True,0,0.0015000005078036338,BLACK,True,CORRECT,1.8896905000001425,1889.6905000001425
3,20260325_121052,D,J,False,AUTOMATION1,2,61,361,fixed_delta,0.03626602127557052,0.01404684716676857,,,,,0.49972222222222223,1799,1801,1,0.95,WHITE,WHITE,True,0,0.0018999999156221747,WHITE,True,CORRECT,1.3789182000000437,1378.9182000000437
3,20260325_121052,D,J,False,AUTOMATION1,2,62,362,fixed_delta,0.03626602127557052,0.01404684716676857,,,,,0.5348082746554947,1925,1675,1,0.95,BLACK,BLACK,True,0,0.0018999999156221747,BLACK,True,CORRECT,2.89403129999846,2894.03129999846
3,20260325_121052,D,J,False,AUTOMATION1,2,63,363,fixed_delta,0.03626602127557052,0.01404684716676857,,,,,0.46057026596095885,1658,1942,1,0.95,WHITE,WHITE,True,0,0.0017000002117129043,WHITE,True,CORRECT,1.8591137999992497,1859.1137999992497
3,20260325_121052,D,J,False,AUTOMATION1,2,64,364,fixed_delta,0.03626602127557052,0.01404684716676857,,,,,0.46728181509901723,1682,1918,1,0.95,WHITE,WHITE,True,0,0.0018999999156221747,WHITE,True,CORRECT,1.2738813999985723,1273.8813999985723
3,20260325_121052,D,J,False,AUTOMATION1,2,65,365,fixed_delta,0.03626602127557052,0.01404684716676857,,,,,0.4582613337631197,1650,1950,1,0.95,WHITE,WHITE,True,0,0.0018000009731622413,WHITE,True,CORRECT,1.0169447000007494,1016.9447000007494
3,20260325_121052,D,J,False,AUTOMATION1,2,66,366,fixed_delta,0.03626602127557052,0.01404684716676857,,,,,0.5287488966699615,1903,1697,1,0.95,BLACK,BLACK,True,0,0.0013999997463542968,BLACK,True,CORRECT,1.0446823000002041,1044.6823000002041
3,20260325_121052,D,J,False,AUTOMATION1,2,67,367,fixed_delta,0.03626602127557052,0.01404684716676857,,,,,0.4625319297301361,1665,1935,1,0.95,WHITE,WHITE,True,0,0.0016000012692529708,WHITE,True,CORRECT,0.8634723000013764,863.4723000013764
3,20260325_121052,D,J,False,AUTOMATION1,2,68,368,fixed_delta,0.03626602127557052,0.01404684716676857,,,,,0.45338285807551826,1632,1968,1,0.95,WHITE,WHITE,True,0,0.0012999989849049598,WHITE,True,CORRECT,2.0684687999983,2068.4687999983
3,20260325_121052,D,J,False,AUTOMATION1,2,69,369,fixed_delta,0.03626602127557052,0.01404684716676857,,,,,0.5214915391192313,1877,1723,1,0.95,BLACK,BLACK,True,0,0.0013000008038943633,BLACK,True,CORRECT,0.9866202000011981,986.6202000011981
3,20260325_121052,D,J,False,AUTOMATION1,2,70,370,fixed_delta,0.03626602127557052,0.01404684716676857,,,,,0.44058380604182146,1586,2014,1,0.95,WHITE,WHITE,True,0,0.0015999994502635673,WHITE,True,CORRECT,1.7359326999994664,1735.9326999994664
3,20260325_121052,D,J,False,AUTOMATION1,2,71,371,fixed_delta,0.03626602127557052,0.01404684716676857,,,,,0.5277433496847626,1900,1700,1,0.95,BLACK,BLACK,True,0,0.0017999991541728377,BLACK,True,CORRECT,0.8633879999997589,863.3879999997589
3,20260325_121052,D,J,False,AUTOMATION1,2,72,372,fixed_delta,0.03626602127557052,0.01404684716676857,,,,,0.5430842010795754,1955,1645,1,0.95,BLACK,BLACK,True,0,0.0015000005078036338,BLACK,True,CORRECT,0.7294877000003908,729.4877000003908
3,20260325_121052,D,J,False,AUTOMATION1,2,73,373,fixed_delta,0.03626602127557052,0.01404684716676857,,,,,0.45332184705208095,1632,1968,1,0.95,WHITE,BLACK,False,0,0.0015999994502635673,BLACK,False,INCORRECT,0.755019700000048,755.019700000048
3,20260325_121052,D,J,False,AUTOMATION1,2,74,374,fixed_delta,0.03626602127557052,0.01404684716676857,,,,,0.46661403175799837,1680,1920,1,0.95,WHITE,WHITE,True,0,0.0016000012692529708,WHITE,True,CORRECT,1.2701604000012594,1270.1604000012594
3,20260325_121052,D,J,False,AUTOMATION1,2,75,375,fixed_delta,0.03626602127557052,0.01404684716676857,,,,,0.5449866759895139,1962,1638,1,0.95,BLACK,BLACK,True,0,0.0017000002117129043,BLACK,True,CORRECT,1.5377097000000504,1537.7097000000504
3,20260325_121052,D,J,False,AUTOMATION1,2,76,376,fixed_delta,0.03626602127557052,0.01404684716676857,,,,,0.46656128633201555,1680,1920,1,0.95,WHITE,WHITE,True,0,0.0018999999156221747,WHITE,True,CORRECT,1.0181141000011849,1018.1141000011849
3,20260325_121052,D,J,False,AUTOMATION1,2,77,377,fixed_delta,0.03626602127557052,0.01404684716676857,,,,,0.5392880241671941,1941,1659,1,0.95,BLACK,BLACK,True,0,0.0015999994502635673,BLACK,True,CORRECT,2.691744600000675,2691.744600000675
3,20260325_121052,D,J,False,AUTOMATION1,2,78,378,fixed_delta,0.03626602127557052,0.01404684716676857,,,,,0.5400073056657978,1944,1656,1,0.95,BLACK,BLACK,True,0,0.0013999997463542968,BLACK,True,CORRECT,1.4783932999998797,1478.3932999998797
3,20260325_121052,D,J,False,AUTOMATION1,2,79,379,fixed_delta,0.03626602127557052,0.01404684716676857,,,,,0.4629618729782507,1667,1933,1,0.95,WHITE,BLACK,False,0,0.0014000015653437003,BLACK,False,INCORRECT,2.234201799999937,2234.201799999937
3,20260325_121052,D,J,False,AUTOMATION1,2,80,380,fixed_delta,0.03626602127557052,0.01404684716676857,,,,,0.4745021337191198,1708,1892,1,0.95,WHITE,WHITE,True,0,0.0013999997463542968,WHITE,True,CORRECT,3.2691112000011344,3269.1112000011344
3,20260325_121052,D,J,False,AUTOMATION1,2,81,381,fixed_delta,0.03626602127557052,0.01404684716676857,,,,,0.5302090767036444,1909,1691,1,0.95,BLACK,BLACK,True,0,0.0014999986888142303,BLACK,True,CORRECT,1.055522299999211,1055.522299999211
3,20260325_121052,D,J,False,AUTOMATION1,2,82,382,fixed_delta,0.03626602127557052,0.01404684716676857,,,,,0.5516530965846096,1986,1614,1,0.95,BLACK,BLACK,True,0,0.0018999999156221747,BLACK,True,CORRECT,1.2721799999999348,1272.1799999999348
3,20260325_121052,D,J,False,AUTOMATION1,2,83,383,fixed_delta,0.03626602127557052,0.01404684716676857,,,,,0.4673779853945116,1683,1917,1,0.95,WHITE,WHITE,True,0,0.0017999991541728377,WHITE,True,CORRECT,0.9135716999990109,913.5716999990109
3,20260325_121052,D,J,False,AUTOMATION1,2,84,384,fixed_delta,0.03626602127557052,0.01404684716676857,,,,,0.5373118720141056,1934,1666,1,0.95,BLACK,BLACK,True,0,0.0015000005078036338,BLACK,True,CORRECT,2.3436915000002045,2343.6915000002045
3,20260325_121052,D,J,False,AUTOMATION1,2,85,385,fixed_delta,0.03626602127557052,0.01404684716676857,,,,,0.466675161784513,1680,1920,1,0.95,WHITE,WHITE,True,0,0.0015000005078036338,WHITE,True,CORRECT,1.2154735000003711,1215.4735000003711
3,20260325_121052,D,J,False,AUTOMATION1,2,86,386,fixed_delta,0.03626602127557052,0.01404684716676857,,,,,0.44046278184651527,1586,2014,1,0.95,WHITE,WHITE,True,0,0.0013999997463542968,WHITE,True,CORRECT,2.2231931000005716,2223.1931000005716
3,20260325_121052,D,J,False,AUTOMATION1,2,87,387,fixed_delta,0.03626602127557052,0.01404684716676857,,,,,0.5231583333093812,1883,1717,1,0.95,BLACK,BLACK,True,0,0.0017000002117129043,BLACK,True,CORRECT,1.7034542000001238,1703.4542000001238
3,20260325_121052,D,J,False,AUTOMATION1,2,88,388,fixed_delta,0.03626602127557052,0.01404684716676857,,,,,0.541940881320473,1951,1649,1,0.95,BLACK,BLACK,True,0,0.0017000002117129043,BLACK,True,CORRECT,1.7161426999991818,1716.1426999991818
3,20260325_121052,D,J,False,AUTOMATION1,2,89,389,fixed_delta,0.03626602127557052,0.01404684716676857,,,,,0.46033914516627855,1657,1943,1,0.95,WHITE,WHITE,True,0,0.0013999997463542968,WHITE,True,CORRECT,1.4976351999994222,1497.6351999994222
3,20260325_121052,D,J,False,AUTOMATION1,2,90,390,fixed_delta,0.03626602127557052,0.01404684716676857,,,,,0.5138880217842381,1850,1750,1,0.95,BLACK,BLACK,True,0,0.0020000006770715117,BLACK,True,CORRECT,1.4164848000000347,1416.4848000000347
3,20260325_121052,D,J,False,AUTOMATION1,2,91,391,fixed_delta,0.03626602127557052,0.01404684716676857,,,,,0.4560975573796005,1642,1958,1,0.95,WHITE,WHITE,True,0,0.0017000002117129043,WHITE,True,CORRECT,0.8275513999997202,827.5513999997202
3,20260325_121052,D,J,False,AUTOMATION1,2,92,392,fixed_delta,0.03626602127557052,0.01404684716676857,,,,,0.5418981861761744,1951,1649,1,0.95,BLACK,WHITE,False,0,0.0013999997463542968,BLACK,True,CORRECT,3.0416034999998374,3041.6034999998374
3,20260325_121052,D,J,False,AUTOMATION1,2,93,393,fixed_delta,0.03626602127557052,0.01404684716676857,,,,,0.5483852682016805,1974,1626,1,0.95,BLACK,WHITE,False,0,0.0012999989849049598,BLACK,True,CORRECT,7.387220399999933,7387.220399999933
3,20260325_121052,D,J,False,AUTOMATION1,2,94,394,fixed_delta,0.03626602127557052,0.01404684716676857,,,,,0.45995244345302055,1656,1944,1,0.95,WHITE,WHITE,True,0,0.0016000012692529708,WHITE,True,CORRECT,0.8675053000006301,867.5053000006301
3,20260325_121052,D,J,False,AUTOMATION1,2,95,395,fixed_delta,0.03626602127557052,0.01404684716676857,,,,,0.555688509308911,2000,1600,1,0.95,BLACK,BLACK,True,0,0.0013999997463542968,BLACK,True,CORRECT,0.7732037000005221,773.2037000005221
3,20260325_121052,D,J,False,AUTOMATION1,2,96,396,fixed_delta,0.03626602127557052,0.01404684716676857,,,,,0.4497679755895615,1619,1981,1,0.95,WHITE,WHITE,True,0,0.0017999991541728377,WHITE,True,CORRECT,1.012223300000187,1012.223300000187
3,20260325_121052,D,J,False,AUTOMATION1,2,97,397,fixed_delta,0.03626602127557052,0.01404684716676857,,,,,0.5380670317699616,1937,1663,1,0.95,BLACK,BLACK,True,0,0.0013000008038943633,BLACK,True,CORRECT,0.7506874000009702,750.6874000009702
3,20260325_121052,D,J,False,AUTOMATION1,2,98,398,fixed_delta,0.03626602127557052,0.01404684716676857,,,,,0.5291772355100917,1905,1695,1,0.95,BLACK,BLACK,True,0,0.0013999997463542968,BLACK,True,CORRECT,1.1877127999996446,1187.7127999996446
3,20260325_121052,D,J,False,AUTOMATION1,2,99,399,fixed_delta,0.03626602127557052,0.01404684716676857,,,,,0.5528572040027515,1990,1610,1,0.95,BLACK,BLACK,True,0,0.0015999994502635673,BLACK,True,CORRECT,0.7874350000001868,787.4350000001868
3,20260325_121052,D,J,False,AUTOMATION1,2,100,400,fixed_delta,0.03626602127557052,0.01404684716676857,,,,,0.5046918429143133,1817,1783,1,0.95,BLACK,BLACK,True,0,0.0017000002117129043,BLACK,True,CORRECT,2.6302703999990626,2630.2703999990626
3,20260325_121052,D,J,False,AUTOMATION1,2,101,401,fixed_delta,0.03626602127557052,0.01404684716676857,,,,,0.5170522049275501,1861,1739,1,0.95,BLACK,BLACK,True,0,0.0013999997463542968,WHITE,False,INCORRECT,2.852790899998581,2852.790899998581
3,20260325_121052,D,J,False,AUTOMATION1,2,102,402,fixed_delta,0.03626602127557052,0.01404684716676857,,,,,0.5469532021323542,1969,1631,1,0.95,BLACK,BLACK,True,0,0.0025000008463393897,BLACK,True,CORRECT,3.94824460000018,3948.24460000018
3,20260325_121052,D,J,False,AUTOMATION1,2,103,403,fixed_delta,0.03626602127557052,0.01404684716676857,,,,,0.46415471293279154,1671,1929,1,0.95,WHITE,WHITE,True,0,0.0017999991541728377,WHITE,True,CORRECT,1.1910344999996596,1191.0344999996596
3,20260325_121052,D,J,False,AUTOMATION1,2,104,404,fixed_delta,0.03626602127557052,0.01404684716676857,,,,,0.5491509608896541,1977,1623,1,0.95,BLACK,BLACK,True,0,0.0013999997463542968,BLACK,True,CORRECT,2.113143200000195,2113.143200000195
3,20260325_121052,D,J,False,AUTOMATION1,2,105,405,fixed_delta,0.03626602127557052,0.01404684716676857,,,,,0.5578684716923159,2008,1592,1,0.95,BLACK,BLACK,True,0,0.0017000002117129043,BLACK,True,CORRECT,3.410547999999835,3410.547999999835
3,20260325_121052,D,J,False,AUTOMATION1,2,106,406,fixed_delta,0.03626602127557052,0.01404684716676857,,,,,0.5249058350647581,1890,1710,1,0.95,BLACK,BLACK,True,0,0.0017000002117129043,BLACK,True,CORRECT,2.1098381000010704,2109.8381000010704
3,20260325_121052,D,J,False,AUTOMATION1,2,107,407,fixed_delta,0.03626602127557052,0.01404684716676857,,,,,0.48245212966910944,1737,1863,1,0.95,WHITE,WHITE,True,0,0.0015999994502635673,WHITE,True,CORRECT,1.7141518000007636,1714.1518000007636
3,20260325_121052,D,J,False,AUTOMATION1,2,108,408,fixed_delta,0.03626602127557052,0.01404684716676857,,,,,0.5288314467596925,1904,1696,1,0.95,BLACK,BLACK,True,0,0.0018999999156221747,BLACK,True,CORRECT,1.065400999999838,1065.400999999838
3,20260325_121052,D,J,False,AUTOMATION1,2,109,409,fixed_delta,0.03626602127557052,0.01404684716676857,,,,,0.4494573682914229,1618,1982,1,0.95,WHITE,WHITE,True,0,0.0016000012692529708,WHITE,True,CORRECT,0.7544353000012052,754.4353000012052
3,20260325_121052,D,J,False,AUTOMATION1,2,110,410,fixed_delta,0.03626602127557052,0.01404684716676857,,,,,0.5219665611463568,1879,1721,1,0.95,BLACK,BLACK,True,0,0.0015999994502635673,BLACK,True,CORRECT,1.564136299999518,1564.136299999518
3,20260325_121052,D,J,False,AUTOMATION1,2,111,411,fixed_delta,0.03626602127557052,0.01404684716676857,,,,,0.5353983066525818,1927,1673,1,0.95,BLACK,BLACK,True,0,0.0016000012692529708,BLACK,True,CORRECT,0.9761495000002469,976.1495000002469
3,20260325_121052,D,J,False,AUTOMATION1,2,112,412,fixed_delta,0.03626602127557052,0.01404684716676857,,,,,0.45932112551366394,1654,1946,1,0.95,WHITE,WHITE,True,0,0.0014999986888142303,WHITE,True,CORRECT,0.7594761999989714,759.4761999989714
3,20260325_121052,D,J,False,AUTOMATION1,2,113,413,fixed_delta,0.03626602127557052,0.01404684716676857,,,,,0.519612896802644,1871,1729,1,0.95,BLACK,BLACK,True,0,0.0017999991541728377,BLACK,True,CORRECT,1.028450599998905,1028.450599998905
3,20260325_121052,D,J,False,AUTOMATION1,2,114,414,fixed_delta,0.03626602127557052,0.01404684716676857,,,,,0.4438153248011143,1598,2002,1,0.95,WHITE,WHITE,True,0,0.0016000012692529708,WHITE,True,CORRECT,1.7630253000006633,1763.0253000006633
3,20260325_121052,D,J,False,AUTOMATION1,2,115,415,fixed_delta,0.03626602127557052,0.01404684716676857,,,,,0.5473480055385466,1970,1630,1,0.95,BLACK,BLACK,True,0,0.0013000008038943633,BLACK,True,CORRECT,0.9748656000010669,974.8656000010669
3,20260325_121052,D,J,False,AUTOMATION1,2,116,416,fixed_delta,0.03626602127557052,0.01404684716676857,,,,,0.5302331009134832,1909,1691,1,0.95,BLACK,BLACK,True,0,0.0013999997463542968,BLACK,True,CORRECT,1.6576065000008384,1657.6065000008384
3,20260325_121052,D,J,False,AUTOMATION1,2,117,417,fixed_delta,0.03626602127557052,0.01404684716676857,,,,,0.41827541092880305,1506,2094,1,0.95,WHITE,WHITE,True,0,0.0013999997463542968,WHITE,True,CORRECT,0.710115500000029,710.115500000029
3,20260325_121052,D,J,False,AUTOMATION1,2,118,418,fixed_delta,0.03626602127557052,0.01404684716676857,,,,,0.4619824606381596,1663,1937,1,0.95,WHITE,WHITE,True,0,0.0016000012692529708,WHITE,True,CORRECT,2.357143299999734,2357.143299999734
3,20260325_121052,D,J,False,AUTOMATION1,2,119,419,fixed_delta,0.03626602127557052,0.01404684716676857,,,,,0.5623289696392841,2024,1576,1,0.95,BLACK,BLACK,True,0,0.0017999991541728377,BLACK,True,CORRECT,1.8782852000003913,1878.2852000003913
3,20260325_121052,D,J,False,AUTOMATION1,2,120,420,fixed_delta,0.03626602127557052,0.01404684716676857,,,,,0.46442504701937604,1672,1928,1,0.95,WHITE,WHITE,True,0,0.0014999986888142303,WHITE,True,CORRECT,3.1378637999987404,3137.8637999987404
3,20260325_121052,D,J,False,AUTOMATION1,2,121,421,fixed_delta,0.03626602127557052,0.01404684716676857,,,,,0.4474657977901729,1611,1989,1,0.95,WHITE,WHITE,True,0,0.0016000012692529708,WHITE,True,CORRECT,2.8308630000010453,2830.8630000010453
3,20260325_121052,D,J,False,AUTOMATION1,2,122,422,fixed_delta,0.03626602127557052,0.01404684716676857,,,,,0.4348389577721851,1565,2035,1,0.95,WHITE,WHITE,True,0,0.0015999994502635673,WHITE,True,CORRECT,1.2966141999986576,1296.6141999986576
3,20260325_121052,D,J,False,AUTOMATION1,2,123,423,fixed_delta,0.03626602127557052,0.01404684716676857,,,,,0.5665594936714967,2040,1560,1,0.95,BLACK,BLACK,True,0,0.0015000005078036338,BLACK,True,CORRECT,0.8712985000001936,871.2985000001936
3,20260325_121052,D,J,False,AUTOMATION1,2,124,424,fixed_delta,0.03626602127557052,0.01404684716676857,,,,,0.5251653776007973,1891,1709,1,0.95,BLACK,BLACK,True,0,0.0016000012692529708,BLACK,True,CORRECT,1.6734544000009919,1673.4544000009919
3,20260325_121052,D,J,False,AUTOMATION1,2,125,425,fixed_delta,0.03626602127557052,0.01404684716676857,,,,,0.4650546818076304,1674,1926,1,0.95,WHITE,WHITE,True,0,0.0013999997463542968,WHITE,True,CORRECT,4.415624299999763,4415.624299999763
