participant_id,run_timestamp,key_black,key_white,keymap_flip,block,block_idx,trial,global_trial,difficulty_mode,delta_fixed_mean,delta_fixed_sd,delta_stair_realised,delta_stair_mean,delta_step_down_used,delta_step_up_used,vblack_prop,n_vblack,n_vwhite,auto_on,aid_accuracy_setting,stimulus,aid_label,aid_correct,aid_onset_ms,aid_onset_ms_rel,response,correct,feedback,rt_s,rt_ms
3,20260325_121052,D,J,False,MANUAL,3,1,801,fixed_delta,0.03626602127557052,0.01404684716676857,,,,,0.5571915797554838,2006,1594,0,,BLACK,,,0,,BLACK,True,CORRECT,5.42728039999929,5427.28039999929
3,20260325_121052,D,J,False,MANUAL,3,2,802,fixed_delta,0.03626602127557052,0.01404684716676857,,,,,0.530620497606566,1910,1690,0,,BLACK,,,0,,WHITE,False,INCORRECT,2.8416320999986056,2841.6320999986056
3,20260325_121052,D,J,False,MANUAL,3,3,803,fixed_delta,0.03626602127557052,0.01404684716676857,,,,,0.5270124616783229,1897,1703,0,,BLACK,,,0,,WHITE,False,INCORRECT,4.729401100001269,4729.401100001269
3,20260325_121052,D,J,False,MANUAL,3,4,804,fixed_delta,0.03626602127557052,0.01404684716676857,,,,,0.4737844444445713,1706,1894,0,,WHITE,,,0,,WHITE,True,CORRECT,2.793096499999592,2793.096499999592
3,20260325_121052,D,J,False,MANUAL,3,5,805,fixed_delta,0.03626602127557052,0.01404684716676857,,,,,0.5216703820959049,1878,1722,0,,BLACK,,,0,,BLACK,True,CORRECT,1.4907361999994464,1490.7361999994464
3,20260325_121052,D,J,False,MANUAL,3,6,806,fixed_delta,0.03626602127557052,0.01404684716676857,,,,,0.465070542122037,1674,1926,0,,WHITE,,,0,,WHITE,True,CORRECT,0.8691560999996,869.1560999996
3,20260325_121052,D,J,False,MANUAL,3,7,807,fixed_delta,0.03626602127557052,0.01404684716676857,,,,,0.5474757338202006,1971,1629,0,,BLACK,,,0,,BLACK,True,CORRECT,0.725207199999204,725.207199999204
3,20260325_121052,D,J,False,MANUAL,3,8,808,fixed_delta,0.03626602127557052,0.01404684716676857,,,,,0.5545153851051376,1996,1604,0,,BLACK,,,0,,BLACK,True,CORRECT,3.3636624999999185,3363.6624999999185
3,20260325_121052,D,J,False,MANUAL,3,9,809,fixed_delta,0.03626602127557052,0.01404684716676857,,,,,0.4743561266165555,1708,1892,0,,WHITE,,,0,,WHITE,True,CORRECT,0.9598062000004575,959.8062000004575
3,20260325_121052,D,J,False,MANUAL,3,10,810,fixed_delta,0.03626602127557052,0.01404684716676857,,,,,0.5246148531766834,1889,1711,0,,BLACK,,,0,,BLACK,True,CORRECT,0.5690582000006543,569.0582000006543
3,20260325_121052,D,J,False,MANUAL,3,11,811,fixed_delta,0.03626602127557052,0.01404684716676857,,,,,0.44547107911348083,1604,1996,0,,WHITE,,,0,,WHITE,True,CORRECT,0.809926900001301,809.926900001301
3,20260325_121052,D,J,False,MANUAL,3,12,812,fixed_delta,0.03626602127557052,0.01404684716676857,,,,,0.47074940689494943,1695,1905,0,,WHITE,,,0,,WHITE,True,CORRECT,1.1037436000005982,1103.7436000005982
3,20260325_121052,D,J,False,MANUAL,3,13,813,fixed_delta,0.03626602127557052,0.01404684716676857,,,,,0.47424577840378673,1707,1893,0,,WHITE,,,0,,WHITE,True,CORRECT,2.719207300000562,2719.207300000562
3,20260325_121052,D,J,False,MANUAL,3,14,814,fixed_delta,0.03626602127557052,0.01404684716676857,,,,,0.47814247511081215,1721,1879,0,,WHITE,,,0,,WHITE,True,CORRECT,4.142879400000311,4142.879400000311
3,20260325_121052,D,J,False,MANUAL,3,15,815,fixed_delta,0.03626602127557052,0.01404684716676857,,,,,0.4856184812890617,1748,1852,0,,WHITE,,,0,,WHITE,True,CORRECT,3.5072215999989567,3507.2215999989567
3,20260325_121052,D,J,False,MANUAL,3,16,816,fixed_delta,0.03626602127557052,0.01404684716676857,,,,,0.4925919176588674,1773,1827,0,,WHITE,,,0,,BLACK,False,INCORRECT,3.593832000000475,3593.832000000475
3,20260325_121052,D,J,False,MANUAL,3,17,817,fixed_delta,0.03626602127557052,0.01404684716676857,,,,,0.546444934670856,1967,1633,0,,BLACK,,,0,,BLACK,True,CORRECT,0.834248099999968,834.248099999968
3,20260325_121052,D,J,False,MANUAL,3,18,818,fixed_delta,0.03626602127557052,0.01404684716676857,,,,,0.46526440779693606,1675,1925,0,,WHITE,,,0,,WHITE,True,CORRECT,0.763929000000644,763.929000000644
3,20260325_121052,D,J,False,MANUAL,3,19,819,fixed_delta,0.03626602127557052,0.01404684716676857,,,,,0.45564083134908057,1640,1960,0,,WHITE,,,0,,WHITE,True,CORRECT,0.7336729999988165,733.6729999988165
3,20260325_121052,D,J,False,MANUAL,3,20,820,fixed_delta,0.03626602127557052,0.01404684716676857,,,,,0.4745757011949646,1708,1892,0,,WHITE,,,0,,BLACK,False,INCORRECT,3.370604400000957,3370.604400000957
3,20260325_121052,D,J,False,MANUAL,3,21,821,fixed_delta,0.03626602127557052,0.01404684716676857,,,,,0.5234138804050984,1884,1716,0,,BLACK,,,0,,BLACK,True,CORRECT,4.390476500000659,4390.476500000659
3,20260325_121052,D,J,False,MANUAL,3,22,822,fixed_delta,0.03626602127557052,0.01404684716676857,,,,,0.4719348513463137,1699,1901,0,,WHITE,,,0,,WHITE,True,CORRECT,0.9515926000003674,951.5926000003674
3,20260325_121052,D,J,False,MANUAL,3,23,823,fixed_delta,0.03626602127557052,0.01404684716676857,,,,,0.4488141613182964,1616,1984,0,,WHITE,,,0,,WHITE,True,CORRECT,0.6282440000013594,628.2440000013594
3,20260325_121052,D,J,False,MANUAL,3,24,824,fixed_delta,0.03626602127557052,0.01404684716676857,,,,,0.5182715803100325,1866,1734,0,,BLACK,,,0,,BLACK,True,CORRECT,0.6525910999989719,652.5910999989719
3,20260325_121052,D,J,False,MANUAL,3,25,825,fixed_delta,0.03626602127557052,0.01404684716676857,,,,,0.5233962802791311,1884,1716,0,,BLACK,,,0,,BLACK,True,CORRECT,0.80516549999993,805.16549999993
3,20260325_121052,D,J,False,MANUAL,3,26,826,fixed_delta,0.03626602127557052,0.01404684716676857,,,,,0.45987273032490067,1656,1944,0,,WHITE,,,0,,BLACK,False,INCORRECT,0.8462932000002183,846.2932000002183
3,20260325_121052,D,J,False,MANUAL,3,27,827,fixed_delta,0.03626602127557052,0.01404684716676857,,,,,0.4693791335231536,1690,1910,0,,WHITE,,,0,,WHITE,True,CORRECT,1.0681296000002476,1068.1296000002476
3,20260325_121052,D,J,False,MANUAL,3,28,828,fixed_delta,0.03626602127557052,0.01404684716676857,,,,,0.47293711227435326,1703,1897,0,,WHITE,,,0,,BLACK,False,INCORRECT,1.0224650999989535,1022.4650999989535
3,20260325_121052,D,J,False,MANUAL,3,29,829,fixed_delta,0.03626602127557052,0.01404684716676857,,,,,0.4607320477539057,1659,1941,0,,WHITE,,,0,,WHITE,True,CORRECT,3.055970100000195,3055.970100000195
3,20260325_121052,D,J,False,MANUAL,3,30,830,fixed_delta,0.03626602127557052,0.01404684716676857,,,,,0.4488518489340175,1616,1984,0,,WHITE,,,0,,WHITE,True,CORRECT,0.6246507999985624,624.6507999985624
3,20260325_121052,D,J,False,MANUAL,3,31,831,fixed_delta,0.03626602127557052,0.01404684716676857,,,,,0.5270002236511391,1897,1703,0,,BLACK,,,0,,BLACK,True,CORRECT,0.6473034999999072,647.3034999999072
3,20260325_121052,D,J,False,MANUAL,3,32,832,fixed_delta,0.03626602127557052,0.01404684716676857,,,,,0.4423100373751807,1592,2008,0,,WHITE,,,0,,WHITE,True,CORRECT,0.9968638999998802,996.8638999998802
3,20260325_121052,D,J,False,MANUAL,3,33,833,fixed_delta,0.03626602127557052,0.01404684716676857,,,,,0.5326412863255273,1918,1682,0,,BLACK,,,0,,BLACK,True,CORRECT,1.2227241000000504,1222.7241000000504
3,20260325_121052,D,J,False,MANUAL,3,34,834,fixed_delta,0.03626602127557052,0.01404684716676857,,,,,0.44335592266186213,1596,2004,0,,WHITE,,,0,,WHITE,True,CORRECT,0.7018262000001414,701.8262000001414
3,20260325_121052,D,J,False,MANUAL,3,35,835,fixed_delta,0.03626602127557052,0.01404684716676857,,,,,0.5246837539062753,1889,1711,0,,BLACK,,,0,,BLACK,True,CORRECT,0.6331291000005876,633.1291000005876
3,20260325_121052,D,J,False,MANUAL,3,36,836,fixed_delta,0.03626602127557052,0.01404684716676857,,,,,0.4550439709633366,1638,1962,0,,WHITE,,,0,,WHITE,True,CORRECT,0.9595337000009749,959.5337000009749
3,20260325_121052,D,J,False,MANUAL,3,37,837,fixed_delta,0.03626602127557052,0.01404684716676857,,,,,0.5517491531786949,1986,1614,0,,BLACK,,,0,,BLACK,True,CORRECT,0.7880172999994102,788.0172999994102
3,20260325_121052,D,J,False,MANUAL,3,38,838,fixed_delta,0.03626602127557052,0.01404684716676857,,,,,0.46009515431979764,1656,1944,0,,WHITE,,,0,,WHITE,True,CORRECT,0.6583735000003799,658.3735000003799
3,20260325_121052,D,J,False,MANUAL,3,39,839,fixed_delta,0.03626602127557052,0.01404684716676857,,,,,0.5344018120610766,1924,1676,0,,BLACK,,,0,,BLACK,True,CORRECT,0.9312675000001036,931.2675000001036
3,20260325_121052,D,J,False,MANUAL,3,40,840,fixed_delta,0.03626602127557052,0.01404684716676857,,,,,0.46664515801911755,1680,1920,0,,WHITE,,,0,,WHITE,True,CORRECT,0.9077942999992956,907.7942999992956
3,20260325_121052,D,J,False,MANUAL,3,41,841,fixed_delta,0.03626602127557052,0.01404684716676857,,,,,0.47868147478002787,1723,1877,0,,WHITE,,,0,,BLACK,False,INCORRECT,0.7557384000010643,755.7384000010643
3,20260325_121052,D,J,False,MANUAL,3,42,842,fixed_delta,0.03626602127557052,0.01404684716676857,,,,,0.4460210824723967,1606,1994,0,,WHITE,,,0,,WHITE,True,CORRECT,1.5674565999997867,1567.4565999997867
3,20260325_121052,D,J,False,MANUAL,3,43,843,fixed_delta,0.03626602127557052,0.01404684716676857,,,,,0.5392396207389692,1941,1659,0,,BLACK,,,0,,WHITE,False,INCORRECT,1.913068399999247,1913.068399999247
3,20260325_121052,D,J,False,MANUAL,3,44,844,fixed_delta,0.03626602127557052,0.01404684716676857,,,,,0.5229181414493669,1883,1717,0,,BLACK,,,0,,WHITE,False,INCORRECT,1.2228641000001517,1222.8641000001517
3,20260325_121052,D,J,False,MANUAL,3,45,845,fixed_delta,0.03626602127557052,0.01404684716676857,,,,,0.5366297594593985,1932,1668,0,,BLACK,,,0,,BLACK,True,CORRECT,0.7050027000004775,705.0027000004775
3,20260325_121052,D,J,False,MANUAL,3,46,846,fixed_delta,0.03626602127557052,0.01404684716676857,,,,,0.5300945268474062,1908,1692,0,,BLACK,,,0,,BLACK,True,CORRECT,1.5945819999997184,1594.5819999997184
3,20260325_121052,D,J,False,MANUAL,3,47,847,fixed_delta,0.03626602127557052,0.01404684716676857,,,,,0.5408168797227878,1947,1653,0,,BLACK,,,0,,BLACK,True,CORRECT,3.703713400000197,3703.713400000197
3,20260325_121052,D,J,False,MANUAL,3,48,848,fixed_delta,0.03626602127557052,0.01404684716676857,,,,,0.4537693155879892,1634,1966,0,,WHITE,,,0,,WHITE,True,CORRECT,0.7269736999987799,726.9736999987799
3,20260325_121052,D,J,False,MANUAL,3,49,849,fixed_delta,0.03626602127557052,0.01404684716676857,,,,,0.5466892985674783,1968,1632,0,,BLACK,,,0,,BLACK,True,CORRECT,0.5513934000009613,551.3934000009613
3,20260325_121052,D,J,False,MANUAL,3,50,850,fixed_delta,0.03626602127557052,0.01404684716676857,,,,,0.5591640007833121,2013,1587,0,,BLACK,,,0,,BLACK,True,CORRECT,0.7114366000005248,711.4366000005248
3,20260325_121052,D,J,False,MANUAL,3,51,851,fixed_delta,0.03626602127557052,0.01404684716676857,,,,,0.44659324151436086,1608,1992,0,,WHITE,,,0,,WHITE,True,CORRECT,0.8872446999994281,887.2446999994281
3,20260325_121052,D,J,False,MANUAL,3,52,852,fixed_delta,0.03626602127557052,0.01404684716676857,,,,,0.5419909215224641,1951,1649,0,,BLACK,,,0,,BLACK,True,CORRECT,1.0054911999995966,1005.4911999995966
3,20260325_121052,D,J,False,MANUAL,3,53,853,fixed_delta,0.03626602127557052,0.01404684716676857,,,,,0.4465475666795119,1608,1992,0,,WHITE,,,0,,WHITE,True,CORRECT,0.6965022000003955,696.5022000003955
3,20260325_121052,D,J,False,MANUAL,3,54,854,fixed_delta,0.03626602127557052,0.01404684716676857,,,,,0.5457420635379434,1965,1635,0,,BLACK,,,0,,BLACK,True,CORRECT,0.629450899999938,629.450899999938
3,20260325_121052,D,J,False,MANUAL,3,55,855,fixed_delta,0.03626602127557052,0.01404684716676857,,,,,0.4793421882162248,1726,1874,0,,WHITE,,,0,,WHITE,True,CORRECT,0.7791053999990254,779.1053999990254
3,20260325_121052,D,J,False,MANUAL,3,56,856,fixed_delta,0.03626602127557052,0.01404684716676857,,,,,0.4738652112346626,1706,1894,0,,WHITE,,,0,,WHITE,True,CORRECT,0.8633475000006001,863.3475000006001
3,20260325_121052,D,J,False,MANUAL,3,57,857,fixed_delta,0.03626602127557052,0.01404684716676857,,,,,0.4708286678561163,1695,1905,0,,WHITE,,,0,,WHITE,True,CORRECT,0.8981868999999278,898.1868999999278
3,20260325_121052,D,J,False,MANUAL,3,58,858,fixed_delta,0.03626602127557052,0.01404684716676857,,,,,0.4623409750402243,1664,1936,0,,WHITE,,,0,,WHITE,True,CORRECT,0.6572161999993114,657.2161999993114
3,20260325_121052,D,J,False,MANUAL,3,59,859,fixed_delta,0.03626602127557052,0.01404684716676857,,,,,0.45144010873773566,1625,1975,0,,WHITE,,,0,,WHITE,True,CORRECT,0.42372599999907834,423.72599999907834
3,20260325_121052,D,J,False,MANUAL,3,60,860,fixed_delta,0.03626602127557052,0.01404684716676857,,,,,0.4572152513610708,1646,1954,0,,WHITE,,,0,,WHITE,True,CORRECT,0.5261363000008714,526.1363000008714
3,20260325_121052,D,J,False,MANUAL,3,61,861,fixed_delta,0.03626602127557052,0.01404684716676857,,,,,0.5296088953691362,1907,1693,0,,BLACK,,,0,,WHITE,False,INCORRECT,0.7019156000005751,701.9156000005751
3,20260325_121052,D,J,False,MANUAL,3,62,862,fixed_delta,0.03626602127557052,0.01404684716676857,,,,,0.4507009474232168,1623,1977,0,,WHITE,,,0,,WHITE,True,CORRECT,0.6812527000001865,681.2527000001865
3,20260325_121052,D,J,False,MANUAL,3,63,863,fixed_delta,0.03626602127557052,0.01404684716676857,,,,,0.44802166722621795,1613,1987,0,,WHITE,,,0,,WHITE,True,CORRECT,0.667210999999952,667.210999999952
3,20260325_121052,D,J,False,MANUAL,3,64,864,fixed_delta,0.03626602127557052,0.01404684716676857,,,,,0.521820619136453,1879,1721,0,,BLACK,,,0,,WHITE,False,INCORRECT,1.3745039999994333,1374.5039999994333
3,20260325_121052,D,J,False,MANUAL,3,65,865,fixed_delta,0.03626602127557052,0.01404684716676857,,,,,0.4472202553842296,1610,1990,0,,WHITE,,,0,,WHITE,True,CORRECT,0.6734539000008226,673.4539000008226
3,20260325_121052,D,J,False,MANUAL,3,66,866,fixed_delta,0.03626602127557052,0.01404684716676857,,,,,0.472749864327762,1702,1898,0,,WHITE,,,0,,WHITE,True,CORRECT,0.6425455000007787,642.5455000007787
3,20260325_121052,D,J,False,MANUAL,3,67,867,fixed_delta,0.03626602127557052,0.01404684716676857,,,,,0.46907380620679073,1689,1911,0,,WHITE,,,0,,WHITE,True,CORRECT,0.6860566000013932,686.0566000013932
3,20260325_121052,D,J,False,MANUAL,3,68,868,fixed_delta,0.03626602127557052,0.01404684716676857,,,,,0.5283150592178603,1902,1698,0,,BLACK,,,0,,BLACK,True,CORRECT,0.6166950999995606,616.6950999995606
3,20260325_121052,D,J,False,MANUAL,3,69,869,fixed_delta,0.03626602127557052,0.01404684716676857,,,,,0.53161161969561,1914,1686,0,,BLACK,,,0,,BLACK,True,CORRECT,0.8220361000003322,822.0361000003322
3,20260325_121052,D,J,False,MANUAL,3,70,870,fixed_delta,0.03626602127557052,0.01404684716676857,,,,,0.4643299885822548,1672,1928,0,,WHITE,,,0,,WHITE,True,CORRECT,0.6566163000006782,656.6163000006782
3,20260325_121052,D,J,False,MANUAL,3,71,871,fixed_delta,0.03626602127557052,0.01404684716676857,,,,,0.5565209322231477,2003,1597,0,,BLACK,,,0,,BLACK,True,CORRECT,0.6035236999996414,603.5236999996414
3,20260325_121052,D,J,False,MANUAL,3,72,872,fixed_delta,0.03626602127557052,0.01404684716676857,,,,,0.45683794419241236,1645,1955,0,,WHITE,,,0,,WHITE,True,CORRECT,0.9049618000008195,904.9618000008195
3,20260325_121052,D,J,False,MANUAL,3,73,873,fixed_delta,0.03626602127557052,0.01404684716676857,,,,,0.5424541503374047,1953,1647,0,,BLACK,,,0,,BLACK,True,CORRECT,0.7613696999997046,761.3696999997046
3,20260325_121052,D,J,False,MANUAL,3,74,874,fixed_delta,0.03626602127557052,0.01404684716676857,,,,,0.47637158740519064,1715,1885,0,,WHITE,,,0,,WHITE,True,CORRECT,1.4270577999996021,1427.0577999996021
3,20260325_121052,D,J,False,MANUAL,3,75,875,fixed_delta,0.03626602127557052,0.01404684716676857,,,,,0.5277985048783456,1900,1700,0,,BLACK,,,0,,BLACK,True,CORRECT,0.6743613999988156,674.3613999988156
3,20260325_121052,D,J,False,MANUAL,3,76,876,fixed_delta,0.03626602127557052,0.01404684716676857,,,,,0.538573345699623,1939,1661,0,,BLACK,,,0,,WHITE,False,INCORRECT,0.8704969999998866,870.4969999998866
3,20260325_121052,D,J,False,MANUAL,3,77,877,fixed_delta,0.03626602127557052,0.01404684716676857,,,,,0.5396913975816878,1943,1657,0,,BLACK,,,0,,WHITE,False,INCORRECT,1.2508866000007401,1250.8866000007401
3,20260325_121052,D,J,False,MANUAL,3,78,878,fixed_delta,0.03626602127557052,0.01404684716676857,,,,,0.5157579791593733,1857,1743,0,,BLACK,,,0,,BLACK,True,CORRECT,2.4628687000003993,2462.8687000003993
3,20260325_121052,D,J,False,MANUAL,3,79,879,fixed_delta,0.03626602127557052,0.01404684716676857,,,,,0.5331237159030706,1919,1681,0,,BLACK,,,0,,BLACK,True,CORRECT,2.022817400000349,2022.8174000003492
3,20260325_121052,D,J,False,MANUAL,3,80,880,fixed_delta,0.03626602127557052,0.01404684716676857,,,,,0.5473136275797327,1970,1630,0,,BLACK,,,0,,BLACK,True,CORRECT,2.1933616000005713,2193.3616000005713
3,20260325_121052,D,J,False,MANUAL,3,81,881,fixed_delta,0.03626602127557052,0.01404684716676857,,,,,0.4581495570811178,1649,1951,0,,WHITE,,,0,,WHITE,True,CORRECT,0.5656094000005396,565.6094000005396
3,20260325_121052,D,J,False,MANUAL,3,82,882,fixed_delta,0.03626602127557052,0.01404684716676857,,,,,0.5299257036426771,1908,1692,0,,BLACK,,,0,,BLACK,True,CORRECT,0.9214006999991398,921.4006999991398
3,20260325_121052,D,J,False,MANUAL,3,83,883,fixed_delta,0.03626602127557052,0.01404684716676857,,,,,0.5090173131426757,1832,1768,0,,BLACK,,,0,,WHITE,False,INCORRECT,3.213886300000013,3213.886300000013
3,20260325_121052,D,J,False,MANUAL,3,84,884,fixed_delta,0.03626602127557052,0.01404684716676857,,,,,0.5508153906367637,1983,1617,0,,BLACK,,,0,,BLACK,True,CORRECT,0.7024751000008109,702.4751000008109
3,20260325_121052,D,J,False,MANUAL,3,85,885,fixed_delta,0.03626602127557052,0.01404684716676857,,,,,0.45554206345894077,1640,1960,0,,WHITE,,,0,,WHITE,True,CORRECT,1.2609167999999045,1260.9167999999045
3,20260325_121052,D,J,False,MANUAL,3,86,886,fixed_delta,0.03626602127557052,0.01404684716676857,,,,,0.5184745898552844,1867,1733,0,,BLACK,,,0,,WHITE,False,INCORRECT,0.8216881000007561,821.6881000007561
3,20260325_121052,D,J,False,MANUAL,3,87,887,fixed_delta,0.03626602127557052,0.01404684716676857,,,,,0.4686897527575624,1687,1913,0,,WHITE,,,0,,WHITE,True,CORRECT,0.7923535999998421,792.3535999998421
3,20260325_121052,D,J,False,MANUAL,3,88,888,fixed_delta,0.03626602127557052,0.01404684716676857,,,,,0.4434702697627393,1596,2004,0,,WHITE,,,0,,WHITE,True,CORRECT,0.9574272000008932,957.4272000008932
3,20260325_121052,D,J,False,MANUAL,3,89,889,fixed_delta,0.03626602127557052,0.01404684716676857,,,,,0.44851371370668397,1615,1985,0,,WHITE,,,0,,WHITE,True,CORRECT,0.602133500000491,602.133500000491
3,20260325_121052,D,J,False,MANUAL,3,90,890,fixed_delta,0.03626602127557052,0.01404684716676857,,,,,0.5424822893111179,1953,1647,0,,BLACK,,,0,,BLACK,True,CORRECT,0.6588940000001458,658.8940000001458
3,20260325_121052,D,J,False,MANUAL,3,91,891,fixed_delta,0.03626602127557052,0.01404684716676857,,,,,0.4610567967344272,1660,1940,0,,WHITE,,,0,,WHITE,True,CORRECT,0.678844800000661,678.844800000661
3,20260325_121052,D,J,False,MANUAL,3,92,892,fixed_delta,0.03626602127557052,0.01404684716676857,,,,,0.5324667250936526,1917,1683,0,,BLACK,,,0,,WHITE,False,INCORRECT,0.8523555000010674,852.3555000010674
3,20260325_121052,D,J,False,MANUAL,3,93,893,fixed_delta,0.03626602127557052,0.01404684716676857,,,,,0.46447115478455697,1672,1928,0,,WHITE,,,0,,WHITE,True,CORRECT,0.49928650000038033,499.28650000038033
3,20260325_121052,D,J,False,MANUAL,3,94,894,fixed_delta,0.03626602127557052,0.01404684716676857,,,,,0.4688411865812836,1688,1912,0,,WHITE,,,0,,WHITE,True,CORRECT,0.7855360000012297,785.5360000012297
3,20260325_121052,D,J,False,MANUAL,3,95,895,fixed_delta,0.03626602127557052,0.01404684716676857,,,,,0.47095018049413245,1695,1905,0,,WHITE,,,0,,WHITE,True,CORRECT,0.5730880999999499,573.0880999999499
3,20260325_121052,D,J,False,MANUAL,3,96,896,fixed_delta,0.03626602127557052,0.01404684716676857,,,,,0.543973631934287,1958,1642,0,,BLACK,,,0,,BLACK,True,CORRECT,0.5409080999997968,540.9080999997968
3,20260325_121052,D,J,False,MANUAL,3,97,897,fixed_delta,0.03626602127557052,0.01404684716676857,,,,,0.5481222546362619,1973,1627,0,,BLACK,,,0,,BLACK,True,CORRECT,0.5556569000000309,555.6569000000309
3,20260325_121052,D,J,False,MANUAL,3,98,898,fixed_delta,0.03626602127557052,0.01404684716676857,,,,,0.5193748457339232,1870,1730,0,,BLACK,,,0,,BLACK,True,CORRECT,0.5398977000004379,539.8977000004379
3,20260325_121052,D,J,False,MANUAL,3,99,899,fixed_delta,0.03626602127557052,0.01404684716676857,,,,,0.4682051064592979,1686,1914,0,,WHITE,,,0,,WHITE,True,CORRECT,0.5781814000001759,578.1814000001759
3,20260325_121052,D,J,False,MANUAL,3,100,900,fixed_delta,0.03626602127557052,0.01404684716676857,,,,,0.468179820866136,1685,1915,0,,WHITE,,,0,,WHITE,True,CORRECT,0.6949440999997023,694.9440999997023
3,20260325_121052,D,J,False,MANUAL,3,101,901,fixed_delta,0.03626602127557052,0.01404684716676857,,,,,0.5315414368480121,1914,1686,0,,BLACK,,,0,,WHITE,False,INCORRECT,0.6878340999992361,687.8340999992361
3,20260325_121052,D,J,False,MANUAL,3,102,902,fixed_delta,0.03626602127557052,0.01404684716676857,,,,,0.5188107140536209,1868,1732,0,,BLACK,,,0,,WHITE,False,INCORRECT,3.0029057000010653,3002.9057000010653
3,20260325_121052,D,J,False,MANUAL,3,103,903,fixed_delta,0.03626602127557052,0.01404684716676857,,,,,0.5379533182439198,1937,1663,0,,BLACK,,,0,,BLACK,True,CORRECT,1.9287533999995503,1928.7533999995503
3,20260325_121052,D,J,False,MANUAL,3,104,904,fixed_delta,0.03626602127557052,0.01404684716676857,,,,,0.5227569141337658,1882,1718,0,,BLACK,,,0,,BLACK,True,CORRECT,0.6887747000000672,688.7747000000672
3,20260325_121052,D,J,False,MANUAL,3,105,905,fixed_delta,0.03626602127557052,0.01404684716676857,,,,,0.47809371981014265,1721,1879,0,,WHITE,,,0,,WHITE,True,CORRECT,2.5132210000010673,2513.2210000010673
3,20260325_121052,D,J,False,MANUAL,3,106,906,fixed_delta,0.03626602127557052,0.01404684716676857,,,,,0.4533948035899985,1632,1968,0,,WHITE,,,0,,WHITE,True,CORRECT,0.6726378999992448,672.6378999992448
3,20260325_121052,D,J,False,MANUAL,3,107,907,fixed_delta,0.03626602127557052,0.01404684716676857,,,,,0.4623821600730297,1665,1935,0,,WHITE,,,0,,WHITE,True,CORRECT,0.663355099999535,663.355099999535
3,20260325_121052,D,J,False,MANUAL,3,108,908,fixed_delta,0.03626602127557052,0.01404684716676857,,,,,0.5501086630397858,1980,1620,0,,BLACK,,,0,,BLACK,True,CORRECT,0.7853962999997748,785.3962999997748
3,20260325_121052,D,J,False,MANUAL,3,109,909,fixed_delta,0.03626602127557052,0.01404684716676857,,,,,0.5603869314135823,2017,1583,0,,BLACK,,,0,,BLACK,True,CORRECT,0.4959389999985433,495.9389999985433
3,20260325_121052,D,J,False,MANUAL,3,110,910,fixed_delta,0.03626602127557052,0.01404684716676857,,,,,0.4570482093352416,1645,1955,0,,WHITE,,,0,,WHITE,True,CORRECT,0.6720918000009988,672.0918000009988
3,20260325_121052,D,J,False,MANUAL,3,111,911,fixed_delta,0.03626602127557052,0.01404684716676857,,,,,0.5043220958772218,1816,1784,0,,BLACK,,,0,,WHITE,False,INCORRECT,0.8630928000002314,863.0928000002314
3,20260325_121052,D,J,False,MANUAL,3,112,912,fixed_delta,0.03626602127557052,0.01404684716676857,,,,,0.4827066453433124,1738,1862,0,,WHITE,,,0,,WHITE,True,CORRECT,1.478130699999383,1478.130699999383
3,20260325_121052,D,J,False,MANUAL,3,113,913,fixed_delta,0.03626602127557052,0.01404684716676857,,,,,0.44780915137380783,1612,1988,0,,WHITE,,,0,,WHITE,True,CORRECT,0.7049659000003885,704.9659000003885
3,20260325_121052,D,J,False,MANUAL,3,114,914,fixed_delta,0.03626602127557052,0.01404684716676857,,,,,0.5397189474972556,1943,1657,0,,BLACK,,,0,,BLACK,True,CORRECT,0.6765711999996711,676.5711999996711
3,20260325_121052,D,J,False,MANUAL,3,115,915,fixed_delta,0.03626602127557052,0.01404684716676857,,,,,0.46442807449071044,1672,1928,0,,WHITE,,,0,,WHITE,True,CORRECT,0.7417764000001625,741.7764000001625
3,20260325_121052,D,J,False,MANUAL,3,116,916,fixed_delta,0.03626602127557052,0.01404684716676857,,,,,0.4758896347492526,1713,1887,0,,WHITE,,,0,,WHITE,True,CORRECT,0.7910750999999436,791.0750999999436
3,20260325_121052,D,J,False,MANUAL,3,117,917,fixed_delta,0.03626602127557052,0.01404684716676857,,,,,0.45656679470676836,1644,1956,0,,WHITE,,,0,,WHITE,True,CORRECT,0.6271140000008018,627.1140000008018
3,20260325_121052,D,J,False,MANUAL,3,118,918,fixed_delta,0.03626602127557052,0.01404684716676857,,,,,0.4618392102836479,1663,1937,0,,WHITE,,,0,,WHITE,True,CORRECT,0.7506916000002093,750.6916000002093
3,20260325_121052,D,J,False,MANUAL,3,119,919,fixed_delta,0.03626602127557052,0.01404684716676857,,,,,0.522146447602163,1880,1720,0,,BLACK,,,0,,WHITE,False,INCORRECT,0.6684163000008994,668.4163000008994
3,20260325_121052,D,J,False,MANUAL,3,120,920,fixed_delta,0.03626602127557052,0.01404684716676857,,,,,0.5404631236941412,1946,1654,0,,BLACK,,,0,,BLACK,True,CORRECT,0.5686520999988716,568.6520999988716
3,20260325_121052,D,J,False,MANUAL,3,121,921,fixed_delta,0.03626602127557052,0.01404684716676857,,,,,0.518829417459379,1868,1732,0,,BLACK,,,0,,BLACK,True,CORRECT,0.39343689999986964,393.43689999986964
3,20260325_121052,D,J,False,MANUAL,3,122,922,fixed_delta,0.03626602127557052,0.01404684716676857,,,,,0.5224476454557798,1881,1719,0,,BLACK,,,0,,BLACK,True,CORRECT,0.43027839999922435,430.27839999922435
3,20260325_121052,D,J,False,MANUAL,3,123,923,fixed_delta,0.03626602127557052,0.01404684716676857,,,,,0.5201591511258272,1873,1727,0,,BLACK,,,0,,BLACK,True,CORRECT,1.23887349999859,1238.87349999859
3,20260325_121052,D,J,False,MANUAL,3,124,924,fixed_delta,0.03626602127557052,0.01404684716676857,,,,,0.4635872339732909,1669,1931,0,,WHITE,,,0,,WHITE,True,CORRECT,0.7577062000000296,757.7062000000296
3,20260325_121052,D,J,False,MANUAL,3,125,925,fixed_delta,0.03626602127557052,0.01404684716676857,,,,,0.4496275367302035,1619,1981,0,,WHITE,,,0,,WHITE,True,CORRECT,0.7077589999989868,707.7589999989868
3,20260325_121052,D,J,False,MANUAL,3,126,926,fixed_delta,0.03626602127557052,0.01404684716676857,,,,,0.4593435504773763,1654,1946,0,,WHITE,,,0,,BLACK,False,INCORRECT,1.0513537000006181,1051.3537000006181
3,20260325_121052,D,J,False,MANUAL,3,127,927,fixed_delta,0.03626602127557052,0.01404684716676857,,,,,0.4447030953309522,1601,1999,0,,WHITE,,,0,,WHITE,True,CORRECT,1.1780213000001822,1178.0213000001822
3,20260325_121052,D,J,False,MANUAL,3,128,928,fixed_delta,0.03626602127557052,0.01404684716676857,,,,,0.4651687420235262,1675,1925,0,,WHITE,,,0,,WHITE,True,CORRECT,1.0987549000001309,1098.7549000001309
3,20260325_121052,D,J,False,MANUAL,3,129,929,fixed_delta,0.03626602127557052,0.01404684716676857,,,,,0.44475401081789295,1601,1999,0,,WHITE,,,0,,WHITE,True,CORRECT,0.7355877999998484,735.5877999998484
3,20260325_121052,D,J,False,MANUAL,3,130,930,fixed_delta,0.03626602127557052,0.01404684716676857,,,,,0.4591922143326204,1653,1947,0,,WHITE,,,0,,WHITE,True,CORRECT,0.6574431999997614,657.4431999997614
3,20260325_121052,D,J,False,MANUAL,3,131,931,fixed_delta,0.03626602127557052,0.01404684716676857,,,,,0.5002777777777778,1801,1799,0,,BLACK,,,0,,WHITE,False,INCORRECT,5.52674659999866,5526.74659999866
3,20260325_121052,D,J,False,MANUAL,3,132,932,fixed_delta,0.03626602127557052,0.01404684716676857,,,,,0.44353296619012733,1597,2003,0,,WHITE,,,0,,WHITE,True,CORRECT,1.2193473999996058,1219.3473999996058
3,20260325_121052,D,J,False,MANUAL,3,133,933,fixed_delta,0.03626602127557052,0.01404684716676857,,,,,0.4725160866188295,1701,1899,0,,WHITE,,,0,,BLACK,False,INCORRECT,1.587342400000125,1587.342400000125
3,20260325_121052,D,J,False,MANUAL,3,134,934,fixed_delta,0.03626602127557052,0.01404684716676857,,,,,0.550937322712149,1983,1617,0,,BLACK,,,0,,BLACK,True,CORRECT,0.7757480000000214,775.7480000000214
3,20260325_121052,D,J,False,MANUAL,3,135,935,fixed_delta,0.03626602127557052,0.01404684716676857,,,,,0.4733400600973521,1704,1896,0,,WHITE,,,0,,WHITE,True,CORRECT,0.7345151999998052,734.5151999998052
3,20260325_121052,D,J,False,MANUAL,3,136,936,fixed_delta,0.03626602127557052,0.01404684716676857,,,,,0.554199290365723,1995,1605,0,,BLACK,,,0,,BLACK,True,CORRECT,0.823094299999866,823.094299999866
3,20260325_121052,D,J,False,MANUAL,3,137,937,fixed_delta,0.03626602127557052,0.01404684716676857,,,,,0.4666970343779249,1680,1920,0,,WHITE,,,0,,WHITE,True,CORRECT,0.7900906000013492,790.0906000013492
3,20260325_121052,D,J,False,MANUAL,3,138,938,fixed_delta,0.03626602127557052,0.01404684716676857,,,,,0.545530455078489,1964,1636,0,,BLACK,,,0,,WHITE,False,INCORRECT,0.7412919999987935,741.2919999987935
3,20260325_121052,D,J,False,MANUAL,3,139,939,fixed_delta,0.03626602127557052,0.01404684716676857,,,,,0.4600582749113384,1656,1944,0,,WHITE,,,0,,WHITE,True,CORRECT,1.500950699999521,1500.950699999521
3,20260325_121052,D,J,False,MANUAL,3,140,940,fixed_delta,0.03626602127557052,0.01404684716676857,,,,,0.46856890494174824,1687,1913,0,,WHITE,,,0,,WHITE,True,CORRECT,1.2627177000013035,1262.7177000013035
3,20260325_121052,D,J,False,MANUAL,3,141,941,fixed_delta,0.03626602127557052,0.01404684716676857,,,,,0.5505668474045138,1982,1618,0,,BLACK,,,0,,BLACK,True,CORRECT,0.5264410999989195,526.4410999989195
3,20260325_121052,D,J,False,MANUAL,3,142,942,fixed_delta,0.03626602127557052,0.01404684716676857,,,,,0.4614757352678255,1661,1939,0,,WHITE,,,0,,WHITE,True,CORRECT,0.714513299999453,714.513299999453
3,20260325_121052,D,J,False,MANUAL,3,143,943,fixed_delta,0.03626602127557052,0.01404684716676857,,,,,0.540849248420795,1947,1653,0,,BLACK,,,0,,BLACK,True,CORRECT,0.5188204999994923,518.8204999994923
3,20260325_121052,D,J,False,MANUAL,3,144,944,fixed_delta,0.03626602127557052,0.01404684716676857,,,,,0.4846071144025733,1745,1855,0,,WHITE,,,0,,WHITE,True,CORRECT,0.7519808000015473,751.9808000015473
3,20260325_121052,D,J,False,MANUAL,3,145,945,fixed_delta,0.03626602127557052,0.01404684716676857,,,,,0.4527899841076447,1630,1970,0,,WHITE,,,0,,BLACK,False,INCORRECT,0.6174129000009998,617.4129000009998
3,20260325_121052,D,J,False,MANUAL,3,146,946,fixed_delta,0.03626602127557052,0.01404684716676857,,,,,0.45238805150695627,1629,1971,0,,WHITE,,,0,,BLACK,False,INCORRECT,1.0771984999992128,1077.1984999992128
3,20260325_121052,D,J,False,MANUAL,3,147,947,fixed_delta,0.03626602127557052,0.01404684716676857,,,,,0.5391042143893765,1941,1659,0,,BLACK,,,0,,BLACK,True,CORRECT,0.6547363000008772,654.7363000008772
3,20260325_121052,D,J,False,MANUAL,3,148,948,fixed_delta,0.03626602127557052,0.01404684716676857,,,,,0.4528192500598301,1630,1970,0,,WHITE,,,0,,WHITE,True,CORRECT,0.6517516999992949,651.7516999992949
3,20260325_121052,D,J,False,MANUAL,3,149,949,fixed_delta,0.03626602127557052,0.01404684716676857,,,,,0.4400164049500053,1584,2016,0,,WHITE,,,0,,WHITE,True,CORRECT,2.407988300001307,2407.988300001307
3,20260325_121052,D,J,False,MANUAL,3,150,950,fixed_delta,0.03626602127557052,0.01404684716676857,,,,,0.4707784242417248,1695,1905,0,,WHITE,,,0,,WHITE,True,CORRECT,1.0692757000015263,1069.2757000015263
3,20260325_121052,D,J,False,MANUAL,3,151,951,fixed_delta,0.03626602127557052,0.01404684716676857,,,,,0.48216518594183266,1736,1864,0,,WHITE,,,0,,WHITE,True,CORRECT,3.1290738999996393,3129.0738999996393
3,20260325_121052,D,J,False,MANUAL,3,152,952,fixed_delta,0.03626602127557052,0.01404684716676857,,,,,0.4657693560621721,1677,1923,0,,WHITE,,,0,,WHITE,True,CORRECT,4.271349099999497,4271.349099999497
3,20260325_121052,D,J,False,MANUAL,3,153,953,fixed_delta,0.03626602127557052,0.01404684716676857,,,,,0.5349205697036348,1926,1674,0,,BLACK,,,0,,BLACK,True,CORRECT,2.772751500000595,2772.751500000595
3,20260325_121052,D,J,False,MANUAL,3,154,954,fixed_delta,0.03626602127557052,0.01404684716676857,,,,,0.5230499722361039,1883,1717,0,,BLACK,,,0,,BLACK,True,CORRECT,0.7941836999998486,794.1836999998486
3,20260325_121052,D,J,False,MANUAL,3,155,955,fixed_delta,0.03626602127557052,0.01404684716676857,,,,,0.4564171085625926,1643,1957,0,,WHITE,,,0,,BLACK,False,INCORRECT,1.0479181999999128,1047.9181999999128
3,20260325_121052,D,J,False,MANUAL,3,156,956,fixed_delta,0.03626602127557052,0.01404684716676857,,,,,0.46842738899949904,1686,1914,0,,WHITE,,,0,,WHITE,True,CORRECT,0.7139313999996375,713.9313999996375
3,20260325_121052,D,J,False,MANUAL,3,157,957,fixed_delta,0.03626602127557052,0.01404684716676857,,,,,0.43311634333637294,1559,2041,0,,WHITE,,,0,,WHITE,True,CORRECT,0.6900746999999683,690.0746999999683
3,20260325_121052,D,J,False,MANUAL,3,158,958,fixed_delta,0.03626602127557052,0.01404684716676857,,,,,0.5320728366279954,1915,1685,0,,BLACK,,,0,,BLACK,True,CORRECT,1.0920904999984486,1092.0904999984486
3,20260325_121052,D,J,False,MANUAL,3,159,959,fixed_delta,0.03626602127557052,0.01404684716676857,,,,,0.46235223189897284,1664,1936,0,,WHITE,,,0,,WHITE,True,CORRECT,0.5751062000017555,575.1062000017555
3,20260325_121052,D,J,False,MANUAL,3,160,960,fixed_delta,0.03626602127557052,0.01404684716676857,,,,,0.45863683054340365,1651,1949,0,,WHITE,,,0,,WHITE,True,CORRECT,0.6126122000005125,612.6122000005125
3,20260325_121052,D,J,False,MANUAL,3,161,961,fixed_delta,0.03626602127557052,0.01404684716676857,,,,,0.5228977292931649,1882,1718,0,,BLACK,,,0,,WHITE,False,INCORRECT,1.769391199999518,1769.391199999518
3,20260325_121052,D,J,False,MANUAL,3,162,962,fixed_delta,0.03626602127557052,0.01404684716676857,,,,,0.5514523126936375,1985,1615,0,,BLACK,,,0,,BLACK,True,CORRECT,1.3203871000005165,1320.3871000005165
3,20260325_121052,D,J,False,MANUAL,3,163,963,fixed_delta,0.03626602127557052,0.01404684716676857,,,,,0.45076216684949366,1623,1977,0,,WHITE,,,0,,WHITE,True,CORRECT,0.6282162999996217,628.2162999996217
3,20260325_121052,D,J,False,MANUAL,3,164,964,fixed_delta,0.03626602127557052,0.01404684716676857,,,,,0.4787420325105338,1723,1877,0,,WHITE,,,0,,BLACK,False,INCORRECT,0.763671599999725,763.671599999725
3,20260325_121052,D,J,False,MANUAL,3,165,965,fixed_delta,0.03626602127557052,0.01404684716676857,,,,,0.5187755967931764,1868,1732,0,,BLACK,,,0,,WHITE,False,INCORRECT,0.9234298999999737,923.4298999999737
3,20260325_121052,D,J,False,MANUAL,3,166,966,fixed_delta,0.03626602127557052,0.01404684716676857,,,,,0.4744697916498555,1708,1892,0,,WHITE,,,0,,BLACK,False,INCORRECT,0.9658309000005829,965.8309000005829
3,20260325_121052,D,J,False,MANUAL,3,167,967,fixed_delta,0.03626602127557052,0.01404684716676857,,,,,0.5171635337952177,1862,1738,0,,BLACK,,,0,,BLACK,True,CORRECT,2.7984027999991667,2798.4027999991667
3,20260325_121052,D,J,False,MANUAL,3,168,968,fixed_delta,0.03626602127557052,0.01404684716676857,,,,,0.5425217301450749,1953,1647,0,,BLACK,,,0,,BLACK,True,CORRECT,6.058113299999604,6058.113299999604
3,20260325_121052,D,J,False,MANUAL,3,169,969,fixed_delta,0.03626602127557052,0.01404684716676857,,,,,0.44699090172617506,1609,1991,0,,WHITE,,,0,,WHITE,True,CORRECT,1.5352398000013636,1535.2398000013636
3,20260325_121052,D,J,False,MANUAL,3,170,970,fixed_delta,0.03626602127557052,0.01404684716676857,,,,,0.46163579904935115,1662,1938,0,,WHITE,,,0,,WHITE,True,CORRECT,0.601115800000116,601.115800000116
3,20260325_121052,D,J,False,MANUAL,3,171,971,fixed_delta,0.03626602127557052,0.01404684716676857,,,,,0.5038152669343959,1814,1786,0,,BLACK,,,0,,WHITE,False,INCORRECT,0.8811504999994213,881.1504999994213
3,20260325_121052,D,J,False,MANUAL,3,172,972,fixed_delta,0.03626602127557052,0.01404684716676857,,,,,0.5500997145196638,1980,1620,0,,BLACK,,,0,,WHITE,False,INCORRECT,0.8455911999990349,845.5911999990349
3,20260325_121052,D,J,False,MANUAL,3,173,973,fixed_delta,0.03626602127557052,0.01404684716676857,,,,,0.4685931971020233,1687,1913,0,,WHITE,,,0,,BLACK,False,INCORRECT,0.5304861999993591,530.4861999993591
3,20260325_121052,D,J,False,MANUAL,3,174,974,fixed_delta,0.03626602127557052,0.01404684716676857,,,,,0.5361724893336379,1930,1670,0,,BLACK,,,0,,WHITE,False,INCORRECT,0.9511973999997281,951.1973999997281
3,20260325_121052,D,J,False,MANUAL,3,175,975,fixed_delta,0.03626602127557052,0.01404684716676857,,,,,0.4591726568295001,1653,1947,0,,WHITE,,,0,,WHITE,True,CORRECT,0.7674533999997948,767.4533999997948
3,20260325_121052,D,J,False,MANUAL,3,176,976,fixed_delta,0.03626602127557052,0.01404684716676857,,,,,0.527972164199626,1901,1699,0,,BLACK,,,0,,WHITE,False,INCORRECT,0.688834600001428,688.834600001428
3,20260325_121052,D,J,False,MANUAL,3,177,977,fixed_delta,0.03626602127557052,0.01404684716676857,,,,,0.4723863467796885,1701,1899,0,,WHITE,,,0,,WHITE,True,CORRECT,1.8631721999990987,1863.1721999990987
3,20260325_121052,D,J,False,MANUAL,3,178,978,fixed_delta,0.03626602127557052,0.01404684716676857,,,,,0.43481414644313315,1565,2035,0,,WHITE,,,0,,WHITE,True,CORRECT,0.7061556999997265,706.1556999997265
3,20260325_121052,D,J,False,MANUAL,3,179,979,fixed_delta,0.03626602127557052,0.01404684716676857,,,,,0.5508058906553258,1983,1617,0,,BLACK,,,0,,BLACK,True,CORRECT,0.6350739999998041,635.0739999998041
3,20260325_121052,D,J,False,MANUAL,3,180,980,fixed_delta,0.03626602127557052,0.01404684716676857,,,,,0.46560296406100143,1676,1924,0,,WHITE,,,0,,WHITE,True,CORRECT,0.585249499999918,585.249499999918
3,20260325_121052,D,J,False,MANUAL,3,181,981,fixed_delta,0.03626602127557052,0.01404684716676857,,,,,0.4879678191305362,1757,1843,0,,WHITE,,,0,,WHITE,True,CORRECT,0.7488828999994439,748.8828999994439
3,20260325_121052,D,J,False,MANUAL,3,182,982,fixed_delta,0.03626602127557052,0.01404684716676857,,,,,0.45830651193128324,1650,1950,0,,WHITE,,,0,,WHITE,True,CORRECT,1.3060011999987182,1306.0011999987182
3,20260325_121052,D,J,False,MANUAL,3,183,983,fixed_delta,0.03626602127557052,0.01404684716676857,,,,,0.46487158348852814,1674,1926,0,,WHITE,,,0,,WHITE,True,CORRECT,0.8111473999997543,811.1473999997543
3,20260325_121052,D,J,False,MANUAL,3,184,984,fixed_delta,0.03626602127557052,0.01404684716676857,,,,,0.56385494592958,2030,1570,0,,BLACK,,,0,,BLACK,True,CORRECT,0.4970692000006238,497.0692000006238
3,20260325_121052,D,J,False,MANUAL,3,185,985,fixed_delta,0.03626602127557052,0.01404684716676857,,,,,0.5403429338855154,1945,1655,0,,BLACK,,,0,,BLACK,True,CORRECT,0.9559351999996579,955.9351999996579
3,20260325_121052,D,J,False,MANUAL,3,186,986,fixed_delta,0.03626602127557052,0.01404684716676857,,,,,0.5753042551742537,2071,1529,0,,BLACK,,,0,,BLACK,True,CORRECT,1.0196986000009929,1019.6986000009929
3,20260325_121052,D,J,False,MANUAL,3,187,987,fixed_delta,0.03626602127557052,0.01404684716676857,,,,,0.5485499638208284,1975,1625,0,,BLACK,,,0,,WHITE,False,INCORRECT,0.7642132999990281,764.2132999990281
3,20260325_121052,D,J,False,MANUAL,3,188,988,fixed_delta,0.03626602127557052,0.01404684716676857,,,,,0.4721507998772965,1700,1900,0,,WHITE,,,0,,WHITE,True,CORRECT,0.7917901999990136,791.7901999990136
3,20260325_121052,D,J,False,MANUAL,3,189,989,fixed_delta,0.03626602127557052,0.01404684716676857,,,,,0.5443071196169744,1960,1640,0,,BLACK,,,0,,BLACK,True,CORRECT,1.4747343999988516,1474.7343999988516
3,20260325_121052,D,J,False,MANUAL,3,190,990,fixed_delta,0.03626602127557052,0.01404684716676857,,,,,0.48146694488975394,1733,1867,0,,WHITE,,,0,,WHITE,True,CORRECT,1.952787599999283,1952.787599999283
3,20260325_121052,D,J,False,MANUAL,3,191,991,fixed_delta,0.03626602127557052,0.01404684716676857,,,,,0.5210351107034457,1876,1724,0,,BLACK,,,0,,BLACK,True,CORRECT,1.036790899999687,1036.790899999687
3,20260325_121052,D,J,False,MANUAL,3,192,992,fixed_delta,0.03626602127557052,0.01404684716676857,,,,,0.5345655902671207,1924,1676,0,,BLACK,,,0,,BLACK,True,CORRECT,1.022239300000365,1022.2393000003649
3,20260325_121052,D,J,False,MANUAL,3,193,993,fixed_delta,0.03626602127557052,0.01404684716676857,,,,,0.5368528679190181,1933,1667,0,,BLACK,,,0,,BLACK,True,CORRECT,1.194605099999535,1194.605099999535
3,20260325_121052,D,J,False,MANUAL,3,194,994,fixed_delta,0.03626602127557052,0.01404684716676857,,,,,0.5381994339372627,1938,1662,0,,BLACK,,,0,,BLACK,True,CORRECT,1.4959093000015855,1495.9093000015855
3,20260325_121052,D,J,False,MANUAL,3,195,995,fixed_delta,0.03626602127557052,0.01404684716676857,,,,,0.45741172087051096,1647,1953,0,,WHITE,,,0,,WHITE,True,CORRECT,0.8646636000012222,864.6636000012222
3,20260325_121052,D,J,False,MANUAL,3,196,996,fixed_delta,0.03626602127557052,0.01404684716676857,,,,,0.5002777777777778,1801,1799,0,,BLACK,,,0,,BLACK,True,CORRECT,1.0316452999995818,1031.6452999995818
3,20260325_121052,D,J,False,MANUAL,3,197,997,fixed_delta,0.03626602127557052,0.01404684716676857,,,,,0.5060055821230305,1822,1778,0,,BLACK,,,0,,BLACK,True,CORRECT,1.320768899999166,1320.768899999166
3,20260325_121052,D,J,False,MANUAL,3,198,998,fixed_delta,0.03626602127557052,0.01404684716676857,,,,,0.45940648559953096,1654,1946,0,,WHITE,,,0,,BLACK,False,INCORRECT,1.9118817999988096,1911.8817999988096
3,20260325_121052,D,J,False,MANUAL,3,199,999,fixed_delta,0.03626602127557052,0.01404684716676857,,,,,0.44469273156426625,1601,1999,0,,WHITE,,,0,,WHITE,True,CORRECT,0.682634799999505,682.634799999505
3,20260325_121052,D,J,False,MANUAL,3,200,1000,fixed_delta,0.03626602127557052,0.01404684716676857,,,,,0.47298687536455114,1703,1897,0,,WHITE,,,0,,BLACK,False,INCORRECT,1.203857099999368,1203.857099999368
3,20260325_121052,D,J,False,MANUAL,3,201,1001,fixed_delta,0.03626602127557052,0.01404684716676857,,,,,0.5287450410509301,1903,1697,0,,BLACK,,,0,,BLACK,True,CORRECT,0.8812140000009094,881.2140000009094
3,20260325_121052,D,J,False,MANUAL,3,202,1002,fixed_delta,0.03626602127557052,0.01404684716676857,,,,,0.5362497882167985,1930,1670,0,,BLACK,,,0,,WHITE,False,INCORRECT,1.3358590000007098,1335.8590000007098
3,20260325_121052,D,J,False,MANUAL,3,203,1003,fixed_delta,0.03626602127557052,0.01404684716676857,,,,,0.5501753632756573,1981,1619,0,,BLACK,,,0,,BLACK,True,CORRECT,4.194026700000904,4194.026700000904
3,20260325_121052,D,J,False,MANUAL,3,204,1004,fixed_delta,0.03626602127557052,0.01404684716676857,,,,,0.5356303513581486,1928,1672,0,,BLACK,,,0,,BLACK,True,CORRECT,1.3509928999992553,1350.9928999992553
3,20260325_121052,D,J,False,MANUAL,3,205,1005,fixed_delta,0.03626602127557052,0.01404684716676857,,,,,0.47019804117991526,1693,1907,0,,WHITE,,,0,,WHITE,True,CORRECT,0.7544390999992174,754.4390999992174
3,20260325_121052,D,J,False,MANUAL,3,206,1006,fixed_delta,0.03626602127557052,0.01404684716676857,,,,,0.44399105418972884,1598,2002,0,,WHITE,,,0,,WHITE,True,CORRECT,0.589130499998646,589.130499998646
3,20260325_121052,D,J,False,MANUAL,3,207,1007,fixed_delta,0.03626602127557052,0.01404684716676857,,,,,0.4712125264298431,1696,1904,0,,WHITE,,,0,,BLACK,False,INCORRECT,3.262085299998944,3262.085299998944
3,20260325_121052,D,J,False,MANUAL,3,208,1008,fixed_delta,0.03626602127557052,0.01404684716676857,,,,,0.5061571015879193,1822,1778,0,,BLACK,,,0,,BLACK,True,CORRECT,1.053658800001358,1053.658800001358
3,20260325_121052,D,J,False,MANUAL,3,209,1009,fixed_delta,0.03626602127557052,0.01404684716676857,,,,,0.4390933830319245,1581,2019,0,,WHITE,,,0,,BLACK,False,INCORRECT,0.897874000000229,897.874000000229
3,20260325_121052,D,J,False,MANUAL,3,210,1010,fixed_delta,0.03626602127557052,0.01404684716676857,,,,,0.4945277625905124,1780,1820,0,,WHITE,,,0,,WHITE,True,CORRECT,1.1515959999996994,1151.5959999996994
3,20260325_121052,D,J,False,MANUAL,3,211,1011,fixed_delta,0.03626602127557052,0.01404684716676857,,,,,0.5637171028963573,2029,1571,0,,BLACK,,,0,,BLACK,True,CORRECT,0.7307693999991898,730.7693999991898
3,20260325_121052,D,J,False,MANUAL,3,212,1012,fixed_delta,0.03626602127557052,0.01404684716676857,,,,,0.4313531307937036,1553,2047,0,,WHITE,,,0,,WHITE,True,CORRECT,0.6829281999998784,682.9281999998784
3,20260325_121052,D,J,False,MANUAL,3,213,1013,fixed_delta,0.03626602127557052,0.01404684716676857,,,,,0.45680159425841194,1644,1956,0,,WHITE,,,0,,WHITE,True,CORRECT,0.8226489999997284,822.6489999997284
3,20260325_121052,D,J,False,MANUAL,3,214,1014,fixed_delta,0.03626602127557052,0.01404684716676857,,,,,0.5239410068003584,1886,1714,0,,BLACK,,,0,,BLACK,True,CORRECT,0.7293965000008029,729.3965000008029
3,20260325_121052,D,J,False,MANUAL,3,215,1015,fixed_delta,0.03626602127557052,0.01404684716676857,,,,,0.5326046915457153,1917,1683,0,,BLACK,,,0,,BLACK,True,CORRECT,0.7699396000007255,769.9396000007255
3,20260325_121052,D,J,False,MANUAL,3,216,1016,fixed_delta,0.03626602127557052,0.01404684716676857,,,,,0.4621257523110042,1664,1936,0,,WHITE,,,0,,WHITE,True,CORRECT,0.8243249999995896,824.3249999995896
3,20260325_121052,D,J,False,MANUAL,3,217,1017,fixed_delta,0.03626602127557052,0.01404684716676857,,,,,0.4623974249154797,1665,1935,0,,WHITE,,,0,,WHITE,True,CORRECT,0.7829290999998193,782.9290999998193
3,20260325_121052,D,J,False,MANUAL,3,218,1018,fixed_delta,0.03626602127557052,0.01404684716676857,,,,,0.5513241106449187,1985,1615,0,,BLACK,,,0,,BLACK,True,CORRECT,0.8619761999998445,861.9761999998445
3,20260325_121052,D,J,False,MANUAL,3,219,1019,fixed_delta,0.03626602127557052,0.01404684716676857,,,,,0.4562357707229698,1642,1958,0,,WHITE,,,0,,WHITE,True,CORRECT,0.7511420999999245,751.1420999999245
3,20260325_121052,D,J,False,MANUAL,3,220,1020,fixed_delta,0.03626602127557052,0.01404684716676857,,,,,0.5254977083264198,1892,1708,0,,BLACK,,,0,,BLACK,True,CORRECT,0.7785514000006515,778.5514000006515
3,20260325_121052,D,J,False,MANUAL,3,221,1021,fixed_delta,0.03626602127557052,0.01404684716676857,,,,,0.5387927644388608,1940,1660,0,,BLACK,,,0,,WHITE,False,INCORRECT,0.7618847000012465,761.8847000012465
3,20260325_121052,D,J,False,MANUAL,3,222,1022,fixed_delta,0.03626602127557052,0.01404684716676857,,,,,0.4568945474573899,1645,1955,0,,WHITE,,,0,,BLACK,False,INCORRECT,3.0229718999999022,3022.9718999999022
3,20260325_121052,D,J,False,MANUAL,3,223,1023,fixed_delta,0.03626602127557052,0.01404684716676857,,,,,0.5425815169242438,1953,1647,0,,BLACK,,,0,,BLACK,True,CORRECT,0.6955949000002875,695.5949000002875
3,20260325_121052,D,J,False,MANUAL,3,224,1024,fixed_delta,0.03626602127557052,0.01404684716676857,,,,,0.45366895100179205,1633,1967,0,,WHITE,,,0,,WHITE,True,CORRECT,0.6773044000001391,677.3044000001391
3,20260325_121052,D,J,False,MANUAL,3,225,1025,fixed_delta,0.03626602127557052,0.01404684716676857,,,,,0.4881283675247855,1757,1843,0,,WHITE,,,0,,WHITE,True,CORRECT,3.2159628000008524,3215.9628000008524
3,20260325_121052,D,J,False,MANUAL,3,226,1026,fixed_delta,0.03626602127557052,0.01404684716676857,,,,,0.5242651153123872,1887,1713,0,,BLACK,,,0,,BLACK,True,CORRECT,0.8026468999996723,802.6468999996723
3,20260325_121052,D,J,False,MANUAL,3,227,1027,fixed_delta,0.03626602127557052,0.01404684716676857,,,,,0.5158093664572712,1857,1743,0,,BLACK,,,0,,BLACK,True,CORRECT,0.7351801000004343,735.1801000004343
3,20260325_121052,D,J,False,MANUAL,3,228,1028,fixed_delta,0.03626602127557052,0.01404684716676857,,,,,0.46382630035490996,1670,1930,0,,WHITE,,,0,,WHITE,True,CORRECT,0.69564790000004,695.64790000004
3,20260325_121052,D,J,False,MANUAL,3,229,1029,fixed_delta,0.03626602127557052,0.01404684716676857,,,,,0.5470916404432091,1970,1630,0,,BLACK,,,0,,WHITE,False,INCORRECT,1.4177963999991334,1417.7963999991334
3,20260325_121052,D,J,False,MANUAL,3,230,1030,fixed_delta,0.03626602127557052,0.01404684716676857,,,,,0.455973489888177,1642,1958,0,,WHITE,,,0,,WHITE,True,CORRECT,1.1590548999993189,1159.0548999993189
3,20260325_121052,D,J,False,MANUAL,3,231,1031,fixed_delta,0.03626602127557052,0.01404684716676857,,,,,0.553917189827001,1994,1606,0,,BLACK,,,0,,BLACK,True,CORRECT,2.2058330999989266,2205.8330999989266
3,20260325_121052,D,J,False,MANUAL,3,232,1032,fixed_delta,0.03626602127557052,0.01404684716676857,,,,,0.4742688849781763,1707,1893,0,,WHITE,,,0,,WHITE,True,CORRECT,2.6118039000011777,2611.8039000011777
3,20260325_121052,D,J,False,MANUAL,3,233,1033,fixed_delta,0.03626602127557052,0.01404684716676857,,,,,0.5334668077659941,1920,1680,0,,BLACK,,,0,,WHITE,False,INCORRECT,2.762900100000479,2762.900100000479
3,20260325_121052,D,J,False,MANUAL,3,234,1034,fixed_delta,0.03626602127557052,0.01404684716676857,,,,,0.5422100435902628,1952,1648,0,,BLACK,,,0,,BLACK,True,CORRECT,1.9528296000007686,1952.8296000007686
3,20260325_121052,D,J,False,MANUAL,3,235,1035,fixed_delta,0.03626602127557052,0.01404684716676857,,,,,0.461460986010647,1661,1939,0,,WHITE,,,0,,BLACK,False,INCORRECT,2.852541199999905,2852.541199999905
3,20260325_121052,D,J,False,MANUAL,3,236,1036,fixed_delta,0.03626602127557052,0.01404684716676857,,,,,0.4778808153213026,1720,1880,0,,WHITE,,,0,,BLACK,False,INCORRECT,3.2400149000004603,3240.0149000004603
3,20260325_121052,D,J,False,MANUAL,3,237,1037,fixed_delta,0.03626602127557052,0.01404684716676857,,,,,0.5343631563403853,1924,1676,0,,BLACK,,,0,,BLACK,True,CORRECT,0.6898853999991843,689.8853999991843
3,20260325_121052,D,J,False,MANUAL,3,238,1038,fixed_delta,0.03626602127557052,0.01404684716676857,,,,,0.5288735582668106,1904,1696,0,,BLACK,,,0,,BLACK,True,CORRECT,6.079130699999951,6079.130699999951
3,20260325_121052,D,J,False,MANUAL,3,239,1039,fixed_delta,0.03626602127557052,0.01404684716676857,,,,,0.5214418884222037,1877,1723,0,,BLACK,,,0,,WHITE,False,INCORRECT,1.651563499999611,1651.563499999611
3,20260325_121052,D,J,False,MANUAL,3,240,1040,fixed_delta,0.03626602127557052,0.01404684716676857,,,,,0.5287512605428063,1904,1696,0,,BLACK,,,0,,BLACK,True,CORRECT,0.5989066000001912,598.9066000001912
3,20260325_121052,D,J,False,MANUAL,3,241,1041,fixed_delta,0.03626602127557052,0.01404684716676857,,,,,0.5566643839435166,2004,1596,0,,BLACK,,,0,,BLACK,True,CORRECT,0.6467044000000897,646.7044000000897
3,20260325_121052,D,J,False,MANUAL,3,242,1042,fixed_delta,0.03626602127557052,0.01404684716676857,,,,,0.45904008398245966,1653,1947,0,,WHITE,,,0,,BLACK,False,INCORRECT,0.536013400000229,536.013400000229
3,20260325_121052,D,J,False,MANUAL,3,243,1043,fixed_delta,0.03626602127557052,0.01404684716676857,,,,,0.519515186897241,1870,1730,0,,BLACK,,,0,,WHITE,False,INCORRECT,2.5208481999998185,2520.8481999998185
3,20260325_121052,D,J,False,MANUAL,3,244,1044,fixed_delta,0.03626602127557052,0.01404684716676857,,,,,0.548226721210457,1974,1626,0,,BLACK,,,0,,BLACK,True,CORRECT,0.6498067999982595,649.8067999982595
3,20260325_121052,D,J,False,MANUAL,3,245,1045,fixed_delta,0.03626602127557052,0.01404684716676857,,,,,0.46694899836197,1681,1919,0,,WHITE,,,0,,BLACK,False,INCORRECT,1.569460300001083,1569.460300001083
3,20260325_121052,D,J,False,MANUAL,3,246,1046,fixed_delta,0.03626602127557052,0.01404684716676857,,,,,0.5461847271636726,1966,1634,0,,BLACK,,,0,,BLACK,True,CORRECT,0.7166187000002537,716.6187000002537
3,20260325_121052,D,J,False,MANUAL,3,247,1047,fixed_delta,0.03626602127557052,0.01404684716676857,,,,,0.5251111540486375,1890,1710,0,,BLACK,,,0,,BLACK,True,CORRECT,0.9551534999991418,955.1534999991418
3,20260325_121052,D,J,False,MANUAL,3,248,1048,fixed_delta,0.03626602127557052,0.01404684716676857,,,,,0.44454443183697406,1600,2000,0,,WHITE,,,0,,WHITE,True,CORRECT,0.6538701999998011,653.8701999998011
3,20260325_121052,D,J,False,MANUAL,3,249,1049,fixed_delta,0.03626602127557052,0.01404684716676857,,,,,0.5472882594281734,1970,1630,0,,BLACK,,,0,,BLACK,True,CORRECT,0.6939399000002595,693.9399000002595
3,20260325_121052,D,J,False,MANUAL,3,250,1050,fixed_delta,0.03626602127557052,0.01404684716676857,,,,,0.4888869297123884,1760,1840,0,,WHITE,,,0,,BLACK,False,INCORRECT,2.361828900000546,2361.828900000546
3,20260325_121052,D,J,False,MANUAL,3,251,1051,fixed_delta,0.03626602127557052,0.01404684716676857,,,,,0.5365557195217528,1932,1668,0,,BLACK,,,0,,BLACK,True,CORRECT,0.6771406999996543,677.1406999996543
3,20260325_121052,D,J,False,MANUAL,3,252,1052,fixed_delta,0.03626602127557052,0.01404684716676857,,,,,0.46378437612582757,1670,1930,0,,WHITE,,,0,,WHITE,True,CORRECT,0.55404819999967,554.04819999967
3,20260325_121052,D,J,False,MANUAL,3,253,1053,fixed_delta,0.03626602127557052,0.01404684716676857,,,,,0.5195077909757247,1870,1730,0,,BLACK,,,0,,WHITE,False,INCORRECT,1.0045735000003333,1004.5735000003333
3,20260325_121052,D,J,False,MANUAL,3,254,1054,fixed_delta,0.03626602127557052,0.01404684716676857,,,,,0.542462239432606,1953,1647,0,,BLACK,,,0,,WHITE,False,INCORRECT,2.1697887999998784,2169.7887999998784
3,20260325_121052,D,J,False,MANUAL,3,255,1055,fixed_delta,0.03626602127557052,0.01404684716676857,,,,,0.45254724959846243,1629,1971,0,,WHITE,,,0,,WHITE,True,CORRECT,0.6474655000001803,647.4655000001803
3,20260325_121052,D,J,False,MANUAL,3,256,1056,fixed_delta,0.03626602127557052,0.01404684716676857,,,,,0.47477525647882896,1709,1891,0,,WHITE,,,0,,WHITE,True,CORRECT,0.6905444000003627,690.5444000003627
3,20260325_121052,D,J,False,MANUAL,3,257,1057,fixed_delta,0.03626602127557052,0.01404684716676857,,,,,0.510756407431423,1839,1761,0,,BLACK,,,0,,WHITE,False,INCORRECT,0.7021084000007249,702.1084000007249
3,20260325_121052,D,J,False,MANUAL,3,258,1058,fixed_delta,0.03626602127557052,0.01404684716676857,,,,,0.46031384238268536,1657,1943,0,,WHITE,,,0,,WHITE,True,CORRECT,0.6260848000001715,626.0848000001715
3,20260325_121052,D,J,False,MANUAL,3,259,1059,fixed_delta,0.03626602127557052,0.01404684716676857,,,,,0.5423413252040516,1952,1648,0,,BLACK,,,0,,BLACK,True,CORRECT,1.8428323999996792,1842.8323999996792
3,20260325_121052,D,J,False,MANUAL,3,260,1060,fixed_delta,0.03626602127557052,0.01404684716676857,,,,,0.4445538996052325,1600,2000,0,,WHITE,,,0,,WHITE,True,CORRECT,0.7257771999993565,725.7771999993565
3,20260325_121052,D,J,False,MANUAL,3,261,1061,fixed_delta,0.03626602127557052,0.01404684716676857,,,,,0.5501677789410588,1981,1619,0,,BLACK,,,0,,BLACK,True,CORRECT,1.3261744999999792,1326.1744999999792
3,20260325_121052,D,J,False,MANUAL,3,262,1062,fixed_delta,0.03626602127557052,0.01404684716676857,,,,,0.45827430617489684,1650,1950,0,,WHITE,,,0,,WHITE,True,CORRECT,0.9089765999997326,908.9765999997326
3,20260325_121052,D,J,False,MANUAL,3,263,1063,fixed_delta,0.03626602127557052,0.01404684716676857,,,,,0.5617726145548307,2022,1578,0,,BLACK,,,0,,BLACK,True,CORRECT,1.2079599000007875,1207.9599000007875
3,20260325_121052,D,J,False,MANUAL,3,264,1064,fixed_delta,0.03626602127557052,0.01404684716676857,,,,,0.4602945354254252,1657,1943,0,,WHITE,,,0,,WHITE,True,CORRECT,0.7041358000005857,704.1358000005857
3,20260325_121052,D,J,False,MANUAL,3,265,1065,fixed_delta,0.03626602127557052,0.01404684716676857,,,,,0.5430676792489866,1955,1645,0,,BLACK,,,0,,BLACK,True,CORRECT,0.6737535000011121,673.7535000011121
3,20260325_121052,D,J,False,MANUAL,3,266,1066,fixed_delta,0.03626602127557052,0.01404684716676857,,,,,0.4843572520105597,1744,1856,0,,WHITE,,,0,,WHITE,True,CORRECT,0.6953212999997049,695.3212999997049
3,20260325_121052,D,J,False,MANUAL,3,267,1067,fixed_delta,0.03626602127557052,0.01404684716676857,,,,,0.475857315793533,1713,1887,0,,WHITE,,,0,,WHITE,True,CORRECT,0.8428971000012098,842.8971000012098
3,20260325_121052,D,J,False,MANUAL,3,268,1068,fixed_delta,0.03626602127557052,0.01404684716676857,,,,,0.47506710304385724,1710,1890,0,,WHITE,,,0,,WHITE,True,CORRECT,0.5475854999986041,547.5854999986041
3,20260325_121052,D,J,False,MANUAL,3,269,1069,fixed_delta,0.03626602127557052,0.01404684716676857,,,,,0.5445974483929158,1961,1639,0,,BLACK,,,0,,BLACK,True,CORRECT,1.4202562000009493,1420.2562000009493
3,20260325_121052,D,J,False,MANUAL,3,270,1070,fixed_delta,0.03626602127557052,0.01404684716676857,,,,,0.4631083699462654,1667,1933,0,,WHITE,,,0,,WHITE,True,CORRECT,0.8673579000005702,867.3579000005702
3,20260325_121052,D,J,False,MANUAL,3,271,1071,fixed_delta,0.03626602127557052,0.01404684716676857,,,,,0.5417538760431325,1950,1650,0,,BLACK,,,0,,BLACK,True,CORRECT,0.874194299998635,874.194299998635
3,20260325_121052,D,J,False,MANUAL,3,272,1072,fixed_delta,0.03626602127557052,0.01404684716676857,,,,,0.5402974843685703,1945,1655,0,,BLACK,,,0,,BLACK,True,CORRECT,0.9912934000003588,991.2934000003588
3,20260325_121052,D,J,False,MANUAL,3,273,1073,fixed_delta,0.03626602127557052,0.01404684716676857,,,,,0.45154661155908205,1626,1974,0,,WHITE,,,0,,WHITE,True,CORRECT,0.8428263000005245,842.8263000005245
3,20260325_121052,D,J,False,MANUAL,3,274,1074,fixed_delta,0.03626602127557052,0.01404684716676857,,,,,0.5507070457209448,1983,1617,0,,BLACK,,,0,,BLACK,True,CORRECT,0.7127421999994112,712.7421999994112
3,20260325_121052,D,J,False,MANUAL,3,275,1075,fixed_delta,0.03626602127557052,0.01404684716676857,,,,,0.5422020275254259,1952,1648,0,,BLACK,,,0,,BLACK,True,CORRECT,0.8236285000002681,823.6285000002681
3,20260325_121052,D,J,False,MANUAL,3,276,1076,fixed_delta,0.03626602127557052,0.01404684716676857,,,,,0.5499910677806076,1980,1620,0,,BLACK,,,0,,BLACK,True,CORRECT,0.6122063999991951,612.2063999991951
3,20260325_121052,D,J,False,MANUAL,3,277,1077,fixed_delta,0.03626602127557052,0.01404684716676857,,,,,0.4589825624675732,1652,1948,0,,WHITE,,,0,,WHITE,True,CORRECT,0.7335813000008784,733.5813000008784
3,20260325_121052,D,J,False,MANUAL,3,278,1078,fixed_delta,0.03626602127557052,0.01404684716676857,,,,,0.5497400468963833,1979,1621,0,,BLACK,,,0,,BLACK,True,CORRECT,0.6911939000001439,691.1939000001439
3,20260325_121052,D,J,False,MANUAL,3,279,1079,fixed_delta,0.03626602127557052,0.01404684716676857,,,,,0.5263226483380201,1895,1705,0,,BLACK,,,0,,BLACK,True,CORRECT,0.7382052000011754,738.2052000011754
3,20260325_121052,D,J,False,MANUAL,3,280,1080,fixed_delta,0.03626602127557052,0.01404684716676857,,,,,0.4403429720432287,1585,2015,0,,WHITE,,,0,,WHITE,True,CORRECT,0.6309651999999915,630.9651999999915
3,20260325_121052,D,J,False,MANUAL,3,281,1081,fixed_delta,0.03626602127557052,0.01404684716676857,,,,,0.45775839807507074,1648,1952,0,,WHITE,,,0,,WHITE,True,CORRECT,1.0685131999998703,1068.5131999998703
3,20260325_121052,D,J,False,MANUAL,3,282,1082,fixed_delta,0.03626602127557052,0.01404684716676857,,,,,0.4508106585697201,1623,1977,0,,WHITE,,,0,,WHITE,True,CORRECT,0.6907847000002221,690.7847000002221
3,20260325_121052,D,J,False,MANUAL,3,283,1083,fixed_delta,0.03626602127557052,0.01404684716676857,,,,,0.5396473027030264,1943,1657,0,,BLACK,,,0,,BLACK,True,CORRECT,0.6865735999999742,686.5735999999742
3,20260325_121052,D,J,False,MANUAL,3,284,1084,fixed_delta,0.03626602127557052,0.01404684716676857,,,,,0.4437241565653631,1597,2003,0,,WHITE,,,0,,WHITE,True,CORRECT,0.6432267000000138,643.2267000000138
3,20260325_121052,D,J,False,MANUAL,3,285,1085,fixed_delta,0.03626602127557052,0.01404684716676857,,,,,0.5247401338719474,1889,1711,0,,BLACK,,,0,,BLACK,True,CORRECT,0.9173594000003504,917.3594000003504
3,20260325_121052,D,J,False,MANUAL,3,286,1086,fixed_delta,0.03626602127557052,0.01404684716676857,,,,,0.5233888642776303,1884,1716,0,,BLACK,,,0,,BLACK,True,CORRECT,0.6473824999993667,647.3824999993667
3,20260325_121052,D,J,False,MANUAL,3,287,1087,fixed_delta,0.03626602127557052,0.01404684716676857,,,,,0.5360874528252166,1930,1670,0,,BLACK,,,0,,BLACK,True,CORRECT,0.6893358999986958,689.3358999986958
3,20260325_121052,D,J,False,MANUAL,3,288,1088,fixed_delta,0.03626602127557052,0.01404684716676857,,,,,0.4760945151254379,1714,1886,0,,WHITE,,,0,,BLACK,False,INCORRECT,0.9488528999991104,948.8528999991104
3,20260325_121052,D,J,False,MANUAL,3,289,1089,fixed_delta,0.03626602127557052,0.01404684716676857,,,,,0.5575480662293554,2007,1593,0,,BLACK,,,0,,BLACK,True,CORRECT,0.7919733999988239,791.9733999988239
3,20260325_121052,D,J,False,MANUAL,3,290,1090,fixed_delta,0.03626602127557052,0.01404684716676857,,,,,0.4789602390612528,1724,1876,0,,WHITE,,,0,,BLACK,False,INCORRECT,0.7606644999996206,760.6644999996206
3,20260325_121052,D,J,False,MANUAL,3,291,1091,fixed_delta,0.03626602127557052,0.01404684716676857,,,,,0.47391119000346804,1706,1894,0,,WHITE,,,0,,BLACK,False,INCORRECT,0.8984676000000036,898.4676000000036
3,20260325_121052,D,J,False,MANUAL,3,292,1092,fixed_delta,0.03626602127557052,0.01404684716676857,,,,,0.4579608241174415,1649,1951,0,,WHITE,,,0,,WHITE,True,CORRECT,0.624234200000501,624.234200000501
3,20260325_121052,D,J,False,MANUAL,3,293,1093,fixed_delta,0.03626602127557052,0.01404684716676857,,,,,0.4799149557169412,1728,1872,0,,WHITE,,,0,,WHITE,True,CORRECT,1.5246069000004354,1524.6069000004354
3,20260325_121052,D,J,False,MANUAL,3,294,1094,fixed_delta,0.03626602127557052,0.01404684716676857,,,,,0.5373348633645529,1934,1666,0,,BLACK,,,0,,BLACK,True,CORRECT,0.6898750000000291,689.8750000000291
3,20260325_121052,D,J,False,MANUAL,3,295,1095,fixed_delta,0.03626602127557052,0.01404684716676857,,,,,0.5330586960947162,1919,1681,0,,BLACK,,,0,,BLACK,True,CORRECT,0.663903399999981,663.903399999981
3,20260325_121052,D,J,False,MANUAL,3,296,1096,fixed_delta,0.03626602127557052,0.01404684716676857,,,,,0.4676975480587526,1684,1916,0,,WHITE,,,0,,BLACK,False,INCORRECT,1.8301317999994353,1830.1317999994353
3,20260325_121052,D,J,False,MANUAL,3,297,1097,fixed_delta,0.03626602127557052,0.01404684716676857,,,,,0.47236483376442084,1701,1899,0,,WHITE,,,0,,BLACK,False,INCORRECT,1.8811409000009007,1881.1409000009007
3,20260325_121052,D,J,False,MANUAL,3,298,1098,fixed_delta,0.03626602127557052,0.01404684716676857,,,,,0.538419651281503,1938,1662,0,,BLACK,,,0,,BLACK,True,CORRECT,0.5824835999992501,582.4835999992501
3,20260325_121052,D,J,False,MANUAL,3,299,1099,fixed_delta,0.03626602127557052,0.01404684716676857,,,,,0.4475582362070279,1611,1989,0,,WHITE,,,0,,WHITE,True,CORRECT,0.58795260000079,587.95260000079
3,20260325_121052,D,J,False,MANUAL,3,300,1100,fixed_delta,0.03626602127557052,0.01404684716676857,,,,,0.5317246456999105,1914,1686,0,,BLACK,,,0,,BLACK,True,CORRECT,0.5469892000000982,546.9892000000982
3,20260325_121052,D,J,False,MANUAL,3,301,1101,fixed_delta,0.03626602127557052,0.01404684716676857,,,,,0.5440274856241093,1958,1642,0,,BLACK,,,0,,BLACK,True,CORRECT,0.6353092000008473,635.3092000008473
3,20260325_121052,D,J,False,MANUAL,3,302,1102,fixed_delta,0.03626602127557052,0.01404684716676857,,,,,0.4705513157920451,1694,1906,0,,WHITE,,,0,,WHITE,True,CORRECT,0.7430869999989227,743.0869999989227
3,20260325_121052,D,J,False,MANUAL,3,303,1103,fixed_delta,0.03626602127557052,0.01404684716676857,,,,,0.46062894522807396,1658,1942,0,,WHITE,,,0,,WHITE,True,CORRECT,0.6183763000008184,618.3763000008184
3,20260325_121052,D,J,False,MANUAL,3,304,1104,fixed_delta,0.03626602127557052,0.01404684716676857,,,,,0.46325278926449354,1668,1932,0,,WHITE,,,0,,WHITE,True,CORRECT,0.5835963000008633,583.5963000008633
3,20260325_121052,D,J,False,MANUAL,3,305,1105,fixed_delta,0.03626602127557052,0.01404684716676857,,,,,0.4629379150870525,1667,1933,0,,WHITE,,,0,,WHITE,True,CORRECT,0.632073799999489,632.073799999489
3,20260325_121052,D,J,False,MANUAL,3,306,1106,fixed_delta,0.03626602127557052,0.01404684716676857,,,,,0.5459209051237323,1965,1635,0,,BLACK,,,0,,BLACK,True,CORRECT,0.6626926000008098,662.6926000008098
3,20260325_121052,D,J,False,MANUAL,3,307,1107,fixed_delta,0.03626602127557052,0.01404684716676857,,,,,0.4668504486791861,1681,1919,0,,WHITE,,,0,,BLACK,False,INCORRECT,0.5663189999995666,566.3189999995666
3,20260325_121052,D,J,False,MANUAL,3,308,1108,fixed_delta,0.03626602127557052,0.01404684716676857,,,,,0.5499672649328726,1980,1620,0,,BLACK,,,0,,BLACK,True,CORRECT,0.9811690999995335,981.1690999995335
3,20260325_121052,D,J,False,MANUAL,3,309,1109,fixed_delta,0.03626602127557052,0.01404684716676857,,,,,0.47381421207928,1706,1894,0,,WHITE,,,0,,WHITE,True,CORRECT,0.6449267000007239,644.9267000007239
3,20260325_121052,D,J,False,MANUAL,3,310,1110,fixed_delta,0.03626602127557052,0.01404684716676857,,,,,0.45698359708800157,1645,1955,0,,WHITE,,,0,,WHITE,True,CORRECT,0.8997376000006625,899.7376000006625
3,20260325_121052,D,J,False,MANUAL,3,311,1111,fixed_delta,0.03626602127557052,0.01404684716676857,,,,,0.4679011103302258,1684,1916,0,,WHITE,,,0,,BLACK,False,INCORRECT,0.7278759000000719,727.8759000000719
3,20260325_121052,D,J,False,MANUAL,3,312,1112,fixed_delta,0.03626602127557052,0.01404684716676857,,,,,0.47012568698895857,1692,1908,0,,WHITE,,,0,,WHITE,True,CORRECT,0.7652218000002904,765.2218000002904
3,20260325_121052,D,J,False,MANUAL,3,313,1113,fixed_delta,0.03626602127557052,0.01404684716676857,,,,,0.4577078437572464,1648,1952,0,,WHITE,,,0,,BLACK,False,INCORRECT,1.2279787000006763,1227.9787000006763
3,20260325_121052,D,J,False,MANUAL,3,314,1114,fixed_delta,0.03626602127557052,0.01404684716676857,,,,,0.5428019453256511,1954,1646,0,,BLACK,,,0,,BLACK,True,CORRECT,0.7451691000005667,745.1691000005667
3,20260325_121052,D,J,False,MANUAL,3,315,1115,fixed_delta,0.03626602127557052,0.01404684716676857,,,,,0.5302795435945288,1909,1691,0,,BLACK,,,0,,BLACK,True,CORRECT,1.3040608999999677,1304.0608999999677
3,20260325_121052,D,J,False,MANUAL,3,316,1116,fixed_delta,0.03626602127557052,0.01404684716676857,,,,,0.5308505938983825,1911,1689,0,,BLACK,,,0,,BLACK,True,CORRECT,1.67071119999855,1670.71119999855
3,20260325_121052,D,J,False,MANUAL,3,317,1117,fixed_delta,0.03626602127557052,0.01404684716676857,,,,,0.5226776761139884,1882,1718,0,,BLACK,,,0,,BLACK,True,CORRECT,0.7437071000003925,743.7071000003925
3,20260325_121052,D,J,False,MANUAL,3,318,1118,fixed_delta,0.03626602127557052,0.01404684716676857,,,,,0.5389239623544133,1940,1660,0,,BLACK,,,0,,BLACK,True,CORRECT,0.6311148000004323,631.1148000004323
3,20260325_121052,D,J,False,MANUAL,3,319,1119,fixed_delta,0.03626602127557052,0.01404684716676857,,,,,0.47530287344627253,1711,1889,0,,WHITE,,,0,,WHITE,True,CORRECT,0.5679407000006904,567.9407000006904
3,20260325_121052,D,J,False,MANUAL,3,320,1120,fixed_delta,0.03626602127557052,0.01404684716676857,,,,,0.5390009430369725,1940,1660,0,,BLACK,,,0,,BLACK,True,CORRECT,1.498304200000348,1498.304200000348
3,20260325_121052,D,J,False,MANUAL,3,321,1121,fixed_delta,0.03626602127557052,0.01404684716676857,,,,,0.5482287612408671,1974,1626,0,,BLACK,,,0,,BLACK,True,CORRECT,3.260622100000546,3260.622100000546
3,20260325_121052,D,J,False,MANUAL,3,322,1122,fixed_delta,0.03626602127557052,0.01404684716676857,,,,,0.47911897635645834,1725,1875,0,,WHITE,,,0,,WHITE,True,CORRECT,2.0963382000009005,2096.3382000009005
3,20260325_121052,D,J,False,MANUAL,3,323,1123,fixed_delta,0.03626602127557052,0.01404684716676857,,,,,0.5259185246700505,1893,1707,0,,BLACK,,,0,,BLACK,True,CORRECT,0.8384345000013127,838.4345000013127
3,20260325_121052,D,J,False,MANUAL,3,324,1124,fixed_delta,0.03626602127557052,0.01404684716676857,,,,,0.531766236080025,1914,1686,0,,BLACK,,,0,,BLACK,True,CORRECT,0.7550905000007333,755.0905000007333
3,20260325_121052,D,J,False,MANUAL,3,325,1125,fixed_delta,0.03626602127557052,0.01404684716676857,,,,,0.5375367411397676,1935,1665,0,,BLACK,,,0,,BLACK,True,CORRECT,0.6851583999996365,685.1583999996365
3,20260325_121052,D,J,False,MANUAL,3,326,1126,fixed_delta,0.03626602127557052,0.01404684716676857,,,,,0.5373788851166033,1935,1665,0,,BLACK,,,0,,BLACK,True,CORRECT,0.7818433000011282,781.8433000011282
3,20260325_121052,D,J,False,MANUAL,3,327,1127,fixed_delta,0.03626602127557052,0.01404684716676857,,,,,0.5328942351018023,1918,1682,0,,BLACK,,,0,,BLACK,True,CORRECT,0.7507688000005146,750.7688000005146
3,20260325_121052,D,J,False,MANUAL,3,328,1128,fixed_delta,0.03626602127557052,0.01404684716676857,,,,,0.45413784714805683,1635,1965,0,,WHITE,,,0,,WHITE,True,CORRECT,0.7288674999999785,728.8674999999785
3,20260325_121052,D,J,False,MANUAL,3,329,1129,fixed_delta,0.03626602127557052,0.01404684716676857,,,,,0.5333172809822883,1920,1680,0,,BLACK,,,0,,WHITE,False,INCORRECT,0.9501442000000679,950.1442000000679
3,20260325_121052,D,J,False,MANUAL,3,330,1130,fixed_delta,0.03626602127557052,0.01404684716676857,,,,,0.4635681580920363,1669,1931,0,,WHITE,,,0,,WHITE,True,CORRECT,1.312994299998536,1312.994299998536
3,20260325_121052,D,J,False,MANUAL,3,331,1131,fixed_delta,0.03626602127557052,0.01404684716676857,,,,,0.4767536679536053,1716,1884,0,,WHITE,,,0,,BLACK,False,INCORRECT,0.9029578999998193,902.9578999998193
3,20260325_121052,D,J,False,MANUAL,3,332,1132,fixed_delta,0.03626602127557052,0.01404684716676857,,,,,0.477553877446,1719,1881,0,,WHITE,,,0,,WHITE,True,CORRECT,0.5960312000006525,596.0312000006525
3,20260325_121052,D,J,False,MANUAL,3,333,1133,fixed_delta,0.03626602127557052,0.01404684716676857,,,,,0.46662993254655505,1680,1920,0,,WHITE,,,0,,WHITE,True,CORRECT,0.7293761000000814,729.3761000000814
3,20260325_121052,D,J,False,MANUAL,3,334,1134,fixed_delta,0.03626602127557052,0.01404684716676857,,,,,0.5446852225548572,1961,1639,0,,BLACK,,,0,,BLACK,True,CORRECT,0.877252899999803,877.252899999803
3,20260325_121052,D,J,False,MANUAL,3,335,1135,fixed_delta,0.03626602127557052,0.01404684716676857,,,,,0.516594921925742,1860,1740,0,,BLACK,,,0,,WHITE,False,INCORRECT,1.6626918000001751,1662.6918000001751
3,20260325_121052,D,J,False,MANUAL,3,336,1136,fixed_delta,0.03626602127557052,0.01404684716676857,,,,,0.46093728377740983,1659,1941,0,,WHITE,,,0,,WHITE,True,CORRECT,0.9763714999990043,976.3714999990043
3,20260325_121052,D,J,False,MANUAL,3,337,1137,fixed_delta,0.03626602127557052,0.01404684716676857,,,,,0.529841607560354,1907,1693,0,,BLACK,,,0,,BLACK,True,CORRECT,1.1844977000000654,1184.4977000000654
3,20260325_121052,D,J,False,MANUAL,3,338,1138,fixed_delta,0.03626602127557052,0.01404684716676857,,,,,0.5768383004563238,2077,1523,0,,BLACK,,,0,,BLACK,True,CORRECT,0.7036664000006567,703.6664000006567
3,20260325_121052,D,J,False,MANUAL,3,339,1139,fixed_delta,0.03626602127557052,0.01404684716676857,,,,,0.45847777716915683,1651,1949,0,,WHITE,,,0,,WHITE,True,CORRECT,0.6177626000007876,617.7626000007876
3,20260325_121052,D,J,False,MANUAL,3,340,1140,fixed_delta,0.03626602127557052,0.01404684716676857,,,,,0.4317236856599068,1554,2046,0,,WHITE,,,0,,WHITE,True,CORRECT,0.8217812000002596,821.7812000002596
3,20260325_121052,D,J,False,MANUAL,3,341,1141,fixed_delta,0.03626602127557052,0.01404684716676857,,,,,0.5603746711145845,2017,1583,0,,BLACK,,,0,,BLACK,True,CORRECT,1.3148781999989296,1314.8781999989296
3,20260325_121052,D,J,False,MANUAL,3,342,1142,fixed_delta,0.03626602127557052,0.01404684716676857,,,,,0.5244061418490851,1888,1712,0,,BLACK,,,0,,BLACK,True,CORRECT,0.9534619000005478,953.4619000005478
3,20260325_121052,D,J,False,MANUAL,3,343,1143,fixed_delta,0.03626602127557052,0.01404684716676857,,,,,0.5612408541233239,2020,1580,0,,BLACK,,,0,,BLACK,True,CORRECT,0.7629639000006136,762.9639000006136
3,20260325_121052,D,J,False,MANUAL,3,344,1144,fixed_delta,0.03626602127557052,0.01404684716676857,,,,,0.5331330087091808,1919,1681,0,,BLACK,,,0,,BLACK,True,CORRECT,0.7056639000002178,705.6639000002178
3,20260325_121052,D,J,False,MANUAL,3,345,1145,fixed_delta,0.03626602127557052,0.01404684716676857,,,,,0.5394673336920969,1942,1658,0,,BLACK,,,0,,BLACK,True,CORRECT,0.7385897000003752,738.5897000003752
3,20260325_121052,D,J,False,MANUAL,3,346,1146,fixed_delta,0.03626602127557052,0.01404684716676857,,,,,0.526582890198567,1896,1704,0,,BLACK,,,0,,BLACK,True,CORRECT,2.8364006000010704,2836.4006000010704
3,20260325_121052,D,J,False,MANUAL,3,347,1147,fixed_delta,0.03626602127557052,0.01404684716676857,,,,,0.5552011964350958,1999,1601,0,,BLACK,,,0,,WHITE,False,INCORRECT,2.007921599999463,2007.921599999463
3,20260325_121052,D,J,False,MANUAL,3,348,1148,fixed_delta,0.03626602127557052,0.01404684716676857,,,,,0.5154433763683286,1856,1744,0,,BLACK,,,0,,WHITE,False,INCORRECT,1.1346742999994603,1134.6742999994603
3,20260325_121052,D,J,False,MANUAL,3,349,1149,fixed_delta,0.03626602127557052,0.01404684716676857,,,,,0.5610002822129447,2020,1580,0,,BLACK,,,0,,BLACK,True,CORRECT,1.484139399999549,1484.139399999549
3,20260325_121052,D,J,False,MANUAL,3,350,1150,fixed_delta,0.03626602127557052,0.01404684716676857,,,,,0.5112933430770605,1841,1759,0,,BLACK,,,0,,BLACK,True,CORRECT,0.710294000000431,710.294000000431
3,20260325_121052,D,J,False,MANUAL,3,351,1151,fixed_delta,0.03626602127557052,0.01404684716676857,,,,,0.4347230068443115,1565,2035,0,,WHITE,,,0,,WHITE,True,CORRECT,0.6575747999995656,657.5747999995656
3,20260325_121052,D,J,False,MANUAL,3,352,1152,fixed_delta,0.03626602127557052,0.01404684716676857,,,,,0.46481333676375775,1673,1927,0,,WHITE,,,0,,WHITE,True,CORRECT,0.8453921000000264,845.3921000000264
3,20260325_121052,D,J,False,MANUAL,3,353,1153,fixed_delta,0.03626602127557052,0.01404684716676857,,,,,0.526142385734272,1894,1706,0,,BLACK,,,0,,BLACK,True,CORRECT,0.9197715000009339,919.7715000009339
3,20260325_121052,D,J,False,MANUAL,3,354,1154,fixed_delta,0.03626602127557052,0.01404684716676857,,,,,0.5002777777777778,1801,1799,0,,BLACK,,,0,,BLACK,True,CORRECT,0.7817825000001903,781.7825000001903
3,20260325_121052,D,J,False,MANUAL,3,355,1155,fixed_delta,0.03626602127557052,0.01404684716676857,,,,,0.4570873205451401,1646,1954,0,,WHITE,,,0,,WHITE,True,CORRECT,2.0822895000001154,2082.2895000001154
3,20260325_121052,D,J,False,MANUAL,3,356,1156,fixed_delta,0.03626602127557052,0.01404684716676857,,,,,0.4495681437858049,1618,1982,0,,WHITE,,,0,,WHITE,True,CORRECT,0.8490051999997377,849.0051999997377
3,20260325_121052,D,J,False,MANUAL,3,357,1157,fixed_delta,0.03626602127557052,0.01404684716676857,,,,,0.5437942549434234,1958,1642,0,,BLACK,,,0,,BLACK,True,CORRECT,2.042916899999909,2042.9168999999092
3,20260325_121052,D,J,False,MANUAL,3,358,1158,fixed_delta,0.03626602127557052,0.01404684716676857,,,,,0.4718750715703716,1699,1901,0,,WHITE,,,0,,WHITE,True,CORRECT,0.7455715000014607,745.5715000014607
3,20260325_121052,D,J,False,MANUAL,3,359,1159,fixed_delta,0.03626602127557052,0.01404684716676857,,,,,0.5284482845944835,1902,1698,0,,BLACK,,,0,,BLACK,True,CORRECT,1.3267441999996663,1326.7441999996663
3,20260325_121052,D,J,False,MANUAL,3,360,1160,fixed_delta,0.03626602127557052,0.01404684716676857,,,,,0.483571365737027,1741,1859,0,,WHITE,,,0,,WHITE,True,CORRECT,0.7403072999986762,740.3072999986762
3,20260325_121052,D,J,False,MANUAL,3,361,1161,fixed_delta,0.03626602127557052,0.01404684716676857,,,,,0.5261205435478233,1894,1706,0,,BLACK,,,0,,BLACK,True,CORRECT,1.829532099998687,1829.532099998687
3,20260325_121052,D,J,False,MANUAL,3,362,1162,fixed_delta,0.03626602127557052,0.01404684716676857,,,,,0.5156899960996791,1856,1744,0,,BLACK,,,0,,BLACK,True,CORRECT,3.0251068999987183,3025.1068999987183
3,20260325_121052,D,J,False,MANUAL,3,363,1163,fixed_delta,0.03626602127557052,0.01404684716676857,,,,,0.4717605514294417,1698,1902,0,,WHITE,,,0,,WHITE,True,CORRECT,0.6946155999994517,694.6155999994517
3,20260325_121052,D,J,False,MANUAL,3,364,1164,fixed_delta,0.03626602127557052,0.01404684716676857,,,,,0.5252458379292541,1891,1709,0,,BLACK,,,0,,BLACK,True,CORRECT,0.8261600000005274,826.1600000005274
3,20260325_121052,D,J,False,MANUAL,3,365,1165,fixed_delta,0.03626602127557052,0.01404684716676857,,,,,0.44462027690101624,1601,1999,0,,WHITE,,,0,,WHITE,True,CORRECT,0.5706273000014335,570.6273000014335
3,20260325_121052,D,J,False,MANUAL,3,366,1166,fixed_delta,0.03626602127557052,0.01404684716676857,,,,,0.5301391567451724,1909,1691,0,,BLACK,,,0,,BLACK,True,CORRECT,0.8876743000000715,887.6743000000715
3,20260325_121052,D,J,False,MANUAL,3,367,1167,fixed_delta,0.03626602127557052,0.01404684716676857,,,,,0.48124743962685007,1732,1868,0,,WHITE,,,0,,WHITE,True,CORRECT,1.7341940000005707,1734.1940000005707
3,20260325_121052,D,J,False,MANUAL,3,368,1168,fixed_delta,0.03626602127557052,0.01404684716676857,,,,,0.5232444679537767,1884,1716,0,,BLACK,,,0,,BLACK,True,CORRECT,0.6875106999996206,687.5106999996206
3,20260325_121052,D,J,False,MANUAL,3,369,1169,fixed_delta,0.03626602127557052,0.01404684716676857,,,,,0.5336492221848168,1921,1679,0,,BLACK,,,0,,BLACK,True,CORRECT,1.3274896999992052,1327.4896999992052
3,20260325_121052,D,J,False,MANUAL,3,370,1170,fixed_delta,0.03626602127557052,0.01404684716676857,,,,,0.46659785138535925,1680,1920,0,,WHITE,,,0,,WHITE,True,CORRECT,0.7208341999994445,720.8341999994445
3,20260325_121052,D,J,False,MANUAL,3,371,1171,fixed_delta,0.03626602127557052,0.01404684716676857,,,,,0.5325421821669062,1917,1683,0,,BLACK,,,0,,BLACK,True,CORRECT,1.8327408000004652,1832.7408000004652
3,20260325_121052,D,J,False,MANUAL,3,372,1172,fixed_delta,0.03626602127557052,0.01404684716676857,,,,,0.45227015188244013,1628,1972,0,,WHITE,,,0,,WHITE,True,CORRECT,0.5867841999988741,586.7841999988741
3,20260325_121052,D,J,False,MANUAL,3,373,1173,fixed_delta,0.03626602127557052,0.01404684716676857,,,,,0.46888816474290607,1688,1912,0,,WHITE,,,0,,BLACK,False,INCORRECT,2.155284099999335,2155.284099999335
3,20260325_121052,D,J,False,MANUAL,3,374,1174,fixed_delta,0.03626602127557052,0.01404684716676857,,,,,0.5262075504443545,1894,1706,0,,BLACK,,,0,,BLACK,True,CORRECT,2.6679117000003316,2667.9117000003316
3,20260325_121052,D,J,False,MANUAL,3,375,1175,fixed_delta,0.03626602127557052,0.01404684716676857,,,,,0.5241986602003957,1887,1713,0,,BLACK,,,0,,BLACK,True,CORRECT,1.6737490000014077,1673.7490000014077
3,20260325_121052,D,J,False,MANUAL,3,376,1176,fixed_delta,0.03626602127557052,0.01404684716676857,,,,,0.47607902447125616,1714,1886,0,,WHITE,,,0,,BLACK,False,INCORRECT,2.6596289000008255,2659.6289000008255
3,20260325_121052,D,J,False,MANUAL,3,377,1177,fixed_delta,0.03626602127557052,0.01404684716676857,,,,,0.5551210087837737,1998,1602,0,,BLACK,,,0,,BLACK,True,CORRECT,1.10212490000049,1102.12490000049
3,20260325_121052,D,J,False,MANUAL,3,378,1178,fixed_delta,0.03626602127557052,0.01404684716676857,,,,,0.45140891379111703,1625,1975,0,,WHITE,,,0,,WHITE,True,CORRECT,0.7355619999998453,735.5619999998453
3,20260325_121052,D,J,False,MANUAL,3,379,1179,fixed_delta,0.03626602127557052,0.01404684716676857,,,,,0.5490755109819315,1977,1623,0,,BLACK,,,0,,BLACK,True,CORRECT,0.8789137999992818,878.9137999992818
3,20260325_121052,D,J,False,MANUAL,3,380,1180,fixed_delta,0.03626602127557052,0.01404684716676857,,,,,0.46683865788796763,1681,1919,0,,WHITE,,,0,,WHITE,True,CORRECT,0.44448779999947874,444.48779999947874
3,20260325_121052,D,J,False,MANUAL,3,381,1181,fixed_delta,0.03626602127557052,0.01404684716676857,,,,,0.4542415942589567,1635,1965,0,,WHITE,,,0,,WHITE,True,CORRECT,0.5837252000001172,583.7252000001172
3,20260325_121052,D,J,False,MANUAL,3,382,1182,fixed_delta,0.03626602127557052,0.01404684716676857,,,,,0.4626946812545564,1666,1934,0,,WHITE,,,0,,WHITE,True,CORRECT,0.4562226999987615,456.2226999987615
3,20260325_121052,D,J,False,MANUAL,3,383,1183,fixed_delta,0.03626602127557052,0.01404684716676857,,,,,0.4683149994773468,1686,1914,0,,WHITE,,,0,,WHITE,True,CORRECT,0.6621549999999843,662.1549999999843
3,20260325_121052,D,J,False,MANUAL,3,384,1184,fixed_delta,0.03626602127557052,0.01404684716676857,,,,,0.5332523886232061,1920,1680,0,,BLACK,,,0,,WHITE,False,INCORRECT,0.4231760000002396,423.1760000002396
3,20260325_121052,D,J,False,MANUAL,3,385,1185,fixed_delta,0.03626602127557052,0.01404684716676857,,,,,0.5414065956033282,1949,1651,0,,BLACK,,,0,,BLACK,True,CORRECT,2.332415900000342,2332.415900000342
3,20260325_121052,D,J,False,MANUAL,3,386,1186,fixed_delta,0.03626602127557052,0.01404684716676857,,,,,0.523509297152028,1885,1715,0,,BLACK,,,0,,BLACK,True,CORRECT,1.6932335999990755,1693.2335999990755
3,20260325_121052,D,J,False,MANUAL,3,387,1187,fixed_delta,0.03626602127557052,0.01404684716676857,,,,,0.5396359015901353,1943,1657,0,,BLACK,,,0,,BLACK,True,CORRECT,3.6585379999996803,3658.5379999996803
3,20260325_121052,D,J,False,MANUAL,3,388,1188,fixed_delta,0.03626602127557052,0.01404684716676857,,,,,0.46944238239945896,1690,1910,0,,WHITE,,,0,,WHITE,True,CORRECT,0.8161664999988716,816.1664999988716
3,20260325_121052,D,J,False,MANUAL,3,389,1189,fixed_delta,0.03626602127557052,0.01404684716676857,,,,,0.5269359771613038,1897,1703,0,,BLACK,,,0,,BLACK,True,CORRECT,0.6949649000016507,694.9649000016507
3,20260325_121052,D,J,False,MANUAL,3,390,1190,fixed_delta,0.03626602127557052,0.01404684716676857,,,,,0.5219427686699166,1879,1721,0,,BLACK,,,0,,BLACK,True,CORRECT,1.0709337000007508,1070.9337000007508
3,20260325_121052,D,J,False,MANUAL,3,391,1191,fixed_delta,0.03626602127557052,0.01404684716676857,,,,,0.5493154458318834,1978,1622,0,,BLACK,,,0,,BLACK,True,CORRECT,1.0000306000001729,1000.0306000001729
3,20260325_121052,D,J,False,MANUAL,3,392,1192,fixed_delta,0.03626602127557052,0.01404684716676857,,,,,0.5426753824478152,1954,1646,0,,BLACK,,,0,,BLACK,True,CORRECT,0.5862981999998738,586.2981999998738
3,20260325_121052,D,J,False,MANUAL,3,393,1193,fixed_delta,0.03626602127557052,0.01404684716676857,,,,,0.43302889287427804,1559,2041,0,,WHITE,,,0,,WHITE,True,CORRECT,0.4993735000007291,499.3735000007291
3,20260325_121052,D,J,False,MANUAL,3,394,1194,fixed_delta,0.03626602127557052,0.01404684716676857,,,,,0.520662893302341,1874,1726,0,,BLACK,,,0,,WHITE,False,INCORRECT,0.881491799998912,881.491799998912
3,20260325_121052,D,J,False,MANUAL,3,395,1195,fixed_delta,0.03626602127557052,0.01404684716676857,,,,,0.5078836263441578,1828,1772,0,,BLACK,,,0,,BLACK,True,CORRECT,0.6502208000001701,650.2208000001701
3,20260325_121052,D,J,False,MANUAL,3,396,1196,fixed_delta,0.03626602127557052,0.01404684716676857,,,,,0.5333182137251096,1920,1680,0,,BLACK,,,0,,BLACK,True,CORRECT,0.6882506999991165,688.2506999991165
3,20260325_121052,D,J,False,MANUAL,3,397,1197,fixed_delta,0.03626602127557052,0.01404684716676857,,,,,0.45457078766905645,1636,1964,0,,WHITE,,,0,,WHITE,True,CORRECT,0.6660357000000658,666.0357000000658
3,20260325_121052,D,J,False,MANUAL,3,398,1198,fixed_delta,0.03626602127557052,0.01404684716676857,,,,,0.4468370730095973,1609,1991,0,,WHITE,,,0,,WHITE,True,CORRECT,0.5416808000009041,541.6808000009041
3,20260325_121052,D,J,False,MANUAL,3,399,1199,fixed_delta,0.03626602127557052,0.01404684716676857,,,,,0.5440468459159444,1959,1641,0,,BLACK,,,0,,BLACK,True,CORRECT,1.1727344999999332,1172.7344999999332
3,20260325_121052,D,J,False,MANUAL,3,400,1200,fixed_delta,0.03626602127557052,0.01404684716676857,,,,,0.5435667791503777,1957,1643,0,,BLACK,,,0,,BLACK,True,CORRECT,0.8133235000004788,813.3235000004788
3,20260325_121052,D,J,False,MANUAL,3,401,1201,fixed_delta,0.03626602127557052,0.01404684716676857,,,,,0.5656810684214386,2036,1564,0,,BLACK,,,0,,BLACK,True,CORRECT,0.8981056000011449,898.1056000011449
3,20260325_121052,D,J,False,MANUAL,3,402,1202,fixed_delta,0.03626602127557052,0.01404684716676857,,,,,0.520278779754175,1873,1727,0,,BLACK,,,0,,BLACK,True,CORRECT,2.061904800000775,2061.904800000775
3,20260325_121052,D,J,False,MANUAL,3,403,1203,fixed_delta,0.03626602127557052,0.01404684716676857,,,,,0.5254253292866468,1892,1708,0,,BLACK,,,0,,BLACK,True,CORRECT,2.6883149999994203,2688.3149999994203
3,20260325_121052,D,J,False,MANUAL,3,404,1204,fixed_delta,0.03626602127557052,0.01404684716676857,,,,,0.5398083602418777,1943,1657,0,,BLACK,,,0,,BLACK,True,CORRECT,0.9068425000004936,906.8425000004936
3,20260325_121052,D,J,False,MANUAL,3,405,1205,fixed_delta,0.03626602127557052,0.01404684716676857,,,,,0.4542167535087621,1635,1965,0,,WHITE,,,0,,WHITE,True,CORRECT,0.6457914999991772,645.7914999991772
3,20260325_121052,D,J,False,MANUAL,3,406,1206,fixed_delta,0.03626602127557052,0.01404684716676857,,,,,0.5549984240556993,1998,1602,0,,BLACK,,,0,,BLACK,True,CORRECT,0.8200042999997095,820.0042999997095
3,20260325_121052,D,J,False,MANUAL,3,407,1207,fixed_delta,0.03626602127557052,0.01404684716676857,,,,,0.5232376950179125,1884,1716,0,,BLACK,,,0,,BLACK,True,CORRECT,1.6372032999988733,1637.2032999988733
3,20260325_121052,D,J,False,MANUAL,3,408,1208,fixed_delta,0.03626602127557052,0.01404684716676857,,,,,0.4730487175191267,1703,1897,0,,WHITE,,,0,,WHITE,True,CORRECT,0.5816076999999495,581.6076999999495
3,20260325_121052,D,J,False,MANUAL,3,409,1209,fixed_delta,0.03626602127557052,0.01404684716676857,,,,,0.5522717837012434,1988,1612,0,,BLACK,,,0,,BLACK,True,CORRECT,0.794500899999548,794.500899999548
3,20260325_121052,D,J,False,MANUAL,3,410,1210,fixed_delta,0.03626602127557052,0.01404684716676857,,,,,0.5401941843511205,1945,1655,0,,BLACK,,,0,,WHITE,False,INCORRECT,0.5447010999996564,544.7010999996564
3,20260325_121052,D,J,False,MANUAL,3,411,1211,fixed_delta,0.03626602127557052,0.01404684716676857,,,,,0.5350117376269923,1926,1674,0,,BLACK,,,0,,BLACK,True,CORRECT,0.6798725999997259,679.8725999997259
3,20260325_121052,D,J,False,MANUAL,3,412,1212,fixed_delta,0.03626602127557052,0.01404684716676857,,,,,0.5485039568128154,1975,1625,0,,BLACK,,,0,,BLACK,True,CORRECT,0.699624800001402,699.624800001402
3,20260325_121052,D,J,False,MANUAL,3,413,1213,fixed_delta,0.03626602127557052,0.01404684716676857,,,,,0.5397365989255868,1943,1657,0,,BLACK,,,0,,BLACK,True,CORRECT,0.730172899999161,730.172899999161
3,20260325_121052,D,J,False,MANUAL,3,414,1214,fixed_delta,0.03626602127557052,0.01404684716676857,,,,,0.529074867543772,1905,1695,0,,BLACK,,,0,,BLACK,True,CORRECT,1.4652375000005122,1465.2375000005122
3,20260325_121052,D,J,False,MANUAL,3,415,1215,fixed_delta,0.03626602127557052,0.01404684716676857,,,,,0.5384112614238988,1938,1662,0,,BLACK,,,0,,BLACK,True,CORRECT,0.9372459999995044,937.2459999995044
3,20260325_121052,D,J,False,MANUAL,3,416,1216,fixed_delta,0.03626602127557052,0.01404684716676857,,,,,0.5390203583722387,1940,1660,0,,BLACK,,,0,,BLACK,True,CORRECT,1.0397166000002471,1039.7166000002471
3,20260325_121052,D,J,False,MANUAL,3,417,1217,fixed_delta,0.03626602127557052,0.01404684716676857,,,,,0.5303097804769177,1909,1691,0,,BLACK,,,0,,BLACK,True,CORRECT,0.8589015000015934,858.9015000015934
3,20260325_121052,D,J,False,MANUAL,3,418,1218,fixed_delta,0.03626602127557052,0.01404684716676857,,,,,0.49972222222222223,1799,1801,0,,WHITE,,,0,,BLACK,False,INCORRECT,1.2080058999999892,1208.0058999999892
3,20260325_121052,D,J,False,MANUAL,3,419,1219,fixed_delta,0.03626602127557052,0.01404684716676857,,,,,0.5321664532663525,1916,1684,0,,BLACK,,,0,,BLACK,True,CORRECT,1.763059599999906,1763.059599999906
3,20260325_121052,D,J,False,MANUAL,3,420,1220,fixed_delta,0.03626602127557052,0.01404684716676857,,,,,0.551368173619725,1985,1615,0,,BLACK,,,0,,BLACK,True,CORRECT,0.9935412000013457,993.5412000013457
3,20260325_121052,D,J,False,MANUAL,3,421,1221,fixed_delta,0.03626602127557052,0.01404684716676857,,,,,0.5430332486946682,1955,1645,0,,BLACK,,,0,,BLACK,True,CORRECT,0.8088504999996076,808.8504999996076
3,20260325_121052,D,J,False,MANUAL,3,422,1222,fixed_delta,0.03626602127557052,0.01404684716676857,,,,,0.5787662048406776,2084,1516,0,,BLACK,,,0,,BLACK,True,CORRECT,0.7383506999995006,738.3506999995006
3,20260325_121052,D,J,False,MANUAL,3,423,1223,fixed_delta,0.03626602127557052,0.01404684716676857,,,,,0.5309359990808673,1911,1689,0,,BLACK,,,0,,BLACK,True,CORRECT,0.6410374999995838,641.0374999995838
3,20260325_121052,D,J,False,MANUAL,3,424,1224,fixed_delta,0.03626602127557052,0.01404684716676857,,,,,0.44619676952760196,1606,1994,0,,WHITE,,,0,,WHITE,True,CORRECT,0.730628400000569,730.628400000569
3,20260325_121052,D,J,False,MANUAL,3,425,1225,fixed_delta,0.03626602127557052,0.01404684716676857,,,,,0.5346953321964935,1925,1675,0,,BLACK,,,0,,BLACK,True,CORRECT,0.6915795000004437,691.5795000004437
3,20260325_121052,D,J,False,MANUAL,3,426,1226,fixed_delta,0.03626602127557052,0.01404684716676857,,,,,0.4726268996509484,1701,1899,0,,WHITE,,,0,,WHITE,True,CORRECT,0.8022252000009757,802.2252000009757
3,20260325_121052,D,J,False,MANUAL,3,427,1227,fixed_delta,0.03626602127557052,0.01404684716676857,,,,,0.5517065757880322,1986,1614,0,,BLACK,,,0,,BLACK,True,CORRECT,0.7417632999986381,741.7632999986381
3,20260325_121052,D,J,False,MANUAL,3,428,1228,fixed_delta,0.03626602127557052,0.01404684716676857,,,,,0.5412225893032152,1948,1652,0,,BLACK,,,0,,BLACK,True,CORRECT,0.8164710000000923,816.4710000000923
3,20260325_121052,D,J,False,MANUAL,3,429,1229,fixed_delta,0.03626602127557052,0.01404684716676857,,,,,0.463368688048086,1668,1932,0,,WHITE,,,0,,WHITE,True,CORRECT,0.6358741000003647,635.8741000003647
3,20260325_121052,D,J,False,MANUAL,3,430,1230,fixed_delta,0.03626602127557052,0.01404684716676857,,,,,0.4756590244858013,1712,1888,0,,WHITE,,,0,,WHITE,True,CORRECT,0.49591179999879387,495.91179999879387
3,20260325_121052,D,J,False,MANUAL,3,431,1231,fixed_delta,0.03626602127557052,0.01404684716676857,,,,,0.4695616610493164,1690,1910,0,,WHITE,,,0,,WHITE,True,CORRECT,0.7472751999994216,747.2751999994216
3,20260325_121052,D,J,False,MANUAL,3,432,1232,fixed_delta,0.03626602127557052,0.01404684716676857,,,,,0.4541962709026684,1635,1965,0,,WHITE,,,0,,WHITE,True,CORRECT,0.6831430000002001,683.1430000002001
3,20260325_121052,D,J,False,MANUAL,3,433,1233,fixed_delta,0.03626602127557052,0.01404684716676857,,,,,0.5354510341129461,1928,1672,0,,BLACK,,,0,,BLACK,True,CORRECT,0.8573489999998856,857.3489999998856
3,20260325_121052,D,J,False,MANUAL,3,434,1234,fixed_delta,0.03626602127557052,0.01404684716676857,,,,,0.49254543146107543,1773,1827,0,,WHITE,,,0,,WHITE,True,CORRECT,0.6864569000008487,686.4569000008487
3,20260325_121052,D,J,False,MANUAL,3,435,1235,fixed_delta,0.03626602127557052,0.01404684716676857,,,,,0.5337275590696455,1921,1679,0,,BLACK,,,0,,BLACK,True,CORRECT,0.9271981000001688,927.1981000001688
3,20260325_121052,D,J,False,MANUAL,3,436,1236,fixed_delta,0.03626602127557052,0.01404684716676857,,,,,0.5236902868996454,1885,1715,0,,BLACK,,,0,,BLACK,True,CORRECT,0.6127887000002374,612.7887000002374
3,20260325_121052,D,J,False,MANUAL,3,437,1237,fixed_delta,0.03626602127557052,0.01404684716676857,,,,,0.5211142432999814,1876,1724,0,,BLACK,,,0,,BLACK,True,CORRECT,0.6460738000005222,646.0738000005222
3,20260325_121052,D,J,False,MANUAL,3,438,1238,fixed_delta,0.03626602127557052,0.01404684716676857,,,,,0.4472950409053942,1610,1990,0,,WHITE,,,0,,WHITE,True,CORRECT,0.736144599999534,736.144599999534
3,20260325_121052,D,J,False,MANUAL,3,439,1239,fixed_delta,0.03626602127557052,0.01404684716676857,,,,,0.5421744635516826,1952,1648,0,,BLACK,,,0,,BLACK,True,CORRECT,1.343190899999172,1343.190899999172
3,20260325_121052,D,J,False,MANUAL,3,440,1240,fixed_delta,0.03626602127557052,0.01404684716676857,,,,,0.46061685584348894,1658,1942,0,,WHITE,,,0,,WHITE,True,CORRECT,0.7672648999996454,767.2648999996454
3,20260325_121052,D,J,False,MANUAL,3,441,1241,fixed_delta,0.03626602127557052,0.01404684716676857,,,,,0.45631779568573,1643,1957,0,,WHITE,,,0,,WHITE,True,CORRECT,0.6320044999993115,632.0044999993115
3,20260325_121052,D,J,False,MANUAL,3,442,1242,fixed_delta,0.03626602127557052,0.01404684716676857,,,,,0.43904573499441496,1581,2019,0,,WHITE,,,0,,WHITE,True,CORRECT,0.733517299999221,733.517299999221
3,20260325_121052,D,J,False,MANUAL,3,443,1243,fixed_delta,0.03626602127557052,0.01404684716676857,,,,,0.5412132755488447,1948,1652,0,,BLACK,,,0,,BLACK,True,CORRECT,0.9039998999996897,903.9998999996897
3,20260325_121052,D,J,False,MANUAL,3,444,1244,fixed_delta,0.03626602127557052,0.01404684716676857,,,,,0.5236648036876097,1885,1715,0,,BLACK,,,0,,BLACK,True,CORRECT,0.7835654000009526,783.5654000009526
3,20260325_121052,D,J,False,MANUAL,3,445,1245,fixed_delta,0.03626602127557052,0.01404684716676857,,,,,0.4560390317876235,1642,1958,0,,WHITE,,,0,,WHITE,True,CORRECT,0.6336679000014556,633.6679000014556
3,20260325_121052,D,J,False,MANUAL,3,446,1246,fixed_delta,0.03626602127557052,0.01404684716676857,,,,,0.4846825713086161,1745,1855,0,,WHITE,,,0,,WHITE,True,CORRECT,0.6546796999991784,654.6796999991784
3,20260325_121052,D,J,False,MANUAL,3,447,1247,fixed_delta,0.03626602127557052,0.01404684716676857,,,,,0.5566188441504114,2004,1596,0,,BLACK,,,0,,BLACK,True,CORRECT,0.6073427999999694,607.3427999999694
3,20260325_121052,D,J,False,MANUAL,3,448,1248,fixed_delta,0.03626602127557052,0.01404684716676857,,,,,0.4837844392166885,1742,1858,0,,WHITE,,,0,,WHITE,True,CORRECT,0.6966696999988926,696.6696999988926
3,20260325_121052,D,J,False,MANUAL,3,449,1249,fixed_delta,0.03626602127557052,0.01404684716676857,,,,,0.48302214687561706,1739,1861,0,,WHITE,,,0,,BLACK,False,INCORRECT,1.8591665999992983,1859.1665999992983
3,20260325_121052,D,J,False,MANUAL,3,450,1250,fixed_delta,0.03626602127557052,0.01404684716676857,,,,,0.4571910137445029,1646,1954,0,,WHITE,,,0,,WHITE,True,CORRECT,0.7592985000010231,759.2985000010231
3,20260325_121052,D,J,False,MANUAL,3,451,1251,fixed_delta,0.03626602127557052,0.01404684716676857,,,,,0.5383079039097696,1938,1662,0,,BLACK,,,0,,BLACK,True,CORRECT,1.3901910000004136,1390.1910000004136
3,20260325_121052,D,J,False,MANUAL,3,452,1252,fixed_delta,0.03626602127557052,0.01404684716676857,,,,,0.5666838009012551,2040,1560,0,,BLACK,,,0,,BLACK,True,CORRECT,1.8734496999986732,1873.4496999986732
3,20260325_121052,D,J,False,MANUAL,3,453,1253,fixed_delta,0.03626602127557052,0.01404684716676857,,,,,0.47174916125620103,1698,1902,0,,WHITE,,,0,,WHITE,True,CORRECT,2.0259138000001258,2025.9138000001258
3,20260325_121052,D,J,False,MANUAL,3,454,1254,fixed_delta,0.03626602127557052,0.01404684716676857,,,,,0.5259324364991413,1893,1707,0,,BLACK,,,0,,BLACK,True,CORRECT,0.755233900001258,755.233900001258
3,20260325_121052,D,J,False,MANUAL,3,455,1255,fixed_delta,0.03626602127557052,0.01404684716676857,,,,,0.47541777739319024,1712,1888,0,,WHITE,,,0,,BLACK,False,INCORRECT,1.013886900000216,1013.886900000216
3,20260325_121052,D,J,False,MANUAL,3,456,1256,fixed_delta,0.03626602127557052,0.01404684716676857,,,,,0.48344613843464546,1740,1860,0,,WHITE,,,0,,BLACK,False,INCORRECT,0.7207674000001134,720.7674000001134
3,20260325_121052,D,J,False,MANUAL,3,457,1257,fixed_delta,0.03626602127557052,0.01404684716676857,,,,,0.5216374261986931,1878,1722,0,,BLACK,,,0,,BLACK,True,CORRECT,1.186683500000072,1186.683500000072
3,20260325_121052,D,J,False,MANUAL,3,458,1258,fixed_delta,0.03626602127557052,0.01404684716676857,,,,,0.4956308395972433,1784,1816,0,,WHITE,,,0,,BLACK,False,INCORRECT,1.5180216000007931,1518.0216000007931
3,20260325_121052,D,J,False,MANUAL,3,459,1259,fixed_delta,0.03626602127557052,0.01404684716676857,,,,,0.5356276106478444,1928,1672,0,,BLACK,,,0,,BLACK,True,CORRECT,0.84186469999986,841.86469999986
3,20260325_121052,D,J,False,MANUAL,3,460,1260,fixed_delta,0.03626602127557052,0.01404684716676857,,,,,0.4596720761115539,1655,1945,0,,WHITE,,,0,,WHITE,True,CORRECT,0.6945773000006739,694.5773000006739
3,20260325_121052,D,J,False,MANUAL,3,461,1261,fixed_delta,0.03626602127557052,0.01404684716676857,,,,,0.4706132645104226,1694,1906,0,,WHITE,,,0,,BLACK,False,INCORRECT,2.7797094999987166,2779.7094999987166
3,20260325_121052,D,J,False,MANUAL,3,462,1262,fixed_delta,0.03626602127557052,0.01404684716676857,,,,,0.46395043116483486,1670,1930,0,,WHITE,,,0,,BLACK,False,INCORRECT,0.6356001000003744,635.6001000003744
3,20260325_121052,D,J,False,MANUAL,3,463,1263,fixed_delta,0.03626602127557052,0.01404684716676857,,,,,0.47303052906874593,1703,1897,0,,WHITE,,,0,,BLACK,False,INCORRECT,1.0015161000010266,1001.5161000010266
3,20260325_121052,D,J,False,MANUAL,3,464,1264,fixed_delta,0.03626602127557052,0.01404684716676857,,,,,0.46069076818431604,1658,1942,0,,WHITE,,,0,,WHITE,True,CORRECT,0.9762566999997944,976.2566999997944
3,20260325_121052,D,J,False,MANUAL,3,465,1265,fixed_delta,0.03626602127557052,0.01404684716676857,,,,,0.4655070756178498,1676,1924,0,,WHITE,,,0,,WHITE,True,CORRECT,0.9239401000013459,923.9401000013459
3,20260325_121052,D,J,False,MANUAL,3,466,1266,fixed_delta,0.03626602127557052,0.01404684716676857,,,,,0.472790270032753,1702,1898,0,,WHITE,,,0,,WHITE,True,CORRECT,1.6015654999991966,1601.5654999991966
3,20260325_121052,D,J,False,MANUAL,3,467,1267,fixed_delta,0.03626602127557052,0.01404684716676857,,,,,0.553564768941999,1993,1607,0,,BLACK,,,0,,BLACK,True,CORRECT,0.6756722000009177,675.6722000009177
3,20260325_121052,D,J,False,MANUAL,3,468,1268,fixed_delta,0.03626602127557052,0.01404684716676857,,,,,0.4475183113837067,1611,1989,0,,WHITE,,,0,,WHITE,True,CORRECT,2.372015499999179,2372.015499999179
3,20260325_121052,D,J,False,MANUAL,3,469,1269,fixed_delta,0.03626602127557052,0.01404684716676857,,,,,0.5423085838077878,1952,1648,0,,BLACK,,,0,,BLACK,True,CORRECT,1.1835210999997798,1183.5210999997798
3,20260325_121052,D,J,False,MANUAL,3,470,1270,fixed_delta,0.03626602127557052,0.01404684716676857,,,,,0.5365859129488819,1932,1668,0,,BLACK,,,0,,BLACK,True,CORRECT,3.703979800000525,3703.979800000525
3,20260325_121052,D,J,False,MANUAL,3,471,1271,fixed_delta,0.03626602127557052,0.01404684716676857,,,,,0.536450019685974,1931,1669,0,,BLACK,,,0,,BLACK,True,CORRECT,0.9599337999989075,959.9337999989075
3,20260325_121052,D,J,False,MANUAL,3,472,1272,fixed_delta,0.03626602127557052,0.01404684716676857,,,,,0.4781757178233451,1721,1879,0,,WHITE,,,0,,WHITE,True,CORRECT,1.09379429999899,1093.79429999899
3,20260325_121052,D,J,False,MANUAL,3,473,1273,fixed_delta,0.03626602127557052,0.01404684716676857,,,,,0.46106731242229987,1660,1940,0,,WHITE,,,0,,WHITE,True,CORRECT,0.6872698000006494,687.2698000006494
3,20260325_121052,D,J,False,MANUAL,3,474,1274,fixed_delta,0.03626602127557052,0.01404684716676857,,,,,0.4607466093160322,1659,1941,0,,WHITE,,,0,,WHITE,True,CORRECT,0.48186189999978524,481.86189999978524
3,20260325_121052,D,J,False,MANUAL,3,475,1275,fixed_delta,0.03626602127557052,0.01404684716676857,,,,,0.5372830284332695,1934,1666,0,,BLACK,,,0,,BLACK,True,CORRECT,3.6795949999996083,3679.5949999996083
3,20260325_121052,D,J,False,MANUAL,3,476,1276,fixed_delta,0.03626602127557052,0.01404684716676857,,,,,0.5343472387453331,1924,1676,0,,BLACK,,,0,,BLACK,True,CORRECT,0.8963353999988612,896.3353999988612
3,20260325_121052,D,J,False,MANUAL,3,477,1277,fixed_delta,0.03626602127557052,0.01404684716676857,,,,,0.5592154465651009,2013,1587,0,,BLACK,,,0,,BLACK,True,CORRECT,0.7585594000011042,758.5594000011042
3,20260325_121052,D,J,False,MANUAL,3,478,1278,fixed_delta,0.03626602127557052,0.01404684716676857,,,,,0.5331810714470067,1919,1681,0,,BLACK,,,0,,BLACK,True,CORRECT,0.7011977000001934,701.1977000001934
3,20260325_121052,D,J,False,MANUAL,3,479,1279,fixed_delta,0.03626602127557052,0.01404684716676857,,,,,0.4520824023596181,1627,1973,0,,WHITE,,,0,,WHITE,True,CORRECT,2.8278418999998394,2827.8418999998394
3,20260325_121052,D,J,False,MANUAL,3,480,1280,fixed_delta,0.03626602127557052,0.01404684716676857,,,,,0.5433491748621931,1956,1644,0,,BLACK,,,0,,BLACK,True,CORRECT,1.3579486999988148,1357.9486999988148
3,20260325_121052,D,J,False,MANUAL,3,481,1281,fixed_delta,0.03626602127557052,0.01404684716676857,,,,,0.4862624066976443,1751,1849,0,,WHITE,,,0,,BLACK,False,INCORRECT,2.361660500000653,2361.660500000653
3,20260325_121052,D,J,False,MANUAL,3,482,1282,fixed_delta,0.03626602127557052,0.01404684716676857,,,,,0.46898824279927614,1688,1912,0,,WHITE,,,0,,WHITE,True,CORRECT,2.670987800000148,2670.987800000148
3,20260325_121052,D,J,False,MANUAL,3,483,1283,fixed_delta,0.03626602127557052,0.01404684716676857,,,,,0.47950155193414307,1726,1874,0,,WHITE,,,0,,BLACK,False,INCORRECT,1.7485446999999112,1748.5446999999112
3,20260325_121052,D,J,False,MANUAL,3,484,1284,fixed_delta,0.03626602127557052,0.01404684716676857,,,,,0.4774733760093718,1719,1881,0,,WHITE,,,0,,BLACK,False,INCORRECT,0.9171177999996871,917.1177999996871
3,20260325_121052,D,J,False,MANUAL,3,485,1285,fixed_delta,0.03626602127557052,0.01404684716676857,,,,,0.46175238471809255,1662,1938,0,,WHITE,,,0,,BLACK,False,INCORRECT,1.509175099999993,1509.175099999993
3,20260325_121052,D,J,False,MANUAL,3,486,1286,fixed_delta,0.03626602127557052,0.01404684716676857,,,,,0.5184819745424547,1867,1733,0,,BLACK,,,0,,WHITE,False,INCORRECT,0.5283864000011818,528.3864000011818
3,20260325_121052,D,J,False,MANUAL,3,487,1287,fixed_delta,0.03626602127557052,0.01404684716676857,,,,,0.47324708278367894,1704,1896,0,,WHITE,,,0,,WHITE,True,CORRECT,0.6757496999998693,675.7496999998693
3,20260325_121052,D,J,False,MANUAL,3,488,1288,fixed_delta,0.03626602127557052,0.01404684716676857,,,,,0.44139988337729996,1589,2011,0,,WHITE,,,0,,WHITE,True,CORRECT,1.3383426999989751,1338.3426999989751
3,20260325_121052,D,J,False,MANUAL,3,489,1289,fixed_delta,0.03626602127557052,0.01404684716676857,,,,,0.46660714319565844,1680,1920,0,,WHITE,,,0,,WHITE,True,CORRECT,0.6440117000001919,644.0117000001919
3,20260325_121052,D,J,False,MANUAL,3,490,1290,fixed_delta,0.03626602127557052,0.01404684716676857,,,,,0.5387214687953708,1939,1661,0,,BLACK,,,0,,BLACK,True,CORRECT,0.7599421000013535,759.9421000013535
3,20260325_121052,D,J,False,MANUAL,3,491,1291,fixed_delta,0.03626602127557052,0.01404684716676857,,,,,0.5453259074916408,1963,1637,0,,BLACK,,,0,,BLACK,True,CORRECT,2.365328200001386,2365.328200001386
3,20260325_121052,D,J,False,MANUAL,3,492,1292,fixed_delta,0.03626602127557052,0.01404684716676857,,,,,0.5292657015364504,1905,1695,0,,BLACK,,,0,,BLACK,True,CORRECT,1.0684980000005453,1068.4980000005453
3,20260325_121052,D,J,False,MANUAL,3,493,1293,fixed_delta,0.03626602127557052,0.01404684716676857,,,,,0.4516659259796821,1626,1974,0,,WHITE,,,0,,WHITE,True,CORRECT,0.7904141999988497,790.4141999988497
