participant_id,run_timestamp,key_black,key_white,keymap_flip,block,block_idx,trial,global_trial,difficulty_mode,delta_fixed_mean,delta_fixed_sd,delta_stair_realised,delta_stair_mean,delta_step_down_used,delta_step_up_used,vblack_prop,n_vblack,n_vwhite,auto_on,aid_accuracy_setting,stimulus,aid_label,aid_correct,aid_onset_ms,aid_onset_ms_rel,response,correct,feedback,rt_s,rt_ms
4,20260325_121644,D,J,False,CALIBRATION,1,1,1,staircase,,,0.1834033291893617,0.19,0.01,0.04000000000000001,0.6834033291893618,2460,1140,0,,BLACK,,,0,,BLACK,True,CORRECT,2.316907500000525,2316.907500000525
4,20260325_121644,D,J,False,CALIBRATION,1,2,2,staircase,,,0.18847311542367765,0.18018367346938777,0.009816326530612245,0.03926530612244899,0.3115268845763224,1121,2479,0,,WHITE,,,0,,WHITE,True,CORRECT,1.3911852999990515,1391.1852999990515
4,20260325_121644,D,J,False,CALIBRATION,1,3,3,staircase,,,0.19864950244424068,0.17055102040816328,0.00963265306122449,0.03853061224489797,0.3013504975557593,1085,2515,0,,WHITE,,,0,,WHITE,True,CORRECT,0.8525286000003689,852.5286000003689
4,20260325_121644,D,J,False,CALIBRATION,1,4,4,staircase,,,0.1891322901451049,0.16110204081632654,0.009448979591836736,0.03779591836734695,0.3108677098548951,1119,2481,0,,WHITE,,,0,,WHITE,True,CORRECT,0.7522831000005681,752.2831000005681
4,20260325_121644,D,J,False,CALIBRATION,1,5,5,staircase,,,0.17245106153632855,0.15183673469387757,0.009265306122448979,0.03706122448979592,0.6724510615363286,2421,1179,0,,BLACK,,,0,,BLACK,True,CORRECT,0.6826564999992115,682.6564999992115
4,20260325_121644,D,J,False,CALIBRATION,1,6,6,staircase,,,0.16098954192286108,0.14275510204081635,0.009081632653061224,0.0363265306122449,0.6609895419228611,2380,1220,0,,BLACK,,,0,,BLACK,True,CORRECT,0.6257127999997465,625.7127999997465
4,20260325_121644,D,J,False,CALIBRATION,1,7,7,staircase,,,0.13901557557303781,0.13385714285714287,0.00889795918367347,0.035591836734693884,0.3609844244269622,1300,2300,0,,WHITE,,,0,,WHITE,True,CORRECT,1.11610920000021,1116.10920000021
4,20260325_121644,D,J,False,CALIBRATION,1,8,8,staircase,,,0.12476466491507454,0.12514285714285717,0.008714285714285714,0.034857142857142864,0.37523533508492546,1351,2249,0,,WHITE,,,0,,WHITE,True,CORRECT,0.8326491000007081,832.6491000007081
4,20260325_121644,D,J,False,CALIBRATION,1,9,9,staircase,,,0.12354149775513092,0.11661224489795921,0.00853061224489796,0.034122448979591845,0.3764585022448691,1355,2245,0,,WHITE,,,0,,WHITE,True,CORRECT,0.514678499999718,514.678499999718
4,20260325_121644,D,J,False,CALIBRATION,1,10,10,staircase,,,0.1177355070152471,0.108265306122449,0.008346938775510205,0.033387755102040825,0.3822644929847529,1376,2224,0,,WHITE,,,0,,WHITE,True,CORRECT,0.5601256999998441,560.1256999998441
4,20260325_121644,D,J,False,CALIBRATION,1,11,11,staircase,,,0.0944477691246777,0.10010204081632655,0.00816326530612245,0.032653061224489806,0.40555223087532233,1460,2140,0,,WHITE,,,0,,WHITE,True,CORRECT,0.7527991000006296,752.7991000006296
4,20260325_121644,D,J,False,CALIBRATION,1,12,12,staircase,,,0.08538371997563869,0.09212244897959186,0.007979591836734693,0.03191836734693878,0.5853837199756387,2107,1493,0,,BLACK,,,0,,BLACK,True,CORRECT,0.46371969999927387,463.71969999927387
4,20260325_121644,D,J,False,CALIBRATION,1,13,13,staircase,,,0.08422545953197998,0.08432653061224492,0.007795918367346938,0.03118367346938776,0.41577454046802004,1497,2103,0,,WHITE,,,0,,WHITE,True,CORRECT,2.9515472000002774,2951.5472000002774
4,20260325_121644,D,J,False,CALIBRATION,1,14,14,staircase,,,0.0914891593597444,0.07671428571428573,0.007612244897959183,0.03044897959183674,0.5914891593597444,2129,1471,0,,BLACK,,,0,,BLACK,True,CORRECT,0.6387563000007503,638.7563000007503
4,20260325_121644,D,J,False,CALIBRATION,1,15,15,staircase,,,0.092812370967831,0.06928571428571431,0.0074285714285714285,0.02971428571428572,0.592812370967831,2134,1466,0,,BLACK,,,0,,BLACK,True,CORRECT,0.5698314999990544,569.8314999990544
4,20260325_121644,D,J,False,CALIBRATION,1,16,16,staircase,,,0.07707055358784554,0.09826530612244902,0.007244897959183674,0.0289795918367347,0.42292944641215446,1523,2077,0,,WHITE,,,0,,BLACK,False,INCORRECT,0.7660581000000093,766.0581000000093
4,20260325_121644,D,J,False,CALIBRATION,1,17,17,staircase,,,0.09785652336667787,0.0912040816326531,0.007061224489795919,0.028244897959183682,0.5978565233666778,2152,1448,0,,BLACK,,,0,,BLACK,True,CORRECT,0.6762140999999247,676.2140999999247
4,20260325_121644,D,J,False,CALIBRATION,1,18,18,staircase,,,0.10988111569449185,0.08432653061224495,0.006877551020408163,0.02751020408163266,0.3901188843055081,1404,2196,0,,WHITE,,,0,,WHITE,True,CORRECT,1.1085034000007,1108.5034000007
4,20260325_121644,D,J,False,CALIBRATION,1,19,19,staircase,,,0.0853346356623463,0.11110204081632657,0.006693877551020407,0.026775510204081636,0.4146653643376537,1493,2107,0,,WHITE,,,0,,BLACK,False,INCORRECT,1.6249866999987717,1624.9866999987717
4,20260325_121644,D,J,False,CALIBRATION,1,20,20,staircase,,,0.103571182114205,0.10459183673469392,0.006510204081632652,0.026040816326530616,0.603571182114205,2173,1427,0,,BLACK,,,0,,BLACK,True,CORRECT,0.6588530000008177,658.8530000008177
4,20260325_121644,D,J,False,CALIBRATION,1,21,21,staircase,,,0.10518893456045517,0.09826530612244902,0.0063265306122448975,0.025306122448979597,0.3948110654395448,1421,2179,0,,WHITE,,,0,,WHITE,True,CORRECT,1.2035624999989523,1203.5624999989523
4,20260325_121644,D,J,False,CALIBRATION,1,22,22,staircase,,,0.0943664270795126,0.1228367346938776,0.006142857142857143,0.024571428571428577,0.4056335729204874,1460,2140,0,,WHITE,,,0,,BLACK,False,INCORRECT,1.5367590000005293,1536.7590000005293
4,20260325_121644,D,J,False,CALIBRATION,1,23,23,staircase,,,0.12242963782694774,0.11687755102040821,0.005959183673469388,0.023836734693877558,0.3775703621730523,1359,2241,0,,WHITE,,,0,,WHITE,True,CORRECT,0.8665314000008948,866.5314000008948
4,20260325_121644,D,J,False,CALIBRATION,1,24,24,staircase,,,0.10202581286899312,0.11110204081632657,0.005775510204081632,0.02310204081632653,0.6020258128689931,2167,1433,0,,BLACK,,,0,,BLACK,True,CORRECT,1.007139700001062,1007.139700001062
4,20260325_121644,D,J,False,CALIBRATION,1,25,25,staircase,,,0.12698646875133002,0.1055102040816327,0.005591836734693877,0.022367346938775512,0.37301353124867,1343,2257,0,,WHITE,,,0,,WHITE,True,CORRECT,3.014083699999901,3014.083699999901
4,20260325_121644,D,J,False,CALIBRATION,1,26,26,staircase,,,0.08715059056614798,0.10010204081632658,0.005408163265306122,0.021632653061224492,0.412849409433852,1486,2114,0,,WHITE,,,0,,WHITE,True,CORRECT,2.6962939000004553,2696.2939000004553
4,20260325_121644,D,J,False,CALIBRATION,1,27,27,staircase,,,0.09114113387914526,0.09487755102040821,0.0052244897959183665,0.02089795918367347,0.5911411338791452,2128,1472,0,,BLACK,,,0,,BLACK,True,CORRECT,0.8907464000003529,890.7464000003529
4,20260325_121644,D,J,False,CALIBRATION,1,28,28,staircase,,,0.08463773988141131,0.0898367346938776,0.0050408163265306125,0.020163265306122453,0.5846377398814113,2105,1495,0,,BLACK,,,0,,BLACK,True,CORRECT,1.3579585000006773,1357.9585000006773
4,20260325_121644,D,J,False,CALIBRATION,1,29,29,staircase,,,0.09470510936367614,0.08497959183673474,0.004857142857142857,0.01942857142857143,0.40529489063632385,1459,2141,0,,WHITE,,,0,,WHITE,True,CORRECT,1.3753682000005938,1375.3682000005938
4,20260325_121644,D,J,False,CALIBRATION,1,30,30,staircase,,,0.08134148050024675,0.08030612244897964,0.004673469387755102,0.01869387755102041,0.5813414805002468,2093,1507,0,,BLACK,,,0,,BLACK,True,CORRECT,0.6585154000003968,658.5154000003968
4,20260325_121644,D,J,False,CALIBRATION,1,31,31,staircase,,,0.08446520682304401,0.0758163265306123,0.004489795918367346,0.017959183673469388,0.41553479317695596,1496,2104,0,,WHITE,,,0,,WHITE,True,CORRECT,0.9496361000001343,949.6361000001343
4,20260325_121644,D,J,False,CALIBRATION,1,32,32,staircase,,,0.06469353931600032,0.07151020408163271,0.004306122448979591,0.01722448979591837,0.5646935393160003,2033,1567,0,,BLACK,,,0,,BLACK,True,CORRECT,1.141202400000111,1141.202400000111
4,20260325_121644,D,J,False,CALIBRATION,1,33,33,staircase,,,0.08285952019579873,0.06738775510204087,0.004122448979591836,0.01648979591836735,0.41714047980420127,1502,2098,0,,WHITE,,,0,,WHITE,True,CORRECT,2.256651800000327,2256.651800000327
4,20260325_121644,D,J,False,CALIBRATION,1,34,34,staircase,,,0.06423915063334719,0.06344897959183679,0.0039387755102040815,0.01575510204081633,0.5642391506333472,2031,1569,0,,BLACK,,,0,,BLACK,True,CORRECT,1.8016250000000582,1801.6250000000582
4,20260325_121644,D,J,False,CALIBRATION,1,35,35,staircase,,,0.06644187106728779,0.059693877551020465,0.0037551020408163258,0.015020408163265307,0.43355812893271223,1561,2039,0,,WHITE,,,0,,WHITE,True,CORRECT,1.070958000000246,1070.958000000246
4,20260325_121644,D,J,False,CALIBRATION,1,36,36,staircase,,,0.06482085745595736,0.07397959183673475,0.003571428571428571,0.014285714285714287,0.43517914254404266,1567,2033,0,,WHITE,,,0,,BLACK,False,INCORRECT,2.5674725999997463,2567.4725999997463
4,20260325_121644,D,J,False,CALIBRATION,1,37,37,staircase,,,0.06127615327626911,0.07059183673469394,0.003387755102040815,0.013551020408163264,0.4387238467237309,1579,2021,0,,WHITE,,,0,,WHITE,True,CORRECT,0.9205187999996269,920.5187999996269
4,20260325_121644,D,J,False,CALIBRATION,1,38,38,staircase,,,0.06019784403423528,0.06738775510204087,0.003204081632653061,0.012816326530612248,0.4398021559657647,1583,2017,0,,WHITE,,,0,,WHITE,True,CORRECT,1.2072640999995201,1207.26409999952
4,20260325_121644,D,J,False,CALIBRATION,1,39,39,staircase,,,0.07523179187433209,0.06436734693877556,0.0030204081632653054,0.012081632653061225,0.4247682081256679,1529,2071,0,,WHITE,,,0,,WHITE,True,CORRECT,1.2519257000003563,1251.9257000003563
4,20260325_121644,D,J,False,CALIBRATION,1,40,40,staircase,,,0.0631686151431814,0.06153061224489801,0.0028367346938775505,0.011346938775510204,0.4368313848568186,1573,2027,0,,WHITE,,,0,,WHITE,True,CORRECT,0.948486999999659,948.486999999659
4,20260325_121644,D,J,False,CALIBRATION,1,41,41,staircase,,,0.048882355895365076,0.05887755102040822,0.0026530612244897948,0.01061224489795918,0.548882355895365,1976,1624,0,,BLACK,,,0,,BLACK,True,CORRECT,1.7963440000003175,1796.3440000003175
4,20260325_121644,D,J,False,CALIBRATION,1,42,42,staircase,,,0.04146501168750888,0.05640816326530618,0.00246938775510204,0.009877551020408161,0.5414650116875088,1949,1651,0,,BLACK,,,0,,BLACK,True,CORRECT,1.995565200000783,1995.565200000783
4,20260325_121644,D,J,False,CALIBRATION,1,43,43,staircase,,,0.04178335017408124,0.06555102040816332,0.002285714285714285,0.009142857142857142,0.5417833501740812,1950,1650,0,,BLACK,,,0,,WHITE,False,INCORRECT,2.0956002000002627,2095.6002000002627
4,20260325_121644,D,J,False,CALIBRATION,1,44,44,staircase,,,0.07193308157571968,0.06344897959183679,0.00210204081632653,0.008408163265306122,0.42806691842428035,1541,2059,0,,WHITE,,,0,,WHITE,True,CORRECT,0.9298780999997689,929.8780999997689
4,20260325_121644,D,J,False,CALIBRATION,1,45,45,staircase,,,0.058520396956872237,0.06153061224489802,0.0019183673469387753,0.007673469387755103,0.5585203969568723,2011,1589,0,,BLACK,,,0,,BLACK,True,CORRECT,1.8805448000002798,1880.5448000002798
4,20260325_121644,D,J,False,CALIBRATION,1,46,46,staircase,,,0.062067829440032585,0.059795918367347,0.0017346938775510187,0.006938775510204076,0.5620678294400325,2023,1577,0,,BLACK,,,0,,BLACK,True,CORRECT,1.7863720000004832,1786.3720000004832
4,20260325_121644,D,J,False,CALIBRATION,1,47,47,staircase,,,0.07203474535550525,0.058244897959183736,0.0015510204081632638,0.006204081632653057,0.5720347453555052,2059,1541,0,,BLACK,,,0,,BLACK,True,CORRECT,0.7508277000015369,750.8277000015369
4,20260325_121644,D,J,False,CALIBRATION,1,48,48,staircase,,,0.06619269541653909,0.05687755102040823,0.0013673469387755106,0.005469387755102043,0.566192695416539,2038,1562,0,,BLACK,,,0,,BLACK,True,CORRECT,1.5869261999996525,1586.9261999996525
4,20260325_121644,D,J,False,CALIBRATION,1,49,49,staircase,,,0.044525015643703474,0.061612244897959245,0.001183673469387754,0.004734693877551017,0.4554749843562965,1640,1960,0,,WHITE,,,0,,BLACK,False,INCORRECT,0.7885762999994768,788.5762999994768
4,20260325_121644,D,J,False,CALIBRATION,1,50,50,staircase,,,0.07994446942299673,0.060612244897959244,0.001,0.004000000000000001,0.4200555305770033,1512,2088,0,,WHITE,,,0,,WHITE,True,CORRECT,0.7960732999999891,796.0732999999891
4,20260325_121644,D,J,False,CALIBRATION,1,51,51,staircase,,,0.046445291818622454,0.05961224489795924,0.001,0.004000000000000001,0.45355470818137755,1633,1967,0,,WHITE,,,0,,WHITE,True,CORRECT,1.9822636999997485,1982.2636999997485
4,20260325_121644,D,J,False,CALIBRATION,1,52,52,staircase,,,0.0819169709770555,0.05861224489795924,0.001,0.004000000000000001,0.5819169709770555,2095,1505,0,,BLACK,,,0,,BLACK,True,CORRECT,1.3339997999992192,1333.9997999992192
4,20260325_121644,D,J,False,CALIBRATION,1,53,53,staircase,,,0.051936237529559816,0.05761224489795924,0.001,0.004000000000000001,0.44806376247044016,1613,1987,0,,WHITE,,,0,,WHITE,True,CORRECT,0.5923471999994945,592.3471999994945
4,20260325_121644,D,J,False,CALIBRATION,1,54,54,staircase,,,0.043524988736083126,0.05661224489795924,0.001,0.004000000000000001,0.4564750112639169,1643,1957,0,,WHITE,,,0,,WHITE,True,CORRECT,4.367208300000129,4367.208300000129
4,20260325_121644,D,J,False,CALIBRATION,1,55,55,staircase,,,0.05581370374344765,0.05561224489795924,0.001,0.004000000000000001,0.44418629625655237,1599,2001,0,,WHITE,,,0,,WHITE,True,CORRECT,1.0936008999997284,1093.6008999997284
4,20260325_121644,D,J,False,CALIBRATION,1,56,56,staircase,,,0.060347240290603385,0.05461224489795924,0.001,0.004000000000000001,0.4396527597093966,1583,2017,0,,WHITE,,,0,,WHITE,True,CORRECT,0.8432071999995969,843.2071999995969
4,20260325_121644,D,J,False,CALIBRATION,1,57,57,staircase,,,0.059751172766864924,0.05361224489795924,0.001,0.004000000000000001,0.5597511727668649,2015,1585,0,,BLACK,,,0,,BLACK,True,CORRECT,1.8463267000006454,1846.3267000006454
4,20260325_121644,D,J,False,CALIBRATION,1,58,58,staircase,,,0.056693866407786946,0.05261224489795924,0.001,0.004000000000000001,0.556693866407787,2004,1596,0,,BLACK,,,0,,BLACK,True,CORRECT,3.1965784999993048,3196.5784999993048
4,20260325_121644,D,J,False,CALIBRATION,1,59,59,staircase,,,0.05687890840452077,0.051612244897959236,0.001,0.004000000000000001,0.44312109159547924,1595,2005,0,,WHITE,,,0,,WHITE,True,CORRECT,1.2519140999993397,1251.9140999993397
4,20260325_121644,D,J,False,CALIBRATION,1,60,60,staircase,,,0.04945089639481583,0.05561224489795924,0.001,0.004000000000000001,0.5494508963948158,1978,1622,0,,BLACK,,,0,,WHITE,False,INCORRECT,0.7174130000003061,717.413000000306
4,20260325_121644,D,J,False,CALIBRATION,1,61,61,staircase,,,0.04015158385327984,0.05961224489795924,0.001,0.004000000000000001,0.5401515838532799,1945,1655,0,,BLACK,,,0,,WHITE,False,INCORRECT,0.8299681999997119,829.9681999997119
4,20260325_121644,D,J,False,CALIBRATION,1,62,62,staircase,,,0.05713651602946161,0.05861224489795924,0.001,0.004000000000000001,0.5571365160294616,2006,1594,0,,BLACK,,,0,,BLACK,True,CORRECT,0.9004258999993908,900.4258999993908
4,20260325_121644,D,J,False,CALIBRATION,1,63,63,staircase,,,0.08194179731427695,0.05761224489795924,0.001,0.004000000000000001,0.418058202685723,1505,2095,0,,WHITE,,,0,,WHITE,True,CORRECT,1.1692579000009573,1169.2579000009573
4,20260325_121644,D,J,False,CALIBRATION,1,64,64,staircase,,,0.06422781866596686,0.05661224489795924,0.001,0.004000000000000001,0.5642278186659668,2031,1569,0,,BLACK,,,0,,BLACK,True,CORRECT,0.9668022000005294,966.8022000005294
4,20260325_121644,D,J,False,CALIBRATION,1,65,65,staircase,,,0.05990827030141123,0.05561224489795924,0.001,0.004000000000000001,0.5599082703014112,2016,1584,0,,BLACK,,,0,,BLACK,True,CORRECT,1.71218349999981,1712.18349999981
4,20260325_121644,D,J,False,CALIBRATION,1,66,66,staircase,,,0.06235094063115894,0.05461224489795924,0.001,0.004000000000000001,0.4376490593688411,1576,2024,0,,WHITE,,,0,,WHITE,True,CORRECT,0.815045100000134,815.045100000134
4,20260325_121644,D,J,False,CALIBRATION,1,67,67,staircase,,,0.05048496127977894,0.05361224489795924,0.001,0.004000000000000001,0.550484961279779,1982,1618,0,,BLACK,,,0,,BLACK,True,CORRECT,2.365013700000418,2365.013700000418
4,20260325_121644,D,J,False,CALIBRATION,1,68,68,staircase,,,0.04960025203103048,0.05761224489795924,0.001,0.004000000000000001,0.5496002520310305,1979,1621,0,,BLACK,,,0,,WHITE,False,INCORRECT,1.3467550999994273,1346.7550999994273
4,20260325_121644,D,J,False,CALIBRATION,1,69,69,staircase,,,0.06283547044118322,0.05661224489795924,0.001,0.004000000000000001,0.4371645295588168,1574,2026,0,,WHITE,,,0,,WHITE,True,CORRECT,0.8357176000008621,835.7176000008621
4,20260325_121644,D,J,False,CALIBRATION,1,70,70,staircase,,,0.06384183271986883,0.060612244897959244,0.001,0.004000000000000001,0.5638418327198689,2030,1570,0,,BLACK,,,0,,WHITE,False,INCORRECT,0.7699737000002642,769.9737000002642
4,20260325_121644,D,J,False,CALIBRATION,1,71,71,staircase,,,0.05723787037837072,0.05961224489795924,0.001,0.004000000000000001,0.5572378703783707,2006,1594,0,,BLACK,,,0,,BLACK,True,CORRECT,0.7089141999986168,708.9141999986168
4,20260325_121644,D,J,False,CALIBRATION,1,72,72,staircase,,,0.0554912432903928,0.05861224489795924,0.001,0.004000000000000001,0.5554912432903928,2000,1600,0,,BLACK,,,0,,BLACK,True,CORRECT,1.3103929000008065,1310.3929000008065
4,20260325_121644,D,J,False,CALIBRATION,1,73,73,staircase,,,0.06588711314468136,0.05761224489795924,0.001,0.004000000000000001,0.5658871131446813,2037,1563,0,,BLACK,,,0,,BLACK,True,CORRECT,1.2008186000002752,1200.8186000002752
4,20260325_121644,D,J,False,CALIBRATION,1,74,74,staircase,,,0.051679391812027554,0.05661224489795924,0.001,0.004000000000000001,0.5516793918120275,1986,1614,0,,BLACK,,,0,,BLACK,True,CORRECT,0.8981710000007297,898.1710000007297
4,20260325_121644,D,J,False,CALIBRATION,1,75,75,staircase,,,0.058861105218650144,0.05561224489795924,0.001,0.004000000000000001,0.5588611052186502,2012,1588,0,,BLACK,,,0,,BLACK,True,CORRECT,1.293791100000817,1293.791100000817
4,20260325_121644,D,J,False,CALIBRATION,1,76,76,staircase,,,0.05828024632770894,0.05461224489795924,0.001,0.004000000000000001,0.44171975367229105,1590,2010,0,,WHITE,,,0,,WHITE,True,CORRECT,0.8889811999997619,888.9811999997619
4,20260325_121644,D,J,False,CALIBRATION,1,77,77,staircase,,,0.061580098263701595,0.05861224489795924,0.001,0.004000000000000001,0.4384199017362984,1578,2022,0,,WHITE,,,0,,BLACK,False,INCORRECT,1.792127699998673,1792.127699998673
4,20260325_121644,D,J,False,CALIBRATION,1,78,78,staircase,,,0.06823422982280546,0.05761224489795924,0.001,0.004000000000000001,0.43176577017719453,1554,2046,0,,WHITE,,,0,,WHITE,True,CORRECT,0.6540143999991415,654.0143999991415
4,20260325_121644,D,J,False,CALIBRATION,1,79,79,staircase,,,0.06378492857940818,0.05661224489795924,0.001,0.004000000000000001,0.4362150714205918,1570,2030,0,,WHITE,,,0,,WHITE,True,CORRECT,0.9483522999998968,948.3522999998968
4,20260325_121644,D,J,False,CALIBRATION,1,80,80,staircase,,,0.05513159307002905,0.05561224489795924,0.001,0.004000000000000001,0.555131593070029,1998,1602,0,,BLACK,,,0,,BLACK,True,CORRECT,4.500218700000914,4500.218700000914
4,20260325_121644,D,J,False,CALIBRATION,1,81,81,staircase,,,0.05087256587717118,0.05461224489795924,0.001,0.004000000000000001,0.44912743412282885,1617,1983,0,,WHITE,,,0,,WHITE,True,CORRECT,0.8022178999999596,802.2178999999596
4,20260325_121644,D,J,False,CALIBRATION,1,82,82,staircase,,,0.05250765997559776,0.05361224489795924,0.001,0.004000000000000001,0.5525076599755978,1989,1611,0,,BLACK,,,0,,BLACK,True,CORRECT,0.8257200000007288,825.7200000007288
4,20260325_121644,D,J,False,CALIBRATION,1,83,83,staircase,,,0.07234540841316629,0.05261224489795924,0.001,0.004000000000000001,0.4276545915868337,1540,2060,0,,WHITE,,,0,,WHITE,True,CORRECT,0.5876396999992721,587.6396999992721
4,20260325_121644,D,J,False,CALIBRATION,1,84,84,staircase,,,0.059375266768171626,0.051612244897959236,0.001,0.004000000000000001,0.5593752667681716,2014,1586,0,,BLACK,,,0,,BLACK,True,CORRECT,1.2200732000001153,1220.0732000001153
4,20260325_121644,D,J,False,CALIBRATION,1,85,85,staircase,,,0.051716899654655646,0.05561224489795924,0.001,0.004000000000000001,0.44828310034534435,1614,1986,0,,WHITE,,,0,,BLACK,False,INCORRECT,2.5504519999994955,2550.4519999994955
4,20260325_121644,D,J,False,CALIBRATION,1,86,86,staircase,,,0.0598525650052026,0.05461224489795924,0.001,0.004000000000000001,0.4401474349947974,1585,2015,0,,WHITE,,,0,,WHITE,True,CORRECT,0.7690528000002814,769.0528000002814
4,20260325_121644,D,J,False,CALIBRATION,1,87,87,staircase,,,0.06745598109203152,0.05361224489795924,0.001,0.004000000000000001,0.5674559810920315,2043,1557,0,,BLACK,,,0,,BLACK,True,CORRECT,1.1221244999996998,1122.1244999996998
4,20260325_121644,D,J,False,CALIBRATION,1,88,88,staircase,,,0.06371795784927375,0.05261224489795924,0.001,0.004000000000000001,0.5637179578492737,2029,1571,0,,BLACK,,,0,,BLACK,True,CORRECT,0.8955244999997376,895.5244999997376
4,20260325_121644,D,J,False,CALIBRATION,1,89,89,staircase,,,0.06069399463687781,0.051612244897959236,0.001,0.004000000000000001,0.5606939946368779,2018,1582,0,,BLACK,,,0,,BLACK,True,CORRECT,1.073573400000896,1073.573400000896
4,20260325_121644,D,J,False,CALIBRATION,1,90,90,staircase,,,0.047583040034361083,0.050612244897959235,0.001,0.004000000000000001,0.5475830400343611,1971,1629,0,,BLACK,,,0,,BLACK,True,CORRECT,0.8795484000002034,879.5484000002034
4,20260325_121644,D,J,False,CALIBRATION,1,91,91,staircase,,,0.04804028944008735,0.049612244897959235,0.001,0.004000000000000001,0.45195971055991263,1627,1973,0,,WHITE,,,0,,WHITE,True,CORRECT,1.3682623999993666,1368.2623999993666
4,20260325_121644,D,J,False,CALIBRATION,1,92,92,staircase,,,0.05174139976415628,0.048612244897959234,0.001,0.004000000000000001,0.44825860023584374,1614,1986,0,,WHITE,,,0,,WHITE,True,CORRECT,0.8657471000005899,865.7471000005899
4,20260325_121644,D,J,False,CALIBRATION,1,93,93,staircase,,,0.062482827837752275,0.04761224489795923,0.001,0.004000000000000001,0.4375171721622477,1575,2025,0,,WHITE,,,0,,WHITE,True,CORRECT,0.6135303999999451,613.5303999999451
4,20260325_121644,D,J,False,CALIBRATION,1,94,94,staircase,,,0.050700828361733216,0.04661224489795923,0.001,0.004000000000000001,0.5507008283617332,1983,1617,0,,BLACK,,,0,,BLACK,True,CORRECT,1.3139847999991616,1313.9847999991616
4,20260325_121644,D,J,False,CALIBRATION,1,95,95,staircase,,,0.05296918502504966,0.050612244897959235,0.001,0.004000000000000001,0.5529691850250497,1991,1609,0,,BLACK,,,0,,WHITE,False,INCORRECT,2.0037529000001086,2003.7529000001086
4,20260325_121644,D,J,False,CALIBRATION,1,96,96,staircase,,,0.050041052324529704,0.049612244897959235,0.001,0.004000000000000001,0.5500410523245297,1980,1620,0,,BLACK,,,0,,BLACK,True,CORRECT,0.641498999999385,641.498999999385
4,20260325_121644,D,J,False,CALIBRATION,1,97,97,staircase,,,0.056889251109247,0.05361224489795924,0.001,0.004000000000000001,0.44311074889075297,1595,2005,0,,WHITE,,,0,,BLACK,False,INCORRECT,1.8604372999998304,1860.4372999998304
4,20260325_121644,D,J,False,CALIBRATION,1,98,98,staircase,,,0.046704742924147294,0.05761224489795924,0.001,0.004000000000000001,0.5467047429241473,1968,1632,0,,BLACK,,,0,,WHITE,False,INCORRECT,1.0026461999987077,1002.6461999987077
4,20260325_121644,D,J,False,CALIBRATION,1,99,99,staircase,,,0.05420490291039764,0.061612244897959245,0.001,0.004000000000000001,0.44579509708960235,1605,1995,0,,WHITE,,,0,,BLACK,False,INCORRECT,1.611365200000364,1611.365200000364
4,20260325_121644,D,J,False,CALIBRATION,1,100,100,staircase,,,0.05937086588478358,0.060612244897959244,0.001,0.004000000000000001,0.5593708658847836,2014,1586,0,,BLACK,,,0,,BLACK,True,CORRECT,1.1216984000002412,1121.6984000002412
4,20260325_121644,D,J,False,CALIBRATION,1,101,101,staircase,,,0.06948893695565127,0.05961224489795924,0.001,0.004000000000000001,0.4305110630443487,1550,2050,0,,WHITE,,,0,,WHITE,True,CORRECT,0.8614237999991019,861.4237999991019
4,20260325_121644,D,J,False,CALIBRATION,1,102,102,staircase,,,0.06110365230945531,0.05861224489795924,0.001,0.004000000000000001,0.5611036523094554,2020,1580,0,,BLACK,,,0,,BLACK,True,CORRECT,2.599479999998948,2599.479999998948
4,20260325_121644,D,J,False,CALIBRATION,1,103,103,staircase,,,0.05507855965488335,0.06261224489795925,0.001,0.004000000000000001,0.44492144034511666,1602,1998,0,,WHITE,,,0,,BLACK,False,INCORRECT,4.2270016000002215,4227.0016000002215
4,20260325_121644,D,J,False,CALIBRATION,1,104,104,staircase,,,0.06385934481297881,0.061612244897959245,0.001,0.004000000000000001,0.43614065518702116,1570,2030,0,,WHITE,,,0,,WHITE,True,CORRECT,1.077113700001064,1077.113700001064
4,20260325_121644,D,J,False,CALIBRATION,1,105,105,staircase,,,0.0691751888248235,0.060612244897959244,0.001,0.004000000000000001,0.4308248111751765,1551,2049,0,,WHITE,,,0,,WHITE,True,CORRECT,3.3900137999989965,3390.0137999989965
4,20260325_121644,D,J,False,CALIBRATION,1,106,106,staircase,,,0.06037710550051281,0.05961224489795924,0.001,0.004000000000000001,0.4396228944994872,1583,2017,0,,WHITE,,,0,,WHITE,True,CORRECT,1.8744862000003195,1874.4862000003195
4,20260325_121644,D,J,False,CALIBRATION,1,107,107,staircase,,,0.08209998719884179,0.05861224489795924,0.001,0.004000000000000001,0.5820999871988418,2096,1504,0,,BLACK,,,0,,BLACK,True,CORRECT,0.8837257999985013,883.7257999985013
4,20260325_121644,D,J,False,CALIBRATION,1,108,108,staircase,,,0.04770689048052207,0.05761224489795924,0.001,0.004000000000000001,0.45229310951947793,1628,1972,0,,WHITE,,,0,,WHITE,True,CORRECT,1.4838395999995555,1483.8395999995555
4,20260325_121644,D,J,False,CALIBRATION,1,109,109,staircase,,,0.04348602299801316,0.05661224489795924,0.001,0.004000000000000001,0.5434860229980132,1957,1643,0,,BLACK,,,0,,BLACK,True,CORRECT,1.4945389999993495,1494.5389999993495
4,20260325_121644,D,J,False,CALIBRATION,1,110,110,staircase,,,0.05057084100680653,0.05561224489795924,0.001,0.004000000000000001,0.5505708410068065,1982,1618,0,,BLACK,,,0,,BLACK,True,CORRECT,1.2695074000002933,1269.5074000002933
4,20260325_121644,D,J,False,CALIBRATION,1,111,111,staircase,,,0.05616732810323655,0.05961224489795924,0.001,0.004000000000000001,0.5561673281032365,2002,1598,0,,BLACK,,,0,,WHITE,False,INCORRECT,1.040004399999816,1040.004399999816
4,20260325_121644,D,J,False,CALIBRATION,1,112,112,staircase,,,0.05449385544510267,0.05861224489795924,0.001,0.004000000000000001,0.5544938554451027,1996,1604,0,,BLACK,,,0,,BLACK,True,CORRECT,3.757652100000996,3757.652100000996
4,20260325_121644,D,J,False,CALIBRATION,1,113,113,staircase,,,0.05065044214585925,0.05761224489795924,0.001,0.004000000000000001,0.44934955785414077,1618,1982,0,,WHITE,,,0,,WHITE,True,CORRECT,0.8336202999998932,833.6202999998932
4,20260325_121644,D,J,False,CALIBRATION,1,114,114,staircase,,,0.06429176165136412,0.05661224489795924,0.001,0.004000000000000001,0.5642917616513641,2031,1569,0,,BLACK,,,0,,BLACK,True,CORRECT,1.3265399000010802,1326.5399000010802
4,20260325_121644,D,J,False,CALIBRATION,1,115,115,staircase,,,0.04846037672128897,0.05561224489795924,0.001,0.004000000000000001,0.451539623278711,1626,1974,0,,WHITE,,,0,,WHITE,True,CORRECT,0.8349397999991197,834.9397999991197
4,20260325_121644,D,J,False,CALIBRATION,1,116,116,staircase,,,0.07243647441543064,0.05461224489795924,0.001,0.004000000000000001,0.5724364744154307,2061,1539,0,,BLACK,,,0,,BLACK,True,CORRECT,0.8633675000000949,863.3675000000949
4,20260325_121644,D,J,False,CALIBRATION,1,117,117,staircase,,,0.046597726269388864,0.05361224489795924,0.001,0.004000000000000001,0.5465977262693889,1968,1632,0,,BLACK,,,0,,BLACK,True,CORRECT,0.845731600000363,845.731600000363
4,20260325_121644,D,J,False,CALIBRATION,1,118,118,staircase,,,0.05073516677805678,0.05261224489795924,0.001,0.004000000000000001,0.5507351667780568,1983,1617,0,,BLACK,,,0,,BLACK,True,CORRECT,1.127307100001417,1127.307100001417
4,20260325_121644,D,J,False,CALIBRATION,1,119,119,staircase,,,0.06973280221021921,0.051612244897959236,0.001,0.004000000000000001,0.4302671977897808,1549,2051,0,,WHITE,,,0,,WHITE,True,CORRECT,0.8053540999990219,805.3540999990219
4,20260325_121644,D,J,False,CALIBRATION,1,120,120,staircase,,,0.06320890362971862,0.05561224489795924,0.001,0.004000000000000001,0.43679109637028135,1572,2028,0,,WHITE,,,0,,BLACK,False,INCORRECT,1.30654019999929,1306.54019999929
4,20260325_121644,D,J,False,CALIBRATION,1,121,121,staircase,,,0.0581851546354037,0.05461224489795924,0.001,0.004000000000000001,0.4418148453645963,1591,2009,0,,WHITE,,,0,,WHITE,True,CORRECT,0.7849153999995906,784.9153999995906
4,20260325_121644,D,J,False,CALIBRATION,1,122,122,staircase,,,0.06138820649055911,0.05361224489795924,0.001,0.004000000000000001,0.4386117935094409,1579,2021,0,,WHITE,,,0,,WHITE,True,CORRECT,0.962466900000436,962.466900000436
4,20260325_121644,D,J,False,CALIBRATION,1,123,123,staircase,,,0.05731721773205658,0.05761224489795924,0.001,0.004000000000000001,0.44268278226794344,1594,2006,0,,WHITE,,,0,,BLACK,False,INCORRECT,1.6779675999987376,1677.9675999987376
4,20260325_121644,D,J,False,CALIBRATION,1,124,124,staircase,,,0.041141637279208526,0.061612244897959245,0.001,0.004000000000000001,0.5411416372792085,1948,1652,0,,BLACK,,,0,,WHITE,False,INCORRECT,1.8177197000004526,1817.7197000004526
4,20260325_121644,D,J,False,CALIBRATION,1,125,125,staircase,,,0.06636487730971448,0.060612244897959244,0.001,0.004000000000000001,0.5663648773097145,2039,1561,0,,BLACK,,,0,,BLACK,True,CORRECT,1.5870139999988169,1587.0139999988169
4,20260325_121644,D,J,False,CALIBRATION,1,126,126,staircase,,,0.07615479002905177,0.05961224489795924,0.001,0.004000000000000001,0.5761547900290518,2074,1526,0,,BLACK,,,0,,BLACK,True,CORRECT,1.3080446000003576,1308.0446000003576
4,20260325_121644,D,J,False,CALIBRATION,1,127,127,staircase,,,0.04906161113293581,0.05861224489795924,0.001,0.004000000000000001,0.45093838886706417,1623,1977,0,,WHITE,,,0,,WHITE,True,CORRECT,0.9811428999983036,981.1428999983036
4,20260325_121644,D,J,False,CALIBRATION,1,128,128,staircase,,,0.06724901409133727,0.05761224489795924,0.001,0.004000000000000001,0.43275098590866273,1558,2042,0,,WHITE,,,0,,WHITE,True,CORRECT,2.186543399999209,2186.543399999209
4,20260325_121644,D,J,False,CALIBRATION,1,129,129,staircase,,,0.03697197166266615,0.05661224489795924,0.001,0.004000000000000001,0.5369719716626662,1933,1667,0,,BLACK,,,0,,BLACK,True,CORRECT,2.040041399999609,2040.041399999609
4,20260325_121644,D,J,False,CALIBRATION,1,130,130,staircase,,,0.06340069450012738,0.05561224489795924,0.001,0.004000000000000001,0.43659930549987264,1572,2028,0,,WHITE,,,0,,WHITE,True,CORRECT,0.9428905000004306,942.8905000004306
4,20260325_121644,D,J,False,CALIBRATION,1,131,131,staircase,,,0.06612320001255491,0.05961224489795924,0.001,0.004000000000000001,0.4338767999874451,1562,2038,0,,WHITE,,,0,,BLACK,False,INCORRECT,3.90242120000039,3902.42120000039
4,20260325_121644,D,J,False,CALIBRATION,1,132,132,staircase,,,0.06869474058123125,0.05861224489795924,0.001,0.004000000000000001,0.43130525941876874,1553,2047,0,,WHITE,,,0,,WHITE,True,CORRECT,0.8373876000005112,837.3876000005112
4,20260325_121644,D,J,False,CALIBRATION,1,133,133,staircase,,,0.05738832938773075,0.06261224489795925,0.001,0.004000000000000001,0.44261167061226925,1593,2007,0,,WHITE,,,0,,BLACK,False,INCORRECT,2.6578979000005347,2657.8979000005347
4,20260325_121644,D,J,False,CALIBRATION,1,134,134,staircase,,,0.07368503446961983,0.061612244897959245,0.001,0.004000000000000001,0.4263149655303802,1535,2065,0,,WHITE,,,0,,WHITE,True,CORRECT,0.8767557999999553,876.7557999999553
4,20260325_121644,D,J,False,CALIBRATION,1,135,135,staircase,,,0.07598380248840976,0.060612244897959244,0.001,0.004000000000000001,0.5759838024884097,2074,1526,0,,BLACK,,,0,,BLACK,True,CORRECT,0.72480700000051,724.80700000051
4,20260325_121644,D,J,False,CALIBRATION,1,136,136,staircase,,,0.06136994620402553,0.05961224489795924,0.001,0.004000000000000001,0.5613699462040256,2021,1579,0,,BLACK,,,0,,BLACK,True,CORRECT,2.632552900000519,2632.552900000519
4,20260325_121644,D,J,False,CALIBRATION,1,137,137,staircase,,,0.07012533657522527,0.05861224489795924,0.001,0.004000000000000001,0.42987466342477476,1548,2052,0,,WHITE,,,0,,WHITE,True,CORRECT,0.9488782999997056,948.8782999997056
4,20260325_121644,D,J,False,CALIBRATION,1,138,138,staircase,,,0.03787154339660673,0.05761224489795924,0.001,0.004000000000000001,0.4621284566033933,1664,1936,0,,WHITE,,,0,,WHITE,True,CORRECT,1.0748345000010886,1074.8345000010886
4,20260325_121644,D,J,False,CALIBRATION,1,139,139,staircase,,,0.06468275989818796,0.05661224489795924,0.001,0.004000000000000001,0.564682759898188,2033,1567,0,,BLACK,,,0,,BLACK,True,CORRECT,0.9066156999997474,906.6156999997474
4,20260325_121644,D,J,False,CALIBRATION,1,140,140,staircase,,,0.059015800445319934,0.05561224489795924,0.001,0.004000000000000001,0.44098419955468005,1588,2012,0,,WHITE,,,0,,WHITE,True,CORRECT,0.8617895999996108,861.7895999996108
4,20260325_121644,D,J,False,CALIBRATION,1,141,141,staircase,,,0.06846682325981063,0.05461224489795924,0.001,0.004000000000000001,0.4315331767401894,1554,2046,0,,WHITE,,,0,,WHITE,True,CORRECT,0.9921254000000772,992.1254000000772
4,20260325_121644,D,J,False,CALIBRATION,1,142,142,staircase,,,0.058306178526464775,0.05361224489795924,0.001,0.004000000000000001,0.5583061785264648,2010,1590,0,,BLACK,,,0,,BLACK,True,CORRECT,0.6911020000006829,691.1020000006829
4,20260325_121644,D,J,False,CALIBRATION,1,143,143,staircase,,,0.06856257868387647,0.05261224489795924,0.001,0.004000000000000001,0.5685625786838765,2047,1553,0,,BLACK,,,0,,BLACK,True,CORRECT,0.7547101000000112,754.7101000000112
4,20260325_121644,D,J,False,CALIBRATION,1,144,144,staircase,,,0.05192398745063723,0.051612244897959236,0.001,0.004000000000000001,0.4480760125493628,1613,1987,0,,WHITE,,,0,,WHITE,True,CORRECT,0.7391356000007363,739.1356000007363
4,20260325_121644,D,J,False,CALIBRATION,1,145,145,staircase,,,0.04690831762483694,0.050612244897959235,0.001,0.004000000000000001,0.45309168237516306,1631,1969,0,,WHITE,,,0,,WHITE,True,CORRECT,1.3782484000003024,1378.2484000003024
4,20260325_121644,D,J,False,CALIBRATION,1,146,146,staircase,,,0.05588459616149002,0.049612244897959235,0.001,0.004000000000000001,0.55588459616149,2001,1599,0,,BLACK,,,0,,BLACK,True,CORRECT,3.094565600000351,3094.565600000351
4,20260325_121644,D,J,False,CALIBRATION,1,147,147,staircase,,,0.04848233007648894,0.048612244897959234,0.001,0.004000000000000001,0.5484823300764889,1975,1625,0,,BLACK,,,0,,BLACK,True,CORRECT,0.9569301000010455,956.9301000010455
4,20260325_121644,D,J,False,CALIBRATION,1,148,148,staircase,,,0.04647862976491374,0.04761224489795923,0.001,0.004000000000000001,0.5464786297649138,1967,1633,0,,BLACK,,,0,,BLACK,True,CORRECT,5.743528400000287,5743.528400000287
4,20260325_121644,D,J,False,CALIBRATION,1,149,149,staircase,,,0.03884219709542583,0.04661224489795923,0.001,0.004000000000000001,0.4611578029045742,1660,1940,0,,WHITE,,,0,,WHITE,True,CORRECT,1.1096618999999919,1109.6618999999919
4,20260325_121644,D,J,False,CALIBRATION,1,150,150,staircase,,,0.05342542650013677,0.04561224489795923,0.001,0.004000000000000001,0.44657457349986324,1608,1992,0,,WHITE,,,0,,WHITE,True,CORRECT,0.8360396999996738,836.0396999996738
4,20260325_121644,D,J,False,CALIBRATION,1,151,151,staircase,,,0.06039037959108863,0.049612244897959235,0.001,0.004000000000000001,0.5603903795910886,2017,1583,0,,BLACK,,,0,,WHITE,False,INCORRECT,2.1415128000007826,2141.5128000007826
4,20260325_121644,D,J,False,CALIBRATION,1,152,152,staircase,,,0.05373692318385831,0.048612244897959234,0.001,0.004000000000000001,0.5537369231838583,1993,1607,0,,BLACK,,,0,,BLACK,True,CORRECT,0.8232527000000118,823.2527000000118
4,20260325_121644,D,J,False,CALIBRATION,1,153,153,staircase,,,0.06125479354428684,0.04761224489795923,0.001,0.004000000000000001,0.5612547935442869,2021,1579,0,,BLACK,,,0,,BLACK,True,CORRECT,0.9641277000009723,964.1277000009723
4,20260325_121644,D,J,False,CALIBRATION,1,154,154,staircase,,,0.0311502804210339,0.04661224489795923,0.001,0.004000000000000001,0.5311502804210338,1912,1688,0,,BLACK,,,0,,BLACK,True,CORRECT,1.2514107999995758,1251.4107999995758
4,20260325_121644,D,J,False,CALIBRATION,1,155,155,staircase,,,0.035491030509712654,0.050612244897959235,0.001,0.004000000000000001,0.5354910305097127,1928,1672,0,,BLACK,,,0,,WHITE,False,INCORRECT,3.2206229000003077,3220.6229000003077
4,20260325_121644,D,J,False,CALIBRATION,1,156,156,staircase,,,0.0629122741992292,0.049612244897959235,0.001,0.004000000000000001,0.4370877258007708,1574,2026,0,,WHITE,,,0,,WHITE,True,CORRECT,1.3084785000010015,1308.4785000010015
4,20260325_121644,D,J,False,CALIBRATION,1,157,157,staircase,,,0.04943667430897532,0.05361224489795924,0.001,0.004000000000000001,0.4505633256910247,1622,1978,0,,WHITE,,,0,,BLACK,False,INCORRECT,0.8832139000005554,883.2139000005554
4,20260325_121644,D,J,False,CALIBRATION,1,158,158,staircase,,,0.04993714655067081,0.05261224489795924,0.001,0.004000000000000001,0.5499371465506708,1980,1620,0,,BLACK,,,0,,BLACK,True,CORRECT,0.9558219999998983,955.8219999998983
4,20260325_121644,D,J,False,CALIBRATION,1,159,159,staircase,,,0.05097109931660558,0.05661224489795924,0.001,0.004000000000000001,0.5509710993166056,1983,1617,0,,BLACK,,,0,,WHITE,False,INCORRECT,1.1845064999997703,1184.5064999997703
4,20260325_121644,D,J,False,CALIBRATION,1,160,160,staircase,,,0.07501565795547138,0.05561224489795924,0.001,0.004000000000000001,0.5750156579554714,2070,1530,0,,BLACK,,,0,,BLACK,True,CORRECT,1.2737904999994498,1273.7904999994498
4,20260325_121644,D,J,False,CALIBRATION,1,161,161,staircase,,,0.05900455794557603,0.05961224489795924,0.001,0.004000000000000001,0.559004557945576,2012,1588,0,,BLACK,,,0,,WHITE,False,INCORRECT,1.5490788999995857,1549.0788999995857
4,20260325_121644,D,J,False,CALIBRATION,1,162,162,staircase,,,0.06110145942775613,0.05861224489795924,0.001,0.004000000000000001,0.43889854057224387,1580,2020,0,,WHITE,,,0,,WHITE,True,CORRECT,2.6775576,2677.5576
4,20260325_121644,D,J,False,CALIBRATION,1,163,163,staircase,,,0.05146443893457763,0.06261224489795925,0.001,0.004000000000000001,0.5514644389345776,1985,1615,0,,BLACK,,,0,,WHITE,False,INCORRECT,4.190099399998871,4190.099399998871
4,20260325_121644,D,J,False,CALIBRATION,1,164,164,staircase,,,0.057111682652076834,0.061612244897959245,0.001,0.004000000000000001,0.5571116826520768,2006,1594,0,,BLACK,,,0,,BLACK,True,CORRECT,0.9568954999995185,956.8954999995185
4,20260325_121644,D,J,False,CALIBRATION,1,165,165,staircase,,,0.06015377366029148,0.060612244897959244,0.001,0.004000000000000001,0.4398462263397085,1583,2017,0,,WHITE,,,0,,WHITE,True,CORRECT,0.8789268000000448,878.9268000000448
4,20260325_121644,D,J,False,CALIBRATION,1,166,166,staircase,,,0.07195862880787895,0.05961224489795924,0.001,0.004000000000000001,0.42804137119212105,1541,2059,0,,WHITE,,,0,,WHITE,True,CORRECT,0.6633485000002111,663.3485000002111
4,20260325_121644,D,J,False,CALIBRATION,1,167,167,staircase,,,0.06620452905169588,0.05861224489795924,0.001,0.004000000000000001,0.5662045290516959,2038,1562,0,,BLACK,,,0,,BLACK,True,CORRECT,0.7209912999987864,720.9912999987864
4,20260325_121644,D,J,False,CALIBRATION,1,168,168,staircase,,,0.07159448207018151,0.05761224489795924,0.001,0.004000000000000001,0.5715944820701815,2058,1542,0,,BLACK,,,0,,BLACK,True,CORRECT,0.7192549999999756,719.2549999999756
4,20260325_121644,D,J,False,CALIBRATION,1,169,169,staircase,,,0.04845811844851718,0.05661224489795924,0.001,0.004000000000000001,0.5484581184485172,1974,1626,0,,BLACK,,,0,,BLACK,True,CORRECT,2.6875476999994135,2687.5476999994135
4,20260325_121644,D,J,False,CALIBRATION,1,170,170,staircase,,,0.046509583515237755,0.060612244897959244,0.001,0.004000000000000001,0.45349041648476224,1633,1967,0,,WHITE,,,0,,BLACK,False,INCORRECT,1.8831754999991972,1883.1754999991972
4,20260325_121644,D,J,False,CALIBRATION,1,171,171,staircase,,,0.05318839610730216,0.05961224489795924,0.001,0.004000000000000001,0.5531883961073022,1991,1609,0,,BLACK,,,0,,BLACK,True,CORRECT,1.3868517999999312,1386.8517999999312
4,20260325_121644,D,J,False,CALIBRATION,1,172,172,staircase,,,0.06590014626269225,0.05861224489795924,0.001,0.004000000000000001,0.43409985373730775,1563,2037,0,,WHITE,,,0,,WHITE,True,CORRECT,0.892096000001402,892.096000001402
4,20260325_121644,D,J,False,CALIBRATION,1,173,173,staircase,,,0.05342919902906555,0.05761224489795924,0.001,0.004000000000000001,0.44657080097093443,1608,1992,0,,WHITE,,,0,,WHITE,True,CORRECT,1.9585485999996308,1958.5485999996308
4,20260325_121644,D,J,False,CALIBRATION,1,174,174,staircase,,,0.058872992611322984,0.05661224489795924,0.001,0.004000000000000001,0.558872992611323,2012,1588,0,,BLACK,,,0,,BLACK,True,CORRECT,2.341855199998463,2341.855199998463
4,20260325_121644,D,J,False,CALIBRATION,1,175,175,staircase,,,0.05664872412173115,0.05561224489795924,0.001,0.004000000000000001,0.44335127587826884,1596,2004,0,,WHITE,,,0,,WHITE,True,CORRECT,0.8086106999999174,808.6106999999174
4,20260325_121644,D,J,False,CALIBRATION,1,176,176,staircase,,,0.05921559155787695,0.05461224489795924,0.001,0.004000000000000001,0.5592155915578769,2013,1587,0,,BLACK,,,0,,BLACK,True,CORRECT,3.3162855000009586,3316.2855000009586
4,20260325_121644,D,J,False,CALIBRATION,1,177,177,staircase,,,0.049231078115505214,0.05361224489795924,0.001,0.004000000000000001,0.4507689218844948,1623,1977,0,,WHITE,,,0,,WHITE,True,CORRECT,0.871365799999694,871.365799999694
4,20260325_121644,D,J,False,CALIBRATION,1,178,178,staircase,,,0.05187549828857766,0.05761224489795924,0.001,0.004000000000000001,0.5518754982885776,1987,1613,0,,BLACK,,,0,,WHITE,False,INCORRECT,0.9522818999994342,952.2818999994342
4,20260325_121644,D,J,False,CALIBRATION,1,179,179,staircase,,,0.055815805683006696,0.05661224489795924,0.001,0.004000000000000001,0.4441841943169933,1599,2001,0,,WHITE,,,0,,WHITE,True,CORRECT,0.5853127999998833,585.3127999998833
4,20260325_121644,D,J,False,CALIBRATION,1,180,180,staircase,,,0.048103045598666905,0.05561224489795924,0.001,0.004000000000000001,0.4518969544013331,1627,1973,0,,WHITE,,,0,,WHITE,True,CORRECT,1.0689383999997517,1068.9383999997517
4,20260325_121644,D,J,False,CALIBRATION,1,181,181,staircase,,,0.048664050956331376,0.05461224489795924,0.001,0.004000000000000001,0.5486640509563314,1975,1625,0,,BLACK,,,0,,BLACK,True,CORRECT,0.8454559999991034,845.4559999991034
4,20260325_121644,D,J,False,CALIBRATION,1,182,182,staircase,,,0.06472864755036513,0.05361224489795924,0.001,0.004000000000000001,0.5647286475503651,2033,1567,0,,BLACK,,,0,,BLACK,True,CORRECT,3.86275360000036,3862.75360000036
4,20260325_121644,D,J,False,CALIBRATION,1,183,183,staircase,,,0.04317907858975631,0.05261224489795924,0.001,0.004000000000000001,0.5431790785897563,1955,1645,0,,BLACK,,,0,,BLACK,True,CORRECT,1.8997567999995226,1899.7567999995226
4,20260325_121644,D,J,False,CALIBRATION,1,184,184,staircase,,,0.05607050863392726,0.051612244897959236,0.001,0.004000000000000001,0.44392949136607274,1598,2002,0,,WHITE,,,0,,WHITE,True,CORRECT,1.031118900000365,1031.118900000365
4,20260325_121644,D,J,False,CALIBRATION,1,185,185,staircase,,,0.05847772084053965,0.050612244897959235,0.001,0.004000000000000001,0.44152227915946035,1589,2011,0,,WHITE,,,0,,WHITE,True,CORRECT,0.9100906999992731,910.090699999273
4,20260325_121644,D,J,False,CALIBRATION,1,186,186,staircase,,,0.04084068006043381,0.049612244897959235,0.001,0.004000000000000001,0.4591593199395662,1653,1947,0,,WHITE,,,0,,WHITE,True,CORRECT,4.093923700000232,4093.923700000232
4,20260325_121644,D,J,False,CALIBRATION,1,187,187,staircase,,,0.05811067723406851,0.048612244897959234,0.001,0.004000000000000001,0.4418893227659315,1591,2009,0,,WHITE,,,0,,WHITE,True,CORRECT,0.9617631000000983,961.7631000000983
4,20260325_121644,D,J,False,CALIBRATION,1,188,188,staircase,,,0.06426865905979526,0.04761224489795923,0.001,0.004000000000000001,0.5642686590597953,2031,1569,0,,BLACK,,,0,,BLACK,True,CORRECT,1.5830007000004116,1583.0007000004116
4,20260325_121644,D,J,False,CALIBRATION,1,189,189,staircase,,,0.04798152283966813,0.04661224489795923,0.001,0.004000000000000001,0.4520184771603319,1627,1973,0,,WHITE,,,0,,WHITE,True,CORRECT,0.7602451999991899,760.2451999991899
4,20260325_121644,D,J,False,CALIBRATION,1,190,190,staircase,,,0.035491010236140146,0.04561224489795923,0.001,0.004000000000000001,0.46450898976385985,1672,1928,0,,WHITE,,,0,,WHITE,True,CORRECT,0.781853599999522,781.853599999522
4,20260325_121644,D,J,False,CALIBRATION,1,191,191,staircase,,,0.04687858338919157,0.04461224489795923,0.001,0.004000000000000001,0.5468785833891916,1969,1631,0,,BLACK,,,0,,BLACK,True,CORRECT,1.1621583999985887,1162.1583999985887
4,20260325_121644,D,J,False,CALIBRATION,1,192,192,staircase,,,0.03712100083559908,0.048612244897959234,0.001,0.004000000000000001,0.5371210008355991,1934,1666,0,,BLACK,,,0,,WHITE,False,INCORRECT,0.9331963999993604,933.1963999993604
4,20260325_121644,D,J,False,CALIBRATION,1,193,193,staircase,,,0.037362802389191825,0.04761224489795923,0.001,0.004000000000000001,0.4626371976108082,1665,1935,0,,WHITE,,,0,,WHITE,True,CORRECT,1.5436415000003763,1543.6415000003763
4,20260325_121644,D,J,False,CALIBRATION,1,194,194,staircase,,,0.0726406533472693,0.04661224489795923,0.001,0.004000000000000001,0.4273593466527307,1538,2062,0,,WHITE,,,0,,WHITE,True,CORRECT,0.8181690000001254,818.1690000001254
4,20260325_121644,D,J,False,CALIBRATION,1,195,195,staircase,,,0.046541303739588716,0.04561224489795923,0.001,0.004000000000000001,0.4534586962604113,1632,1968,0,,WHITE,,,0,,WHITE,True,CORRECT,0.5763081999994029,576.3081999994029
4,20260325_121644,D,J,False,CALIBRATION,1,196,196,staircase,,,0.05166654385700097,0.049612244897959235,0.001,0.004000000000000001,0.448333456142999,1614,1986,0,,WHITE,,,0,,BLACK,False,INCORRECT,0.999760900000183,999.760900000183
4,20260325_121644,D,J,False,CALIBRATION,1,197,197,staircase,,,0.05296488832658075,0.048612244897959234,0.001,0.004000000000000001,0.44703511167341925,1609,1991,0,,WHITE,,,0,,WHITE,True,CORRECT,0.6599086000005627,659.9086000005627
4,20260325_121644,D,J,False,CALIBRATION,1,198,198,staircase,,,0.046607425411978654,0.04761224489795923,0.001,0.004000000000000001,0.45339257458802135,1632,1968,0,,WHITE,,,0,,WHITE,True,CORRECT,2.06496000000152,2064.96000000152
4,20260325_121644,D,J,False,CALIBRATION,1,199,199,staircase,,,0.04035158031827292,0.04661224489795923,0.001,0.004000000000000001,0.4596484196817271,1655,1945,0,,WHITE,,,0,,WHITE,True,CORRECT,0.6327872000001662,632.7872000001662
4,20260325_121644,D,J,False,CALIBRATION,1,200,200,staircase,,,0.056247094606929685,0.04561224489795923,0.001,0.004000000000000001,0.44375290539307033,1598,2002,0,,WHITE,,,0,,WHITE,True,CORRECT,0.5930453000000853,593.0453000000853
4,20260325_121644,D,J,False,CALIBRATION,1,201,201,staircase,,,0.04633255752298473,0.049612244897959235,0.001,0.004000000000000001,0.4536674424770153,1633,1967,0,,WHITE,,,0,,BLACK,False,INCORRECT,1.470406100001128,1470.406100001128
4,20260325_121644,D,J,False,CALIBRATION,1,202,202,staircase,,,0.053185148315439676,0.048612244897959234,0.001,0.004000000000000001,0.5531851483154396,1991,1609,0,,BLACK,,,0,,BLACK,True,CORRECT,1.3292246000000887,1329.2246000000887
4,20260325_121644,D,J,False,CALIBRATION,1,203,203,staircase,,,0.06305744476615126,0.04761224489795923,0.001,0.004000000000000001,0.43694255523384873,1573,2027,0,,WHITE,,,0,,WHITE,True,CORRECT,0.6316081000004488,631.6081000004488
4,20260325_121644,D,J,False,CALIBRATION,1,204,204,staircase,,,0.0510317839764078,0.04661224489795923,0.001,0.004000000000000001,0.5510317839764078,1984,1616,0,,BLACK,,,0,,BLACK,True,CORRECT,0.5594787000009092,559.4787000009092
4,20260325_121644,D,J,False,CALIBRATION,1,205,205,staircase,,,0.05767150126308529,0.04561224489795923,0.001,0.004000000000000001,0.5576715012630853,2008,1592,0,,BLACK,,,0,,BLACK,True,CORRECT,1.347042400000646,1347.042400000646
4,20260325_121644,D,J,False,CALIBRATION,1,206,206,staircase,,,0.05622241260408227,0.04461224489795923,0.001,0.004000000000000001,0.4437775873959177,1598,2002,0,,WHITE,,,0,,WHITE,True,CORRECT,0.6913446999988082,691.3446999988082
4,20260325_121644,D,J,False,CALIBRATION,1,207,207,staircase,,,0.05913027262944395,0.04361224489795923,0.001,0.004000000000000001,0.5591302726294439,2013,1587,0,,BLACK,,,0,,BLACK,True,CORRECT,0.6794468000007328,679.4468000007328
4,20260325_121644,D,J,False,CALIBRATION,1,208,208,staircase,,,0.029851627233137938,0.04261224489795923,0.001,0.004000000000000001,0.529851627233138,1907,1693,0,,BLACK,,,0,,BLACK,True,CORRECT,1.086870799999815,1086.870799999815
4,20260325_121644,D,J,False,CALIBRATION,1,209,209,staircase,,,0.032140663543219386,0.04661224489795923,0.001,0.004000000000000001,0.46785933645678063,1684,1916,0,,WHITE,,,0,,BLACK,False,INCORRECT,0.8050653999998758,805.0653999998758
4,20260325_121644,D,J,False,CALIBRATION,1,210,210,staircase,,,0.04919920539151597,0.04561224489795923,0.001,0.004000000000000001,0.45080079460848405,1623,1977,0,,WHITE,,,0,,WHITE,True,CORRECT,0.7128923000000214,712.8923000000214
4,20260325_121644,D,J,False,CALIBRATION,1,211,211,staircase,,,0.038712927282259474,0.04461224489795923,0.001,0.004000000000000001,0.5387129272822595,1939,1661,0,,BLACK,,,0,,BLACK,True,CORRECT,0.7403068000003259,740.3068000003259
4,20260325_121644,D,J,False,CALIBRATION,1,212,212,staircase,,,0.05488623866970465,0.04361224489795923,0.001,0.004000000000000001,0.44511376133029534,1602,1998,0,,WHITE,,,0,,WHITE,True,CORRECT,0.8909198000001197,890.9198000001197
4,20260325_121644,D,J,False,CALIBRATION,1,213,213,staircase,,,0.035350732005856894,0.04261224489795923,0.001,0.004000000000000001,0.5353507320058569,1927,1673,0,,BLACK,,,0,,BLACK,True,CORRECT,0.693063799999436,693.063799999436
4,20260325_121644,D,J,False,CALIBRATION,1,214,214,staircase,,,0.05144687102440851,0.04161224489795923,0.001,0.004000000000000001,0.5514468710244085,1985,1615,0,,BLACK,,,0,,BLACK,True,CORRECT,0.7837622000006377,783.7622000006377
4,20260325_121644,D,J,False,CALIBRATION,1,215,215,staircase,,,0.044482643108782305,0.04061224489795923,0.001,0.004000000000000001,0.5444826431087824,1960,1640,0,,BLACK,,,0,,BLACK,True,CORRECT,0.8720711999994819,872.0711999994819
4,20260325_121644,D,J,False,CALIBRATION,1,216,216,staircase,,,0.038531810569739894,0.04461224489795923,0.001,0.004000000000000001,0.5385318105697399,1939,1661,0,,BLACK,,,0,,WHITE,False,INCORRECT,1.1637028000004648,1163.7028000004648
4,20260325_121644,D,J,False,CALIBRATION,1,217,217,staircase,,,0.05528537179830491,0.04361224489795923,0.001,0.004000000000000001,0.555285371798305,1999,1601,0,,BLACK,,,0,,BLACK,True,CORRECT,0.6477751000002172,647.7751000002172
4,20260325_121644,D,J,False,CALIBRATION,1,218,218,staircase,,,0.0605322450210546,0.04261224489795923,0.001,0.004000000000000001,0.5605322450210546,2018,1582,0,,BLACK,,,0,,BLACK,True,CORRECT,2.8322206000011647,2832.2206000011647
4,20260325_121644,D,J,False,CALIBRATION,1,219,219,staircase,,,0.0384637673301402,0.04161224489795923,0.001,0.004000000000000001,0.5384637673301402,1938,1662,0,,BLACK,,,0,,BLACK,True,CORRECT,1.3414773999993486,1341.4773999993486
4,20260325_121644,D,J,False,CALIBRATION,1,220,220,staircase,,,0.04742621304332337,0.04061224489795923,0.001,0.004000000000000001,0.5474262130433234,1971,1629,0,,BLACK,,,0,,BLACK,True,CORRECT,2.1324519000008877,2132.4519000008877
4,20260325_121644,D,J,False,CALIBRATION,1,221,221,staircase,,,0.058919565661758475,0.039612244897959226,0.001,0.004000000000000001,0.4410804343382415,1588,2012,0,,WHITE,,,0,,WHITE,True,CORRECT,3.9053918000008707,3905.3918000008707
4,20260325_121644,D,J,False,CALIBRATION,1,222,222,staircase,,,0.030002132710889657,0.038612244897959225,0.001,0.004000000000000001,0.5300021327108897,1908,1692,0,,BLACK,,,0,,BLACK,True,CORRECT,0.8219293999991351,821.9293999991351
4,20260325_121644,D,J,False,CALIBRATION,1,223,223,staircase,,,0.03689927391596265,0.037612244897959224,0.001,0.004000000000000001,0.46310072608403735,1667,1933,0,,WHITE,,,0,,WHITE,True,CORRECT,0.6389085999999224,638.9085999999224
4,20260325_121644,D,J,False,CALIBRATION,1,224,224,staircase,,,0.030650034656687804,0.03661224489795922,0.001,0.004000000000000001,0.4693499653433122,1690,1910,0,,WHITE,,,0,,WHITE,True,CORRECT,0.8229251000011573,822.9251000011573
4,20260325_121644,D,J,False,CALIBRATION,1,225,225,staircase,,,0.03073986350826843,0.03561224489795922,0.001,0.004000000000000001,0.5307398635082684,1911,1689,0,,BLACK,,,0,,BLACK,True,CORRECT,2.4031897999993816,2403.1897999993816
4,20260325_121644,D,J,False,CALIBRATION,1,226,226,staircase,,,0.037189568759852146,0.03461224489795922,0.001,0.004000000000000001,0.5371895687598521,1934,1666,0,,BLACK,,,0,,BLACK,True,CORRECT,2.3761293000006845,2376.1293000006845
4,20260325_121644,D,J,False,CALIBRATION,1,227,227,staircase,,,0.03082246963927933,0.03361224489795922,0.001,0.004000000000000001,0.5308224696392794,1911,1689,0,,BLACK,,,0,,BLACK,True,CORRECT,2.86642589999974,2866.42589999974
4,20260325_121644,D,J,False,CALIBRATION,1,228,228,staircase,,,0.042089926569415834,0.03261224489795922,0.001,0.004000000000000001,0.5420899265694158,1952,1648,0,,BLACK,,,0,,BLACK,True,CORRECT,3.03259910000088,3032.59910000088
4,20260325_121644,D,J,False,CALIBRATION,1,229,229,staircase,,,0.02398464108364745,0.03161224489795922,0.001,0.004000000000000001,0.5239846410836475,1886,1714,0,,BLACK,,,0,,BLACK,True,CORRECT,2.3545797999995557,2354.5797999995557
4,20260325_121644,D,J,False,CALIBRATION,1,230,230,staircase,,,0.02563898746228538,0.03561224489795922,0.001,0.004000000000000001,0.4743610125377146,1708,1892,0,,WHITE,,,0,,BLACK,False,INCORRECT,2.3208453000006557,2320.8453000006557
4,20260325_121644,D,J,False,CALIBRATION,1,231,231,staircase,,,0.030413304711247147,0.03461224489795922,0.001,0.004000000000000001,0.5304133047112471,1909,1691,0,,BLACK,,,0,,BLACK,True,CORRECT,3.8734616999990976,3873.4616999990976
4,20260325_121644,D,J,False,CALIBRATION,1,232,232,staircase,,,0.046386888592142295,0.03361224489795922,0.001,0.004000000000000001,0.4536131114078577,1633,1967,0,,WHITE,,,0,,WHITE,True,CORRECT,0.8069576999987476,806.9576999987476
4,20260325_121644,D,J,False,CALIBRATION,1,233,233,staircase,,,0.045532926411405626,0.03261224489795922,0.001,0.004000000000000001,0.5455329264114056,1964,1636,0,,BLACK,,,0,,BLACK,True,CORRECT,2.7235377999986667,2723.5377999986667
4,20260325_121644,D,J,False,CALIBRATION,1,234,234,staircase,,,0.02801379280620723,0.03661224489795922,0.001,0.004000000000000001,0.47198620719379275,1699,1901,0,,WHITE,,,0,,BLACK,False,INCORRECT,1.0002999999996973,1000.2999999996973
4,20260325_121644,D,J,False,CALIBRATION,1,235,235,staircase,,,0.04833913980059763,0.03561224489795922,0.001,0.004000000000000001,0.4516608601994024,1626,1974,0,,WHITE,,,0,,WHITE,True,CORRECT,0.7879551000005449,787.9551000005449
4,20260325_121644,D,J,False,CALIBRATION,1,236,236,staircase,,,0.03004566696483109,0.03461224489795922,0.001,0.004000000000000001,0.5300456669648311,1908,1692,0,,BLACK,,,0,,BLACK,True,CORRECT,4.542467200000829,4542.467200000829
4,20260325_121644,D,J,False,CALIBRATION,1,237,237,staircase,,,0.029212308746221303,0.03361224489795922,0.001,0.004000000000000001,0.5292123087462213,1905,1695,0,,BLACK,,,0,,BLACK,True,CORRECT,1.4401550000002317,1440.1550000002317
4,20260325_121644,D,J,False,CALIBRATION,1,238,238,staircase,,,0.025506006967365796,0.037612244897959224,0.001,0.004000000000000001,0.5255060069673658,1892,1708,0,,BLACK,,,0,,WHITE,False,INCORRECT,2.287374400000772,2287.374400000772
4,20260325_121644,D,J,False,CALIBRATION,1,239,239,staircase,,,0.03652353161321346,0.03661224489795922,0.001,0.004000000000000001,0.5365235316132134,1931,1669,0,,BLACK,,,0,,BLACK,True,CORRECT,0.7185630999993009,718.5630999993009
4,20260325_121644,D,J,False,CALIBRATION,1,240,240,staircase,,,0.022458156313961898,0.03561224489795922,0.001,0.004000000000000001,0.4775418436860381,1719,1881,0,,WHITE,,,0,,WHITE,True,CORRECT,0.9839748999984295,983.9748999984295
4,20260325_121644,D,J,False,CALIBRATION,1,241,241,staircase,,,0.036810620034814695,0.03461224489795922,0.001,0.004000000000000001,0.4631893799651853,1667,1933,0,,WHITE,,,0,,WHITE,True,CORRECT,2.0170772000001307,2017.0772000001307
4,20260325_121644,D,J,False,CALIBRATION,1,242,242,staircase,,,0.03560642717645003,0.03361224489795922,0.001,0.004000000000000001,0.46439357282355,1672,1928,0,,WHITE,,,0,,WHITE,True,CORRECT,2.592029800000091,2592.029800000091
4,20260325_121644,D,J,False,CALIBRATION,1,243,243,staircase,,,0.038532113960735824,0.03261224489795922,0.001,0.004000000000000001,0.4614678860392642,1661,1939,0,,WHITE,,,0,,WHITE,True,CORRECT,0.9057132999987516,905.7132999987516
4,20260325_121644,D,J,False,CALIBRATION,1,244,244,staircase,,,0.02887990701432825,0.03161224489795922,0.001,0.004000000000000001,0.47112009298567176,1696,1904,0,,WHITE,,,0,,WHITE,True,CORRECT,1.2121178000015789,1212.1178000015789
4,20260325_121644,D,J,False,CALIBRATION,1,245,245,staircase,,,0.039786021073878755,0.03561224489795922,0.001,0.004000000000000001,0.5397860210738787,1943,1657,0,,BLACK,,,0,,WHITE,False,INCORRECT,0.6995249999999942,699.5249999999942
4,20260325_121644,D,J,False,CALIBRATION,1,246,246,staircase,,,0.04163770155604183,0.039612244897959226,0.001,0.004000000000000001,0.5416377015560419,1950,1650,0,,BLACK,,,0,,WHITE,False,INCORRECT,0.640053799999805,640.053799999805
4,20260325_121644,D,J,False,CALIBRATION,1,247,247,staircase,,,0.03259683855338347,0.04361224489795923,0.001,0.004000000000000001,0.46740316144661653,1683,1917,0,,WHITE,,,0,,BLACK,False,INCORRECT,0.798513699999603,798.513699999603
4,20260325_121644,D,J,False,CALIBRATION,1,248,248,staircase,,,0.03964737475887817,0.04261224489795923,0.001,0.004000000000000001,0.46035262524112186,1657,1943,0,,WHITE,,,0,,WHITE,True,CORRECT,0.8647770000006858,864.7770000006858
4,20260325_121644,D,J,False,CALIBRATION,1,249,249,staircase,,,0.04433448217806955,0.04161224489795923,0.001,0.004000000000000001,0.5443344821780696,1960,1640,0,,BLACK,,,0,,BLACK,True,CORRECT,1.4524528000001737,1452.4528000001737
4,20260325_121644,D,J,False,CALIBRATION,1,250,250,staircase,,,0.04551295207232124,0.04061224489795923,0.001,0.004000000000000001,0.45448704792767874,1636,1964,0,,WHITE,,,0,,WHITE,True,CORRECT,1.0166640999996162,1016.6640999996162
4,20260325_121644,D,J,False,CALIBRATION,1,251,251,staircase,,,0.047384003745040544,0.039612244897959226,0.001,0.004000000000000001,0.5473840037450406,1971,1629,0,,BLACK,,,0,,BLACK,True,CORRECT,3.7205142000002525,3720.5142000002525
4,20260325_121644,D,J,False,CALIBRATION,1,252,252,staircase,,,0.037886518293870804,0.038612244897959225,0.001,0.004000000000000001,0.5378865182938708,1936,1664,0,,BLACK,,,0,,BLACK,True,CORRECT,1.3410561000000598,1341.0561000000598
4,20260325_121644,D,J,False,CALIBRATION,1,253,253,staircase,,,0.033941439031789235,0.037612244897959224,0.001,0.004000000000000001,0.5339414390317893,1922,1678,0,,BLACK,,,0,,BLACK,True,CORRECT,1.331205599999521,1331.205599999521
4,20260325_121644,D,J,False,CALIBRATION,1,254,254,staircase,,,0.054231064578486185,0.03661224489795922,0.001,0.004000000000000001,0.5542310645784861,1995,1605,0,,BLACK,,,0,,BLACK,True,CORRECT,0.8061061000007612,806.1061000007612
4,20260325_121644,D,J,False,CALIBRATION,1,255,255,staircase,,,0.049014581081702494,0.03561224489795922,0.001,0.004000000000000001,0.4509854189182975,1624,1976,0,,WHITE,,,0,,WHITE,True,CORRECT,0.7719444999984262,771.9444999984262
4,20260325_121644,D,J,False,CALIBRATION,1,256,256,staircase,,,0.03041039308187922,0.03461224489795922,0.001,0.004000000000000001,0.5304103930818792,1909,1691,0,,BLACK,,,0,,BLACK,True,CORRECT,1.8339894999990065,1833.9894999990065
4,20260325_121644,D,J,False,CALIBRATION,1,257,257,staircase,,,0.020017768771514913,0.03361224489795922,0.001,0.004000000000000001,0.4799822312284851,1728,1872,0,,WHITE,,,0,,WHITE,True,CORRECT,1.9889923999999155,1988.9923999999155
4,20260325_121644,D,J,False,CALIBRATION,1,258,258,staircase,,,0.03485373088131947,0.03261224489795922,0.001,0.004000000000000001,0.5348537308813195,1925,1675,0,,BLACK,,,0,,BLACK,True,CORRECT,1.320133799999894,1320.133799999894
4,20260325_121644,D,J,False,CALIBRATION,1,259,259,staircase,,,0.04011045101612731,0.03161224489795922,0.001,0.004000000000000001,0.5401104510161273,1944,1656,0,,BLACK,,,0,,BLACK,True,CORRECT,0.928987600000255,928.987600000255
4,20260325_121644,D,J,False,CALIBRATION,1,260,260,staircase,,,0.02777964000190316,0.030612244897959218,0.001,0.004000000000000001,0.47222035999809686,1700,1900,0,,WHITE,,,0,,WHITE,True,CORRECT,1.0881337999999232,1088.1337999999232
4,20260325_121644,D,J,False,CALIBRATION,1,261,261,staircase,,,0.030209745875606542,0.029612244897959217,0.001,0.004000000000000001,0.46979025412439346,1691,1909,0,,WHITE,,,0,,WHITE,True,CORRECT,1.916368300000613,1916.368300000613
4,20260325_121644,D,J,False,CALIBRATION,1,262,262,staircase,,,0.03140734704886995,0.028612244897959216,0.001,0.004000000000000001,0.5314073470488699,1913,1687,0,,BLACK,,,0,,BLACK,True,CORRECT,0.7449556000010489,744.9556000010489
4,20260325_121644,D,J,False,CALIBRATION,1,263,263,staircase,,,0.04427799831020969,0.027612244897959215,0.001,0.004000000000000001,0.4557220016897903,1641,1959,0,,WHITE,,,0,,WHITE,True,CORRECT,3.469293900001503,3469.293900001503
4,20260325_121644,D,J,False,CALIBRATION,1,264,264,staircase,,,0.02503169433211401,0.026612244897959214,0.001,0.004000000000000001,0.525031694332114,1890,1710,0,,BLACK,,,0,,BLACK,True,CORRECT,1.1149500999999873,1114.9500999999873
4,20260325_121644,D,J,False,CALIBRATION,1,265,265,staircase,,,0.034018682713082136,0.025612244897959213,0.001,0.004000000000000001,0.5340186827130822,1922,1678,0,,BLACK,,,0,,BLACK,True,CORRECT,2.0541802999996435,2054.1802999996435
4,20260325_121644,D,J,False,CALIBRATION,1,266,266,staircase,,,0.011266994810973322,0.024612244897959212,0.001,0.004000000000000001,0.4887330051890267,1759,1841,0,,WHITE,,,0,,WHITE,True,CORRECT,1.5394479999995383,1539.4479999995383
4,20260325_121644,D,J,False,CALIBRATION,1,267,267,staircase,,,0.03274452522987857,0.028612244897959212,0.001,0.004000000000000001,0.4672554747701214,1682,1918,0,,WHITE,,,0,,BLACK,False,INCORRECT,1.5218102999988332,1521.8102999988332
4,20260325_121644,D,J,False,CALIBRATION,1,268,268,staircase,,,0.007158660088696124,0.03261224489795921,0.001,0.004000000000000001,0.49284133991130386,1774,1826,0,,WHITE,,,0,,BLACK,False,INCORRECT,1.188644599998952,1188.644599998952
4,20260325_121644,D,J,False,CALIBRATION,1,269,269,staircase,,,0.04350205203679748,0.03161224489795921,0.001,0.004000000000000001,0.45649794796320253,1643,1957,0,,WHITE,,,0,,WHITE,True,CORRECT,1.3721110000005865,1372.1110000005865
4,20260325_121644,D,J,False,CALIBRATION,1,270,270,staircase,,,0.03231128742550159,0.03061224489795921,0.001,0.004000000000000001,0.4676887125744984,1684,1916,0,,WHITE,,,0,,WHITE,True,CORRECT,0.7652078999999503,765.2078999999503
4,20260325_121644,D,J,False,CALIBRATION,1,271,271,staircase,,,0.007392708066910371,0.02961224489795921,0.001,0.004000000000000001,0.4926072919330896,1773,1827,0,,WHITE,,,0,,WHITE,True,CORRECT,1.0857463000011194,1085.7463000011194
4,20260325_121644,D,J,False,CALIBRATION,1,272,272,staircase,,,0.015211301889177556,0.02861224489795921,0.001,0.004000000000000001,0.4847886981108224,1745,1855,0,,WHITE,,,0,,WHITE,True,CORRECT,1.1531911000001855,1153.1911000001855
4,20260325_121644,D,J,False,CALIBRATION,1,273,273,staircase,,,0.029756146418537167,0.027612244897959208,0.001,0.004000000000000001,0.5297561464185372,1907,1693,0,,BLACK,,,0,,BLACK,True,CORRECT,0.8060800999992352,806.0800999992352
4,20260325_121644,D,J,False,CALIBRATION,1,274,274,staircase,,,0.03155213598561892,0.026612244897959207,0.001,0.004000000000000001,0.4684478640143811,1686,1914,0,,WHITE,,,0,,WHITE,True,CORRECT,1.0131282999991527,1013.1282999991527
4,20260325_121644,D,J,False,CALIBRATION,1,275,275,staircase,,,0.028327108749652698,0.025612244897959206,0.001,0.004000000000000001,0.4716728912503473,1698,1902,0,,WHITE,,,0,,WHITE,True,CORRECT,1.93731950000074,1937.31950000074
4,20260325_121644,D,J,False,CALIBRATION,1,276,276,staircase,,,0.03049694408311691,0.024612244897959205,0.001,0.004000000000000001,0.46950305591688307,1690,1910,0,,WHITE,,,0,,WHITE,True,CORRECT,2.1944853000004514,2194.4853000004514
4,20260325_121644,D,J,False,CALIBRATION,1,277,277,staircase,,,0.02886618035976822,0.023612244897959205,0.001,0.004000000000000001,0.47113381964023177,1696,1904,0,,WHITE,,,0,,WHITE,True,CORRECT,0.9818353000009665,981.8353000009665
4,20260325_121644,D,J,False,CALIBRATION,1,278,278,staircase,,,0.0002777777777777778,0.027612244897959205,0.001,0.004000000000000001,0.5002777777777778,1801,1799,0,,BLACK,,,0,,WHITE,False,INCORRECT,1.5820464999997057,1582.0464999997057
4,20260325_121644,D,J,False,CALIBRATION,1,279,279,staircase,,,0.013985636797843759,0.031612244897959205,0.001,0.004000000000000001,0.48601436320215624,1750,1850,0,,WHITE,,,0,,BLACK,False,INCORRECT,2.426380300001256,2426.380300001256
4,20260325_121644,D,J,False,CALIBRATION,1,280,280,staircase,,,0.039337444575942446,0.030612244897959204,0.001,0.004000000000000001,0.46066255542405754,1658,1942,0,,WHITE,,,0,,WHITE,True,CORRECT,1.692752400000245,1692.752400000245
4,20260325_121644,D,J,False,CALIBRATION,1,281,281,staircase,,,0.02912818479212925,0.03461224489795921,0.001,0.004000000000000001,0.5291281847921292,1905,1695,0,,BLACK,,,0,,WHITE,False,INCORRECT,1.8838968000000023,1883.8968000000023
4,20260325_121644,D,J,False,CALIBRATION,1,282,282,staircase,,,0.03496221181873946,0.03861224489795921,0.001,0.004000000000000001,0.5349622118187395,1926,1674,0,,BLACK,,,0,,WHITE,False,INCORRECT,2.0273059000010107,2027.3059000010107
4,20260325_121644,D,J,False,CALIBRATION,1,283,283,staircase,,,0.013544733500033546,0.042612244897959214,0.001,0.004000000000000001,0.48645526649996645,1751,1849,0,,WHITE,,,0,,BLACK,False,INCORRECT,2.1095705999996426,2109.5705999996426
4,20260325_121644,D,J,False,CALIBRATION,1,284,284,staircase,,,0.04448344376291394,0.041612244897959214,0.001,0.004000000000000001,0.4555165562370861,1640,1960,0,,WHITE,,,0,,WHITE,True,CORRECT,0.5795625999999174,579.5625999999174
4,20260325_121644,D,J,False,CALIBRATION,1,285,285,staircase,,,0.05801653946536839,0.04061224489795921,0.001,0.004000000000000001,0.4419834605346316,1591,2009,0,,WHITE,,,0,,WHITE,True,CORRECT,0.7317779000004521,731.7779000004521
4,20260325_121644,D,J,False,CALIBRATION,1,286,286,staircase,,,0.03811052236782933,0.03961224489795921,0.001,0.004000000000000001,0.4618894776321707,1663,1937,0,,WHITE,,,0,,WHITE,True,CORRECT,3.91678900000079,3916.78900000079
4,20260325_121644,D,J,False,CALIBRATION,1,287,287,staircase,,,0.037027256508341905,0.03861224489795921,0.001,0.004000000000000001,0.5370272565083419,1933,1667,0,,BLACK,,,0,,BLACK,True,CORRECT,0.6739558999997826,673.9558999997826
4,20260325_121644,D,J,False,CALIBRATION,1,288,288,staircase,,,0.039647763360180145,0.03761224489795921,0.001,0.004000000000000001,0.5396477633601802,1943,1657,0,,BLACK,,,0,,BLACK,True,CORRECT,1.2192611000009492,1219.2611000009492
4,20260325_121644,D,J,False,CALIBRATION,1,289,289,staircase,,,0.05734810498313435,0.03661224489795921,0.001,0.004000000000000001,0.5573481049831344,2006,1594,0,,BLACK,,,0,,BLACK,True,CORRECT,0.6557551000005333,655.7551000005333
4,20260325_121644,D,J,False,CALIBRATION,1,290,290,staircase,,,0.034674369924107294,0.03561224489795921,0.001,0.004000000000000001,0.5346743699241073,1925,1675,0,,BLACK,,,0,,BLACK,True,CORRECT,0.5586499000000913,558.6499000000913
4,20260325_121644,D,J,False,CALIBRATION,1,291,291,staircase,,,0.048928933931628935,0.03461224489795921,0.001,0.004000000000000001,0.5489289339316289,1976,1624,0,,BLACK,,,0,,BLACK,True,CORRECT,1.2991885999999795,1299.1885999999795
4,20260325_121644,D,J,False,CALIBRATION,1,292,292,staircase,,,0.036039335265698705,0.033612244897959206,0.001,0.004000000000000001,0.5360393352656987,1930,1670,0,,BLACK,,,0,,BLACK,True,CORRECT,0.5922329999993963,592.2329999993963
4,20260325_121644,D,J,False,CALIBRATION,1,293,293,staircase,,,0.0398677369716615,0.03761224489795921,0.001,0.004000000000000001,0.4601322630283385,1656,1944,0,,WHITE,,,0,,BLACK,False,INCORRECT,3.0363665999993827,3036.3665999993827
4,20260325_121644,D,J,False,CALIBRATION,1,294,294,staircase,,,0.03106680804667784,0.03661224489795921,0.001,0.004000000000000001,0.46893319195332217,1688,1912,0,,WHITE,,,0,,WHITE,True,CORRECT,2.483383099999628,2483.383099999628
4,20260325_121644,D,J,False,CALIBRATION,1,295,295,staircase,,,0.04681598966422104,0.04061224489795921,0.001,0.004000000000000001,0.45318401033577893,1631,1969,0,,WHITE,,,0,,BLACK,False,INCORRECT,3.5514668000014353,3551.4668000014353
4,20260325_121644,D,J,False,CALIBRATION,1,296,296,staircase,,,0.03331955951509605,0.044612244897959216,0.001,0.004000000000000001,0.533319559515096,1920,1680,0,,BLACK,,,0,,WHITE,False,INCORRECT,1.6613190000007307,1661.3190000007307
4,20260325_121644,D,J,False,CALIBRATION,1,297,297,staircase,,,0.03766621592574636,0.04861224489795922,0.001,0.004000000000000001,0.46233378407425363,1664,1936,0,,WHITE,,,0,,BLACK,False,INCORRECT,1.8597318000011,1859.7318000011
4,20260325_121644,D,J,False,CALIBRATION,1,298,298,staircase,,,0.025070070171419538,0.05261224489795922,0.001,0.004000000000000001,0.5250700701714195,1890,1710,0,,BLACK,,,0,,WHITE,False,INCORRECT,0.9287592999990011,928.7592999990011
4,20260325_121644,D,J,False,CALIBRATION,1,299,299,staircase,,,0.06371994143993562,0.05161224489795922,0.001,0.004000000000000001,0.43628005856006435,1571,2029,0,,WHITE,,,0,,WHITE,True,CORRECT,0.7047238000013749,704.7238000013749
4,20260325_121644,D,J,False,CALIBRATION,1,300,300,staircase,,,0.05134352820639184,0.05061224489795922,0.001,0.004000000000000001,0.4486564717936082,1615,1985,0,,WHITE,,,0,,WHITE,True,CORRECT,0.6343393999995897,634.3393999995897
